,time,ax,ay,az
0,10.007,-0.2,0.16,0.59
1,10.038,-0.2,0.16,0.59
2,10.043,-0.2,0.16,0.59
3,10.059,-0.2,0.16,0.59
4,10.08,-0.2,0.16,0.59
5,10.098,-0.2,0.16,0.59
6,10.118,-0.2,0.16,0.59
7,10.136,-0.2,0.16,0.59
8,10.156,-0.2,0.16,0.59
9,10.175,-0.2,0.16,0.59
10,10.194,-0.2,0.16,0.59
11,10.221,-0.2,0.16,0.59
12,10.237,-0.2,0.16,0.59
13,10.25,-0.2,0.16,0.59
14,10.27,-0.2,0.16,0.59
15,10.289,-0.2,0.16,0.59
16,10.309,-0.2,0.16,0.59
17,10.326,-0.2,0.16,0.59
18,10.349,-0.2,0.16,0.59
19,10.364,-0.2,0.16,0.59
20,10.384,-0.2,0.16,0.59
21,10.402,-0.2,0.16,0.59
22,10.422,-0.2,0.16,0.59
23,10.442,-0.2,0.16,0.59
24,10.46,-0.2,0.16,0.59
25,10.479,-0.2,0.16,0.59
26,10.498,-0.2,0.16,0.59
27,10.517,-0.2,0.16,0.59
28,10.54,-0.2,0.16,0.59
29,10.555,-0.2,0.16,0.59
30,10.573,-0.2,0.16,0.59
31,10.594,-0.2,0.16,0.59
32,10.612,-0.2,0.16,0.59
33,10.635,-0.2,0.16,0.59
34,10.65,-0.2,0.16,0.59
35,10.67,-0.2,0.16,0.59
36,10.689,-0.2,0.16,0.59
37,10.715,-0.2,0.16,0.59
38,10.726,-0.2,0.16,0.59
39,10.745,-0.2,0.16,0.59
40,10.764,-0.2,0.16,0.59
41,10.784,-0.2,0.16,0.59
42,10.804,-0.2,0.16,0.59
43,10.822,-0.2,0.16,0.59
44,10.841,-0.2,0.16,0.59
45,10.86,-0.2,0.16,0.59
46,10.878,-0.2,0.16,0.59
47,10.898,-0.2,0.16,0.59
48,10.917,-0.2,0.16,0.59
49,10.936,-0.2,0.16,0.59
50,10.96,-0.2,0.16,0.59
51,10.975,-0.2,0.16,0.59
52,10.993,-0.2,0.16,0.59
53,11.012,-0.2,0.16,0.59
54,11.037,-0.2,0.16,0.59
55,11.054,-0.2,0.16,0.59
56,11.073,-0.2,0.16,0.59
57,11.095,-0.2,0.16,0.59
58,11.112,-0.2,0.16,0.59
59,11.133,-0.2,0.16,0.59
60,11.152,-0.2,0.16,0.59
61,11.169,-0.2,0.16,0.59
62,11.187,-0.2,0.16,0.59
63,11.206,-0.2,0.16,0.59
64,11.225,-0.2,0.16,0.59
65,11.252,-0.2,0.16,0.59
66,11.264,-0.2,0.16,0.59
67,11.283,-0.2,0.16,0.59
68,11.301,-0.2,0.16,0.59
69,11.321,-0.2,0.16,0.59
70,11.34,-0.2,0.16,0.59
71,11.358,-0.2,0.16,0.59
72,11.381,-0.2,0.16,0.59
73,11.397,-0.2,0.16,0.59
74,11.416,-0.2,0.16,0.59
75,11.434,-0.2,0.16,0.59
76,11.454,-0.2,0.16,0.59
77,11.473,-0.2,0.16,0.59
78,11.494,-0.2,0.16,0.59
79,11.512,-0.2,0.16,0.59
80,11.533,-0.2,0.16,0.59
81,11.554,-0.2,0.16,0.59
82,11.568,-0.2,0.16,0.59
83,11.588,-0.2,0.16,0.59
84,11.606,-0.2,0.16,0.59
85,11.624,-0.2,0.16,0.59
86,11.646,-0.2,0.16,0.59
87,11.663,-0.2,0.16,0.59
88,11.683,-0.2,0.16,0.59
89,11.701,-0.2,0.16,0.59
90,11.721,-0.2,0.16,0.59
91,11.739,-0.2,0.16,0.59
92,11.758,-0.2,0.16,0.59
93,11.778,-0.2,0.16,0.59
94,11.796,-0.2,0.16,0.59
95,11.817,-0.2,0.16,0.59
96,11.834,-0.2,0.16,0.59
97,11.854,-0.2,0.16,0.59
98,11.874,-0.2,0.16,0.59
99,11.891,-0.2,0.16,0.59
100,11.915,-0.2,0.16,0.59
101,11.93,-0.2,0.16,0.59
102,11.949,-0.2,0.16,0.59
103,11.968,-0.2,0.16,0.59
104,11.987,-0.2,0.16,0.59
105,12.006,-0.2,0.16,0.59
106,12.038,-0.2,0.16,0.59
107,12.042,-0.2,0.16,0.59
108,12.059,-0.2,0.16,0.59
109,12.079,-0.2,0.16,0.59
110,12.099,-0.2,0.16,0.59
111,12.118,-0.2,0.16,0.59
112,12.141,-0.2,0.16,0.59
113,12.154,-0.2,0.16,0.59
114,12.174,-0.2,0.16,0.59
115,12.192,-0.2,0.16,0.59
116,12.212,-0.2,0.16,0.59
117,12.233,-0.2,0.16,0.59
118,12.25,-0.2,0.16,0.59
119,12.269,-0.2,0.16,0.59
120,12.289,-0.2,0.16,0.59
121,12.307,-0.2,0.16,0.59
122,12.333,-0.2,0.16,0.59
123,12.35,-0.2,0.16,0.59
124,12.364,-0.2,0.16,0.59
125,12.384,-0.2,0.16,0.59
126,12.402,-0.2,0.16,0.59
127,12.422,-0.2,0.16,0.59
128,12.441,-0.2,0.16,0.59
129,12.459,-0.2,0.16,0.59
130,12.478,-0.2,0.16,0.59
131,12.497,-0.2,0.16,0.59
132,12.516,-0.2,0.16,0.59
133,12.535,-0.2,0.16,0.59
134,12.554,-0.2,0.16,0.59
135,12.574,-0.2,0.16,0.59
136,12.593,-0.2,0.16,0.59
137,12.618,-0.2,0.16,0.59
138,12.633,-0.2,0.16,0.59
139,12.65,-0.2,0.16,0.59
140,12.67,-0.2,0.16,0.59
141,12.688,-0.2,0.16,0.59
142,12.707,-0.2,0.16,0.59
143,12.726,-0.2,0.16,0.59
144,12.751,-0.2,0.16,0.59
145,12.764,-0.2,0.16,0.59
146,12.783,-0.2,0.16,0.59
147,12.802,-0.2,0.16,0.59
148,12.821,-0.2,0.16,0.59
149,12.841,-0.2,0.16,0.59
150,12.858,-0.2,0.16,0.59
151,12.878,-0.2,0.16,0.59
152,12.898,-0.2,0.16,0.59
153,12.917,-0.2,0.16,0.59
154,12.936,-0.2,0.16,0.59
155,12.954,-0.2,0.16,0.59
156,12.974,-0.2,0.16,0.59
157,12.994,-0.2,0.16,0.59
158,13.012,-0.2,0.16,0.59
159,13.04,-0.2,0.16,0.59
160,13.057,-0.2,0.16,0.59
161,13.073,-0.2,0.16,0.59
162,13.092,-0.2,0.16,0.59
163,13.112,-0.2,0.16,0.59
164,13.133,-0.2,0.16,0.59
165,13.148,-0.2,0.16,0.59
166,13.168,-0.2,0.16,0.59
167,13.186,-0.2,0.16,0.59
168,13.206,-0.2,0.16,0.59
169,13.231,-0.2,0.16,0.59
170,13.246,-0.2,0.16,0.59
171,13.263,-0.2,0.16,0.59
172,13.283,-0.2,0.16,0.59
173,13.301,-0.2,0.16,0.59
174,13.32,-0.2,0.16,0.59
175,13.339,-0.2,0.16,0.59
176,13.362,-0.2,0.16,0.59
177,13.378,-0.2,0.16,0.59
178,13.396,-0.2,0.16,0.59
179,13.415,-0.2,0.16,0.59
180,13.434,-0.2,0.16,0.59
181,13.453,-0.2,0.16,0.59
182,13.472,-0.2,0.16,0.59
183,13.492,-0.2,0.16,0.59
184,13.511,-0.2,0.16,0.59
185,13.53,-0.2,0.16,0.59
186,13.549,-0.2,0.16,0.59
187,13.576,-0.2,0.16,0.59
188,13.586,-0.2,0.16,0.59
189,13.606,-0.2,0.16,0.59
190,13.629,-0.2,0.16,0.59
191,13.644,-0.2,0.16,0.59
192,13.663,-0.2,0.16,0.59
193,13.682,-0.2,0.16,0.59
194,13.702,-0.2,0.16,0.59
195,13.721,-0.2,0.16,0.59
196,13.738,-0.2,0.16,0.59
197,13.76,-0.2,0.16,0.59
198,13.777,-0.2,0.16,0.59
199,13.796,-0.2,0.16,0.59
200,13.816,-0.2,0.16,0.59
201,13.835,-0.2,0.16,0.59
202,13.853,-0.2,0.16,0.59
203,13.873,-0.2,0.16,0.59
204,13.891,-0.2,0.16,0.59
205,13.911,-0.2,0.16,0.59
206,13.929,-0.2,0.16,0.59
207,13.948,-0.2,0.16,0.59
208,13.967,-0.2,0.16,0.59
209,13.986,-0.2,0.16,0.59
210,14.006,-0.2,0.16,0.59
211,14.037,-0.2,0.16,0.59
212,14.044,-0.2,0.16,0.59
213,14.058,-0.2,0.16,0.59
214,14.08,-0.2,0.16,0.59
215,14.098,-0.2,0.16,0.59
216,14.117,-0.2,0.16,0.59
217,14.135,-0.2,0.16,0.59
218,14.153,-0.2,0.16,0.59
219,14.173,-0.2,0.16,0.59
220,14.192,-0.2,0.16,0.59
221,14.212,-0.2,0.16,0.59
222,14.231,-0.2,0.16,0.59
223,14.25,-0.2,0.16,0.59
224,14.272,-0.2,0.16,0.59
225,14.287,-0.2,0.16,0.59
226,14.307,-0.2,0.16,0.59
227,14.326,-0.2,0.16,0.59
228,14.347,-0.2,0.16,0.59
229,14.364,-0.2,0.16,0.59
230,14.383,-0.2,0.16,0.59
231,14.402,-0.2,0.16,0.59
232,14.421,-0.2,0.16,0.59
233,14.44,-0.2,0.16,0.59
234,14.47,-0.2,0.16,0.59
235,14.478,-0.2,0.16,0.59
236,14.498,-0.2,0.16,0.59
237,14.521,-0.2,0.16,0.59
238,14.535,-0.2,0.16,0.59
239,14.554,-0.2,0.16,0.59
240,14.573,-0.2,0.16,0.59
241,14.593,-0.2,0.16,0.59
242,14.612,-0.2,0.16,0.59
243,14.631,-0.2,0.16,0.59
244,14.649,-0.2,0.16,0.59
245,14.668,-0.2,0.16,0.59
246,14.687,-0.2,0.16,0.59
247,14.707,-0.2,0.16,0.59
248,14.725,-0.2,0.16,0.59
249,14.744,-0.2,0.16,0.59
250,14.77,-0.2,0.16,0.59
251,14.791,-0.2,0.16,0.59
252,14.802,-0.2,0.16,0.59
253,14.821,-0.2,0.16,0.59
254,14.841,-0.2,0.16,0.59
255,14.87,-0.2,0.16,0.59
256,14.88,-0.2,0.16,0.59
257,14.899,-0.2,0.16,0.59
258,14.917,-0.2,0.16,0.59
259,14.934,-0.2,0.16,0.59
260,14.955,-0.2,0.16,0.59
261,14.973,-0.2,0.16,0.59
262,14.995,-0.2,0.16,0.59
263,15.012,-0.2,0.16,0.59
264,15.035,-0.2,0.16,0.59
265,15.052,-0.2,0.16,0.59
266,15.072,-0.2,0.16,0.59
267,15.091,-0.2,0.16,0.59
268,15.11,-0.2,0.16,0.59
269,15.129,-0.2,0.16,0.59
270,15.148,-0.2,0.16,0.59
271,15.167,-0.2,0.16,0.59
272,15.186,-0.2,0.16,0.59
273,15.205,-0.2,0.16,0.59
274,15.224,-0.2,0.16,0.59
275,15.247,-0.2,0.16,0.59
276,15.263,-0.2,0.16,0.59
277,15.281,-0.2,0.16,0.59
278,15.3,-0.2,0.16,0.59
279,15.32,-0.2,0.16,0.59
280,15.338,-0.2,0.16,0.59
281,15.362,-0.2,0.16,0.59
282,15.376,-0.2,0.16,0.59
283,15.396,-0.2,0.16,0.59
284,15.414,-0.2,0.16,0.59
285,15.434,-0.2,0.16,0.59
286,15.453,-0.2,0.16,0.59
287,15.476,-0.2,0.16,0.59
288,15.491,-0.2,0.16,0.59
289,15.51,-0.2,0.16,0.59
290,15.529,-0.2,0.16,0.59
291,15.548,-0.2,0.16,0.59
292,15.567,-0.2,0.16,0.59
293,15.587,-0.2,0.16,0.59
294,15.605,-0.2,0.16,0.59
295,15.624,-0.2,0.16,0.59
296,15.646,-0.2,0.16,0.59
297,15.662,-0.2,0.16,0.59
298,15.681,-0.2,0.16,0.59
299,15.701,-0.2,0.16,0.59
300,15.72,-0.2,0.16,0.59
301,15.744,-0.2,0.16,0.59
302,15.764,-0.2,0.16,0.59
303,15.777,-0.2,0.16,0.59
304,15.796,-0.2,0.16,0.59
305,15.814,-0.2,0.16,0.59
306,15.833,-0.2,0.16,0.59
307,15.852,-0.2,0.16,0.59
308,15.872,-0.2,0.16,0.59
309,15.891,-0.2,0.16,0.59
310,15.911,-0.2,0.16,0.59
311,15.929,-0.2,0.16,0.59
312,15.951,-0.2,0.16,0.59
313,15.966,-0.2,0.16,0.59
314,15.986,-0.2,0.16,0.59
315,16.006,-0.2,0.16,0.59
316,16.037,-0.2,0.16,0.59
317,16.042,-0.2,0.16,0.59
318,16.074,-0.2,0.16,0.59
319,16.077,-0.2,0.16,0.59
320,16.097,-0.2,0.16,0.59
321,16.117,-0.2,0.16,0.59
322,16.135,-0.2,0.16,0.59
323,16.155,-0.2,0.16,0.59
324,16.173,-0.2,0.16,0.59
325,16.192,-0.2,0.16,0.59
326,16.211,-0.2,0.16,0.59
327,16.231,-0.2,0.16,0.59
328,16.248,-0.2,0.16,0.59
329,16.267,-0.2,0.16,0.59
330,16.288,-0.2,0.16,0.59
331,16.308,-0.2,0.16,0.59
332,16.325,-0.2,0.16,0.59
333,16.345,-0.2,0.16,0.59
334,16.371,-0.2,0.16,0.59
335,16.395,-0.2,0.16,0.59
336,16.402,-0.2,0.16,0.59
337,16.426,-0.2,0.16,0.59
338,16.442,-0.2,0.16,0.59
339,16.46,-0.2,0.16,0.59
340,16.478,-0.2,0.16,0.59
341,16.496,-0.2,0.16,0.59
342,16.516,-0.2,0.16,0.59
343,16.535,-0.2,0.16,0.59
344,16.554,-0.2,0.16,0.59
345,16.584,-0.2,0.16,0.59
346,16.594,-0.2,0.16,0.59
347,16.612,-0.2,0.16,0.59
348,16.631,-0.2,0.16,0.59
349,16.649,-0.2,0.16,0.59
350,16.668,-0.2,0.16,0.59
351,16.688,-0.2,0.16,0.59
352,16.707,-0.2,0.16,0.59
353,16.725,-0.2,0.16,0.59
354,16.745,-0.2,0.16,0.59
355,16.766,-0.2,0.16,0.59
356,16.781,-0.2,0.16,0.59
357,16.802,-0.2,0.16,0.59
358,16.821,-0.2,0.16,0.59
359,16.847,-0.2,0.16,0.59
360,16.86,-0.2,0.16,0.59
361,16.877,-0.2,0.16,0.59
362,16.902,-0.2,0.16,0.59
363,16.916,-0.2,0.16,0.59
364,16.935,-0.2,0.16,0.59
365,16.953,-0.2,0.16,0.59
366,16.974,-0.2,0.16,0.59
367,16.992,-0.2,0.16,0.59
368,17.011,-0.2,0.16,0.59
369,17.036,-0.2,0.16,0.59
370,17.053,-0.2,0.16,0.59
371,17.077,-0.2,0.16,0.59
372,17.091,-0.2,0.16,0.59
373,17.11,-0.2,0.16,0.59
374,17.128,-0.2,0.16,0.59
375,17.148,-0.2,0.16,0.59
376,17.167,-0.2,0.16,0.59
377,17.186,-0.2,0.16,0.59
378,17.205,-0.2,0.16,0.59
379,17.224,-0.2,0.16,0.59
380,17.243,-0.2,0.16,0.59
381,17.263,-0.2,0.16,0.59
382,17.288,-0.2,0.16,0.59
383,17.3,-0.2,0.16,0.59
384,17.319,-0.2,0.16,0.59
385,17.338,-0.2,0.16,0.59
386,17.357,-0.2,0.16,0.59
387,17.376,-0.2,0.16,0.59
388,17.396,-0.2,0.16,0.59
389,17.414,-0.2,0.16,0.59
390,17.433,-0.2,0.16,0.59
391,17.453,-0.2,0.16,0.59
392,17.483,-0.2,0.16,0.59
393,17.493,-0.2,0.16,0.59
394,17.509,-0.2,0.16,0.59
395,17.529,-0.2,0.16,0.59
396,17.547,-0.2,0.16,0.59
397,17.567,-0.2,0.16,0.59
398,17.586,-0.2,0.16,0.59
399,17.606,-0.2,0.16,0.59
400,17.624,-0.2,0.16,0.59
401,17.643,-0.2,0.16,0.59
402,17.669,-0.2,0.16,0.59
403,17.682,-0.2,0.16,0.59
404,17.7,-0.2,0.16,0.59
405,17.719,-0.2,0.16,0.59
406,17.738,-0.2,0.16,0.59
407,17.757,-0.2,0.16,0.59
408,17.777,-0.2,0.16,0.59
409,17.796,-0.2,0.16,0.59
410,17.815,-0.2,0.16,0.59
411,17.833,-0.2,0.16,0.59
412,17.852,-0.2,0.16,0.59
413,17.876,-0.2,0.16,0.59
414,17.89,-0.2,0.16,0.59
415,17.909,-0.2,0.16,0.59
416,17.928,-0.2,0.16,0.59
417,17.947,-0.2,0.16,0.59
418,17.966,-0.2,0.16,0.59
419,17.986,-0.2,0.16,0.59
420,18.004,-0.2,0.16,0.59
421,18.036,-0.2,0.16,0.59
422,18.041,-0.2,0.16,0.59
423,18.073,-0.2,0.16,0.59
424,18.077,-0.2,0.16,0.59
425,18.096,-0.2,0.16,0.59
426,18.115,-0.2,0.16,0.59
427,18.135,-0.2,0.16,0.59
428,18.153,-0.2,0.16,0.59
429,18.182,-0.2,0.16,0.59
430,18.192,-0.2,0.16,0.59
431,18.212,-0.2,0.16,0.59
432,18.23,-0.2,0.16,0.59
433,18.249,-0.2,0.16,0.59
434,18.268,-0.2,0.16,0.59
435,18.287,-0.2,0.16,0.59
436,18.306,-0.2,0.16,0.59
437,18.332,-0.2,0.16,0.59
438,18.344,-0.2,0.16,0.59
439,18.363,-0.2,0.16,0.59
440,18.385,-0.2,0.16,0.59
441,18.401,-0.2,0.16,0.59
442,18.42,-0.2,0.16,0.59
443,18.439,-0.2,0.16,0.59
444,18.458,-0.2,0.16,0.59
445,18.485,-0.2,0.16,0.59
446,18.505,-0.2,0.16,0.59
447,18.515,-0.2,0.16,0.59
448,18.534,-0.2,0.16,0.59
449,18.553,-0.2,0.16,0.59
450,18.572,-0.2,0.16,0.59
451,18.592,-0.2,0.16,0.59
452,18.611,-0.2,0.16,0.59
453,18.629,-0.2,0.16,0.59
454,18.649,-0.2,0.16,0.59
455,18.669,-0.2,0.16,0.59
456,18.689,-0.2,0.16,0.59
457,18.707,-0.2,0.16,0.59
458,18.726,-0.2,0.16,0.59
459,18.745,-0.2,0.16,0.59
460,18.764,-0.2,0.16,0.59
461,18.782,-0.2,0.16,0.59
462,18.806,-0.2,0.16,0.59
463,18.82,-0.2,0.16,0.59
464,18.838,-0.2,0.16,0.59
465,18.858,-0.2,0.16,0.59
466,18.879,-0.2,0.16,0.59
467,18.898,-0.2,0.16,0.59
468,18.916,-0.2,0.16,0.59
469,18.935,-0.2,0.16,0.59
470,18.952,-0.2,0.16,0.59
471,18.975,-0.2,0.16,0.59
472,18.992,-0.2,0.16,0.59
473,19.011,-0.2,0.16,0.59
474,19.036,-0.2,0.16,0.59
475,19.052,-0.2,0.16,0.59
476,19.073,-0.2,0.16,0.59
477,19.09,-0.2,0.16,0.59
478,19.11,-0.2,0.16,0.59
479,19.129,-0.2,0.16,0.59
480,19.148,-0.2,0.16,0.59
481,19.167,-0.2,0.16,0.59
482,19.185,-0.2,0.16,0.59
483,19.204,-0.2,0.16,0.59
484,19.224,-0.2,0.16,0.59
485,19.242,-0.2,0.16,0.59
486,19.261,-0.2,0.16,0.59
487,19.285,-0.2,0.16,0.59
488,19.3,-0.2,0.16,0.59
489,19.32,-0.2,0.16,0.59
490,19.338,-0.2,0.16,0.59
491,19.356,-0.2,0.16,0.59
492,19.377,-0.2,0.16,0.59
493,19.395,-0.2,0.16,0.59
494,19.414,-0.2,0.16,0.59
495,19.433,-0.2,0.16,0.59
496,19.457,-0.2,0.16,0.59
497,19.479,-0.2,0.16,0.59
498,19.49,-0.2,0.16,0.59
499,19.509,-0.2,0.16,0.59
