,time,ax,ay,az
0,10.005,0.01,0.11,-0.02
1,10.024,0.01,0.11,-0.02
2,10.046,0.01,0.11,-0.02
3,10.064,0.01,0.11,-0.02
4,10.082,0.02,0.11,-0.02
5,10.101,0.02,0.11,-0.02
6,10.12,0.02,0.11,-0.02
7,10.14,0.02,0.11,-0.02
8,10.158,0.02,0.11,-0.02
9,10.189,0.02,0.11,-0.02
10,10.198,0.02,0.11,-0.02
11,10.215,0.02,0.11,-0.02
12,10.235,0.02,0.11,-0.02
13,10.253,0.02,0.11,-0.02
14,10.272,0.02,0.11,-0.02
15,10.291,0.04,0.11,0.05
16,10.31,-0.02,0.05,-0.01
17,10.329,-0.02,0.05,-0.01
18,10.348,-0.02,0.05,-0.01
19,10.368,-0.06,0.06,-0.04
20,10.389,0.01,0.09,-0.14
21,10.405,0.03,0.1,-0.13
22,10.431,0.06,0.09,-0.08
23,10.443,0.02,0.1,-0.08
24,10.462,0.01,0.12,-0.09
25,10.482,-0.02,0.14,-0.04
26,10.5,-0.11,0.14,0.01
27,10.52,-0.27,0.17,0.06
28,10.54,-0.17,0.15,0.02
29,10.558,-0.05,0.1,-0.04
30,10.582,0.02,0.12,0.01
31,10.596,0.02,0.12,0.01
32,10.615,0.19,0.14,0.07
33,10.634,0.32,0.1,-0.05
34,10.652,0.4,0.07,-0.31
35,10.672,0.43,0.06,-0.48
36,10.691,0.41,0.01,-0.38
37,10.71,0.26,0.03,-0.16
38,10.729,0.09,0.09,-0.08
39,10.748,0.07,0.14,-0.17
40,10.767,0.1,0.14,-0.23
41,10.787,0.03,0.08,-0.16
42,10.806,-0.06,0.08,-0.02
43,10.824,-0.07,0.04,0.09
44,10.843,-0.01,0.02,0.06
45,10.862,0.12,0.1,-0.03
46,10.883,0.32,0.15,-0.1
47,10.902,0.4,0.16,-0.14
48,10.92,0.24,0.12,-0.08
49,10.94,0.11,0.11,-0.0
50,10.958,0.11,0.12,-0.03
51,10.982,0.09,0.14,-0.07
52,10.996,0.0,0.15,-0.03
53,11.014,-0.05,0.18,0.01
54,11.033,-0.06,0.24,0.1
55,11.052,-0.04,0.26,0.18
56,11.072,-0.06,0.26,0.14
57,11.1,-0.07,0.24,0.13
58,11.11,-0.16,0.21,0.07
59,11.129,-0.16,0.09,0.04
60,11.148,-0.1,0.1,0.04
61,11.168,-0.04,0.13,0.02
62,11.19,-0.01,0.1,-0.01
63,11.205,0.0,0.04,-0.0
64,11.226,0.01,0.04,-0.01
65,11.243,0.02,0.04,-0.01
66,11.264,0.02,0.04,-0.02
67,11.282,0.03,0.04,-0.02
68,11.301,0.03,0.04,-0.02
69,11.319,0.03,0.04,-0.02
70,11.339,0.03,0.04,-0.03
71,11.357,0.03,0.04,-0.03
72,11.385,0.03,0.04,-0.03
73,11.396,0.03,0.04,-0.02
74,11.427,0.03,0.04,-0.02
75,11.439,0.03,0.04,-0.02
76,11.452,0.03,0.04,-0.02
77,11.472,0.02,0.04,-0.02
78,11.492,0.02,0.04,-0.02
79,11.51,0.02,0.04,-0.01
80,11.529,0.02,0.04,-0.01
81,11.548,0.01,0.04,-0.01
82,11.567,0.01,0.04,-0.01
83,11.586,0.01,0.04,-0.01
84,11.605,0.01,0.04,-0.01
85,11.624,0.01,0.04,-0.01
86,11.642,0.01,0.04,-0.01
87,11.663,0.01,0.04,-0.01
88,11.682,0.01,0.04,-0.01
89,11.7,0.01,0.04,-0.01
90,11.719,0.01,0.04,-0.01
91,11.738,0.01,0.04,-0.01
92,11.764,0.01,0.04,-0.01
93,11.783,0.01,0.04,-0.01
94,11.795,0.01,0.04,-0.01
95,11.815,0.01,0.04,-0.01
96,11.833,-0.17,-0.01,-0.11
97,11.852,0.05,0.1,-0.03
98,11.873,0.14,0.14,-0.0
99,11.892,0.18,0.24,0.13
100,11.909,0.03,0.34,0.27
101,11.928,-0.0,0.26,0.18
102,11.948,0.06,0.22,0.05
103,11.967,0.05,0.18,0.09
104,11.985,-0.02,0.1,0.14
105,12.005,-0.13,0.11,0.05
106,12.024,-0.14,0.17,-0.05
107,12.042,-0.01,0.13,-0.14
108,12.062,0.08,0.09,-0.24
109,12.082,0.13,0.11,-0.24
110,12.111,0.12,0.13,-0.12
111,12.119,0.04,0.16,-0.04
112,12.138,0.0,0.15,-0.04
113,12.164,0.03,0.11,-0.1
114,12.19,0.01,0.13,-0.12
115,12.194,0.03,0.18,-0.07
116,12.215,0.05,0.16,-0.03
117,12.233,-0.05,0.08,0.01
118,12.252,-0.06,0.07,-0.01
119,12.271,0.04,0.1,-0.02
120,12.293,0.04,0.1,-0.02
121,12.309,0.04,0.1,-0.01
122,12.329,0.04,0.1,-0.01
123,12.347,0.04,0.1,-0.01
124,12.366,0.03,0.1,-0.01
125,12.385,0.03,0.1,-0.01
126,12.404,0.03,0.1,-0.01
127,12.43,0.03,0.1,-0.0
128,12.442,0.03,0.1,-0.0
129,12.462,0.03,0.1,-0.0
130,12.482,0.03,0.1,-0.0
131,12.5,0.21,0.16,-0.07
132,12.519,0.12,0.18,-0.1
133,12.538,0.05,0.15,-0.1
134,12.563,-0.03,0.07,-0.13
135,12.583,-0.06,0.04,-0.11
136,12.595,-0.03,0.04,-0.09
137,12.614,0.0,0.05,-0.11
138,12.633,0.02,0.06,-0.08
139,12.652,-0.03,0.07,-0.03
140,12.673,-0.08,0.04,-0.13
141,12.691,-0.08,0.02,-0.2
142,12.708,0.05,0.06,-0.14
143,12.727,0.1,0.14,-0.09
144,12.747,0.04,0.2,-0.13
145,12.766,0.04,0.21,-0.14
146,12.785,0.03,0.21,-0.13
147,12.804,0.03,0.21,-0.13
148,12.824,0.03,0.21,-0.12
149,12.842,0.03,0.21,-0.11
150,12.862,0.03,0.21,-0.1
151,12.882,0.03,0.21,-0.09
152,12.899,0.03,0.21,-0.08
153,12.919,0.03,0.22,-0.08
154,12.939,0.03,0.22,-0.07
155,12.964,0.03,0.22,-0.06
156,12.977,0.03,0.22,-0.05
157,12.995,0.03,0.22,-0.05
158,13.014,0.03,0.22,-0.04
159,13.032,0.03,0.22,-0.04
160,13.052,0.03,0.22,-0.04
161,13.071,0.03,0.22,-0.04
162,13.093,0.03,0.22,-0.03
163,13.109,0.03,0.22,-0.03
164,13.128,0.03,0.22,-0.03
165,13.148,0.03,0.22,-0.03
166,13.166,0.03,0.22,-0.03
167,13.184,0.03,0.22,-0.03
168,13.204,0.03,0.22,-0.03
169,13.224,0.03,0.22,-0.03
170,13.242,0.03,0.22,-0.03
171,13.261,0.03,0.22,-0.03
172,13.282,0.03,0.22,-0.03
173,13.301,0.03,0.22,-0.03
174,13.319,0.03,0.22,-0.03
175,13.338,0.03,0.22,-0.03
176,13.357,0.03,0.22,-0.03
177,13.375,0.03,0.22,-0.03
178,13.397,0.03,0.22,-0.03
179,13.426,0.03,0.22,-0.03
180,13.432,0.03,0.22,-0.03
181,13.452,0.03,0.22,-0.03
182,13.471,0.03,0.22,-0.03
183,13.5,0.03,0.22,-0.03
184,13.509,0.03,0.22,-0.03
185,13.528,0.03,0.22,-0.03
186,13.547,0.03,0.22,-0.03
187,13.566,0.03,0.22,-0.03
188,13.585,0.03,0.22,-0.03
189,13.604,0.03,0.22,-0.03
190,13.627,0.03,0.22,-0.03
191,13.642,0.03,0.22,-0.03
192,13.662,0.03,0.22,-0.03
193,13.681,0.03,0.22,-0.03
194,13.707,-0.09,0.11,-0.2
195,13.718,-0.0,0.21,0.15
196,13.738,0.07,0.26,0.28
197,13.756,0.07,0.28,0.22
198,13.775,0.07,0.23,0.11
199,13.796,0.1,0.13,0.05
200,13.813,0.1,0.06,0.05
201,13.833,0.06,0.03,-0.0
202,13.853,0.03,0.06,-0.13
203,13.87,0.03,0.08,-0.16
204,13.902,-0.01,0.12,-0.21
205,13.912,0.07,0.14,-0.19
206,13.928,0.16,0.13,-0.08
207,13.947,0.13,0.13,-0.01
208,13.965,0.05,0.11,-0.05
209,13.985,-0.03,0.12,-0.13
210,14.004,-0.08,0.16,-0.14
211,14.023,-0.03,0.15,-0.15
212,14.042,-0.01,0.19,-0.08
213,14.063,-0.03,0.18,0.0
214,14.08,-0.0,0.13,0.07
215,14.099,-0.0,0.13,0.07
216,14.118,-0.0,0.13,0.08
217,14.137,-0.0,0.13,0.08
218,14.156,-0.0,0.14,0.09
219,14.176,-0.0,0.14,0.09
220,14.195,-0.0,0.14,0.09
221,14.219,-0.0,0.13,0.08
222,14.232,-0.0,0.13,0.08
223,14.252,0.0,0.13,0.07
224,14.27,0.0,0.13,0.07
225,14.305,0.01,0.13,0.07
226,14.308,0.01,0.13,0.06
227,14.327,0.01,0.13,0.05
228,14.347,0.02,0.13,0.05
229,14.365,0.02,0.13,0.04
230,14.384,0.02,0.12,0.03
231,14.405,0.02,0.12,0.02
232,14.428,0.02,0.12,0.01
233,14.442,0.02,0.12,-0.0
234,14.461,0.02,0.12,-0.0
235,14.48,0.02,0.12,-0.01
236,14.5,0.02,0.12,-0.01
237,14.518,0.02,0.12,-0.02
238,14.537,0.02,0.12,-0.02
239,14.556,0.02,0.12,-0.02
240,14.576,0.02,0.12,-0.02
241,14.596,0.02,0.12,-0.02
242,14.625,0.02,0.12,-0.02
243,14.632,0.02,0.12,-0.02
244,14.653,0.02,0.12,-0.02
245,14.671,0.02,0.12,-0.02
246,14.696,0.02,0.12,-0.02
247,14.708,0.02,0.12,-0.02
248,14.728,0.02,0.12,-0.02
249,14.747,0.02,0.12,-0.02
250,14.765,0.02,0.12,-0.02
251,14.784,0.02,0.12,-0.02
252,14.803,0.02,0.12,-0.02
253,14.826,0.02,0.12,-0.02
254,14.843,0.02,0.12,-0.02
255,14.861,0.02,0.12,-0.02
256,14.879,0.02,0.12,-0.02
257,14.903,0.02,0.12,-0.02
258,14.918,0.02,0.12,-0.02
259,14.938,0.02,0.12,-0.02
260,14.956,0.02,0.12,-0.02
261,14.975,0.02,0.12,-0.02
262,14.994,0.02,0.12,-0.02
263,15.013,0.02,0.12,-0.02
264,15.032,0.02,0.12,-0.02
265,15.052,0.02,0.12,-0.02
266,15.07,0.02,0.12,-0.02
267,15.107,0.02,0.12,-0.02
268,15.11,0.02,0.12,-0.02
269,15.128,0.02,0.12,-0.02
270,15.146,0.02,0.12,-0.02
271,15.165,0.02,0.12,-0.02
272,15.184,0.02,0.12,-0.02
273,15.204,0.02,0.12,-0.02
274,15.223,0.02,0.12,-0.02
275,15.243,0.02,0.12,-0.02
276,15.26,0.02,0.12,-0.02
277,15.279,0.02,0.12,-0.02
278,15.301,0.02,0.12,-0.02
279,15.317,0.02,0.12,-0.02
280,15.337,0.02,0.12,-0.02
281,15.356,0.02,0.12,-0.02
282,15.376,0.02,0.12,-0.02
283,15.404,0.02,0.12,-0.02
284,15.426,0.02,0.12,-0.02
285,15.433,0.02,0.12,-0.02
286,15.452,0.02,0.12,-0.02
287,15.471,0.02,0.12,-0.02
288,15.496,0.02,0.12,-0.02
289,15.508,0.02,0.12,-0.02
290,15.528,0.02,0.12,-0.02
291,15.545,0.02,0.12,-0.02
292,15.565,0.02,0.12,-0.02
293,15.585,0.02,0.12,-0.02
294,15.603,0.02,0.12,-0.02
295,15.627,0.02,0.12,-0.02
296,15.641,0.02,0.12,-0.02
297,15.66,0.02,0.12,-0.02
298,15.679,0.02,0.12,-0.02
299,15.699,0.02,0.12,-0.02
300,15.717,-0.01,0.13,0.03
301,15.736,0.01,0.1,-0.06
302,15.755,0.05,0.08,-0.1
303,15.775,0.07,0.09,-0.06
304,15.799,0.09,0.12,-0.05
305,15.818,0.11,0.11,-0.11
306,15.832,0.07,0.09,-0.1
307,15.851,0.07,0.09,-0.1
308,15.869,0.07,0.09,-0.1
309,15.902,0.07,0.09,-0.09
310,15.908,0.07,0.1,-0.09
311,15.927,0.07,0.1,-0.09
312,15.948,0.06,0.1,-0.08
313,15.965,0.06,0.1,-0.08
314,15.984,0.06,0.1,-0.07
315,16.009,0.05,0.1,-0.06
316,16.022,0.05,0.1,-0.06
317,16.042,0.05,0.1,-0.05
318,16.06,0.04,0.11,-0.05
319,16.079,0.04,0.11,-0.05
320,16.104,0.04,0.11,-0.04
321,16.118,0.03,0.11,-0.04
322,16.136,0.03,0.11,-0.03
323,16.156,0.02,0.11,-0.02
324,16.175,0.02,0.11,-0.02
325,16.194,0.02,0.11,-0.02
326,16.215,0.02,0.11,-0.02
327,16.231,0.02,0.11,-0.01
328,16.251,0.02,0.11,-0.01
329,16.269,0.02,0.11,-0.01
330,16.293,0.02,0.11,-0.01
331,16.31,0.02,0.11,-0.01
332,16.328,0.02,0.11,-0.01
333,16.347,0.02,0.11,-0.01
334,16.365,0.02,0.11,-0.01
335,16.384,0.02,0.11,-0.01
336,16.402,0.02,0.11,-0.01
337,16.431,0.02,0.11,-0.01
338,16.441,0.02,0.11,-0.01
339,16.46,0.02,0.11,-0.01
340,16.48,0.02,0.11,-0.01
341,16.498,0.02,0.11,-0.01
342,16.517,0.02,0.11,-0.01
343,16.536,0.02,0.11,-0.01
344,16.555,0.02,0.11,-0.01
345,16.575,0.02,0.11,-0.01
346,16.593,0.02,0.11,-0.01
347,16.613,0.02,0.11,-0.01
348,16.631,0.02,0.11,-0.01
349,16.65,0.02,0.11,-0.01
350,16.671,0.02,0.11,-0.01
351,16.692,0.02,0.11,-0.01
352,16.711,0.02,0.11,-0.01
353,16.727,0.02,0.11,-0.01
354,16.746,0.02,0.11,-0.01
355,16.765,0.02,0.11,-0.01
356,16.783,0.02,0.11,-0.01
357,16.819,0.02,0.11,-0.01
358,16.822,0.02,0.11,-0.01
359,16.841,0.02,0.11,-0.01
360,16.86,0.02,0.11,-0.01
361,16.879,0.02,0.11,-0.01
362,16.898,0.02,0.11,-0.01
363,16.917,0.02,0.11,-0.01
364,16.936,0.02,0.11,-0.01
365,16.956,0.02,0.11,-0.01
366,16.975,0.02,0.11,-0.01
367,16.993,0.02,0.11,-0.01
368,17.021,0.02,0.11,-0.01
369,17.031,0.02,0.11,-0.01
370,17.051,0.02,0.11,-0.01
371,17.071,0.02,0.11,-0.01
372,17.089,0.02,0.11,-0.01
373,17.11,0.02,0.11,-0.01
374,17.129,0.02,0.11,-0.01
375,17.145,0.02,0.11,-0.01
376,17.164,0.02,0.11,-0.01
377,17.183,0.02,0.11,-0.01
378,17.213,0.02,0.11,-0.01
379,17.224,0.02,0.11,-0.01
380,17.241,0.02,0.11,-0.01
381,17.261,0.02,0.11,-0.01
382,17.279,0.02,0.11,-0.01
383,17.297,0.02,0.11,-0.01
384,17.318,0.02,0.11,-0.01
385,17.34,0.02,0.11,-0.01
386,17.355,0.02,0.11,-0.01
387,17.376,0.02,0.11,-0.01
388,17.392,0.02,0.11,-0.01
389,17.424,0.02,0.11,-0.01
390,17.431,0.02,0.11,-0.01
391,17.45,0.02,0.11,-0.01
392,17.469,0.02,0.11,-0.01
393,17.488,0.02,0.11,-0.01
394,17.51,0.02,0.11,-0.01
395,17.527,0.02,0.11,-0.01
396,17.545,0.02,0.11,-0.01
397,17.564,0.02,0.11,-0.01
398,17.584,0.02,0.11,-0.01
399,17.612,0.02,0.11,-0.01
400,17.623,0.02,0.11,-0.01
401,17.64,0.02,0.11,-0.01
402,17.661,0.02,0.11,-0.01
403,17.679,0.02,0.11,-0.01
404,17.698,0.02,0.11,-0.01
405,17.716,0.02,0.11,-0.01
406,17.737,0.02,0.11,-0.01
407,17.754,0.02,0.11,-0.01
408,17.775,0.02,0.11,-0.01
409,17.797,0.02,0.11,-0.01
410,17.826,0.02,0.11,-0.01
411,17.831,0.02,0.11,-0.01
412,17.85,0.02,0.11,-0.01
413,17.869,0.02,0.11,-0.01
414,17.887,0.02,0.11,-0.01
415,17.908,0.02,0.11,-0.01
416,17.927,0.02,0.11,-0.01
417,17.946,0.02,0.11,-0.01
418,17.964,0.02,0.11,-0.01
419,17.983,0.02,0.11,-0.01
420,18.01,0.02,0.11,-0.01
421,18.021,0.02,0.11,-0.01
422,18.04,0.02,0.11,-0.01
423,18.059,0.02,0.11,-0.01
424,18.079,0.02,0.11,-0.01
425,18.097,0.02,0.11,-0.01
426,18.117,0.02,0.11,-0.01
427,18.135,0.02,0.11,-0.01
428,18.155,0.02,0.11,-0.01
429,18.174,0.02,0.11,-0.01
430,18.193,0.02,0.11,-0.01
431,18.212,0.02,0.11,-0.01
432,18.231,0.02,0.11,-0.01
433,18.251,0.02,0.11,-0.01
434,18.269,0.02,0.11,-0.01
435,18.288,0.02,0.11,-0.01
436,18.314,0.02,0.11,-0.01
437,18.331,0.02,0.11,-0.01
438,18.345,0.02,0.11,-0.01
439,18.364,0.02,0.11,-0.01
440,18.383,0.02,0.11,-0.01
441,18.413,0.02,0.11,-0.01
442,18.426,0.02,0.11,-0.01
443,18.441,0.02,0.11,-0.01
444,18.46,0.02,0.11,-0.01
445,18.478,0.02,0.11,-0.01
446,18.497,0.02,0.11,-0.01
447,18.517,0.02,0.11,-0.01
448,18.542,0.02,0.11,-0.01
449,18.555,0.02,0.11,-0.01
450,18.574,0.02,0.11,-0.01
451,18.593,0.02,0.11,-0.01
452,18.612,0.02,0.11,-0.01
453,18.631,0.02,0.11,-0.01
454,18.65,0.02,0.11,-0.01
455,18.669,0.02,0.11,-0.01
456,18.688,0.02,0.11,-0.01
457,18.708,0.02,0.11,-0.01
458,18.733,0.02,0.11,-0.01
459,18.745,0.02,0.11,-0.01
460,18.764,0.02,0.11,-0.01
461,18.783,0.02,0.11,-0.01
462,18.812,0.02,0.11,-0.01
463,18.822,0.02,0.11,-0.01
464,18.84,0.02,0.11,-0.01
465,18.86,0.02,0.11,-0.01
466,18.878,0.02,0.11,-0.01
467,18.898,0.02,0.11,-0.01
468,18.916,0.02,0.11,-0.01
469,18.939,0.02,0.11,-0.01
470,18.955,0.02,0.11,-0.01
471,18.973,0.02,0.11,-0.01
472,18.993,0.02,0.11,-0.01
473,19.018,0.02,0.11,-0.01
474,19.03,0.02,0.11,-0.01
475,19.049,0.02,0.11,-0.01
476,19.068,0.02,0.11,-0.01
477,19.087,0.02,0.11,-0.01
478,19.108,0.02,0.11,-0.01
479,19.129,0.02,0.11,-0.01
480,19.144,0.02,0.11,-0.01
481,19.164,0.02,0.11,-0.01
482,19.184,0.02,0.11,-0.01
483,19.214,0.02,0.11,-0.01
484,19.227,0.02,0.11,-0.01
485,19.24,0.02,0.11,-0.01
486,19.259,0.02,0.11,-0.01
487,19.278,0.02,0.11,-0.01
488,19.298,0.02,0.11,-0.01
489,19.316,0.02,0.11,-0.01
490,19.337,0.02,0.11,-0.01
491,19.354,0.02,0.11,-0.01
492,19.373,0.02,0.11,-0.01
493,19.393,0.02,0.11,-0.01
494,19.413,0.27,0.08,-0.12
495,19.435,0.19,0.02,-0.05
496,19.45,0.04,0.06,-0.12
497,19.468,0.04,0.06,-0.12
498,19.488,0.04,0.06,-0.12
499,19.514,0.04,0.06,-0.12
