,time,ax,ay,az
0,10.009,-0.26,0.09,0.42
1,10.027,-0.25,0.09,0.43
2,10.046,-0.25,0.08,0.43
3,10.065,-0.24,0.08,0.44
4,10.084,-0.23,0.08,0.44
5,10.103,-0.22,0.08,0.44
6,10.122,-0.22,0.08,0.45
7,10.143,-0.21,0.07,0.45
8,10.16,-0.21,0.07,0.45
9,10.179,-0.21,0.07,0.45
10,10.199,-0.22,0.06,0.45
11,10.217,-0.22,0.06,0.45
12,10.236,-0.22,0.06,0.45
13,10.255,-0.22,0.05,0.45
14,10.275,-0.22,0.05,0.45
15,10.297,-0.22,0.05,0.45
16,10.317,-0.22,0.05,0.45
17,10.333,-0.22,0.05,0.45
18,10.351,-0.22,0.05,0.45
19,10.37,-0.22,0.05,0.45
20,10.389,-0.22,0.05,0.45
21,10.413,-0.22,0.05,0.45
22,10.428,-0.22,0.05,0.45
23,10.446,-0.22,0.05,0.45
24,10.466,-0.22,0.05,0.45
25,10.484,-0.22,0.05,0.45
26,10.503,-0.22,0.05,0.45
27,10.522,-0.22,0.05,0.45
28,10.541,-0.22,0.05,0.45
29,10.561,-0.22,0.05,0.45
30,10.58,-0.22,0.05,0.45
31,10.598,-0.22,0.05,0.45
32,10.618,-0.22,0.05,0.45
33,10.642,-0.22,0.05,0.45
34,10.655,-0.22,0.05,0.45
35,10.674,-0.22,0.05,0.45
36,10.699,-0.22,0.05,0.45
37,10.712,-0.22,0.05,0.45
38,10.732,-0.22,0.05,0.45
39,10.75,-0.22,0.05,0.45
40,10.769,-0.22,0.05,0.45
41,10.789,-0.22,0.05,0.45
42,10.808,-0.22,0.05,0.45
43,10.838,-0.22,0.05,0.45
44,10.848,-0.22,0.05,0.45
45,10.865,-0.22,0.05,0.45
46,10.884,-0.22,0.05,0.45
47,10.902,-0.22,0.05,0.45
48,10.922,-0.22,0.05,0.45
49,10.941,-0.22,0.05,0.45
50,10.961,-0.22,0.05,0.45
51,10.979,-0.22,0.05,0.45
52,10.998,-0.22,0.05,0.45
53,11.019,-0.22,0.05,0.45
54,11.049,-0.22,0.05,0.45
55,11.055,-0.22,0.05,0.45
56,11.073,-0.22,0.05,0.45
57,11.1,-0.22,0.05,0.45
58,11.117,-0.22,0.05,0.45
59,11.132,-0.22,0.05,0.45
60,11.15,-0.22,0.05,0.45
61,11.169,-0.22,0.05,0.45
62,11.188,-0.22,0.05,0.45
63,11.208,-0.22,0.05,0.45
64,11.23,-0.22,0.05,0.45
65,11.245,-0.22,0.05,0.45
66,11.265,-0.22,0.05,0.45
67,11.283,-0.22,0.05,0.45
68,11.302,-0.22,0.05,0.45
69,11.322,-0.22,0.05,0.45
70,11.341,-0.22,0.05,0.45
71,11.359,-0.22,0.05,0.45
72,11.379,-0.22,0.05,0.45
73,11.417,-0.22,0.05,0.45
74,11.429,-0.22,0.05,0.45
75,11.436,-0.22,0.05,0.45
76,11.455,-0.22,0.05,0.45
77,11.474,-0.22,0.05,0.45
78,11.492,-0.22,0.05,0.45
79,11.514,-0.22,0.05,0.45
80,11.53,-0.22,0.05,0.45
81,11.55,-0.22,0.05,0.45
82,11.569,-0.22,0.05,0.45
83,11.588,-0.22,0.05,0.45
84,11.607,-0.22,0.05,0.45
85,11.635,-0.22,0.05,0.45
86,11.645,-0.22,0.05,0.45
87,11.663,-0.22,0.05,0.45
88,11.683,-0.22,0.05,0.45
89,11.702,-0.22,0.05,0.45
90,11.722,-0.22,0.05,0.45
91,11.741,-0.22,0.05,0.45
92,11.761,-0.22,0.05,0.45
93,11.778,-0.22,0.05,0.45
94,11.797,-0.22,0.05,0.45
95,11.817,-0.22,0.05,0.45
96,11.84,-0.22,0.05,0.45
97,11.854,-0.22,0.05,0.45
98,11.874,-0.22,0.05,0.45
99,11.893,-0.22,0.05,0.45
100,11.912,-0.22,0.05,0.45
101,11.934,-0.22,0.05,0.45
102,11.952,-0.22,0.05,0.45
103,11.969,-0.22,0.05,0.45
104,11.987,-0.22,0.05,0.45
105,12.007,-0.22,0.05,0.45
106,12.041,-0.22,0.05,0.45
107,12.044,-0.22,0.05,0.45
108,12.063,-0.22,0.05,0.45
109,12.083,-0.22,0.05,0.45
110,12.102,-0.22,0.05,0.45
111,12.122,-0.22,0.05,0.45
112,12.141,-0.22,0.05,0.45
113,12.16,-0.22,0.05,0.45
114,12.178,-0.22,0.05,0.45
115,12.197,-0.22,0.05,0.45
116,12.217,-0.22,0.05,0.45
117,12.245,-0.22,0.05,0.45
118,12.254,-0.22,0.05,0.45
119,12.273,-0.22,0.05,0.45
120,12.294,-0.22,0.05,0.45
121,12.311,-0.22,0.05,0.45
122,12.333,-0.22,0.05,0.45
123,12.358,-0.22,0.05,0.45
124,12.369,-0.22,0.05,0.45
125,12.387,-0.22,0.05,0.45
126,12.417,-0.22,0.05,0.45
127,12.439,-0.22,0.05,0.45
128,12.449,-0.22,0.05,0.45
129,12.464,-0.22,0.05,0.45
130,12.482,-0.22,0.05,0.45
131,12.502,-0.22,0.05,0.45
132,12.521,-0.22,0.05,0.45
133,12.539,-0.22,0.05,0.45
134,12.56,-0.22,0.05,0.45
135,12.578,-0.22,0.05,0.45
136,12.597,-0.22,0.05,0.45
137,12.618,-0.22,0.05,0.45
138,12.634,-0.22,0.05,0.45
139,12.654,-0.22,0.05,0.45
140,12.673,-0.22,0.05,0.45
141,12.692,-0.22,0.05,0.45
142,12.711,-0.22,0.05,0.45
143,12.732,-0.22,0.05,0.45
144,12.759,-0.22,0.05,0.45
145,12.768,-0.22,0.05,0.45
146,12.787,-0.22,0.05,0.45
147,12.806,-0.22,0.05,0.45
148,12.84,-0.22,0.05,0.45
149,12.846,-0.22,0.05,0.45
150,12.863,-0.22,0.05,0.45
151,12.883,-0.22,0.05,0.45
152,12.902,-0.22,0.05,0.45
153,12.921,-0.22,0.05,0.45
154,12.939,-0.22,0.05,0.45
155,12.959,-0.22,0.05,0.45
156,12.977,-0.22,0.05,0.45
157,12.996,-0.22,0.05,0.45
158,13.016,-0.22,0.05,0.45
159,13.034,-0.22,0.05,0.45
160,13.053,-0.22,0.05,0.45
161,13.073,-0.22,0.05,0.45
162,13.093,-0.22,0.05,0.45
163,13.111,-0.22,0.05,0.45
164,13.132,-0.22,0.05,0.45
165,13.15,-0.22,0.05,0.45
166,13.169,-0.22,0.05,0.45
167,13.187,-0.22,0.05,0.45
168,13.206,-0.22,0.05,0.45
169,13.23,-0.22,0.05,0.45
170,13.251,-0.22,0.05,0.45
171,13.262,-0.22,0.05,0.45
172,13.282,-0.22,0.05,0.45
173,13.301,-0.22,0.05,0.45
174,13.319,-0.22,0.05,0.45
175,13.34,-0.22,0.05,0.45
176,13.359,-0.22,0.05,0.45
177,13.377,-0.22,0.05,0.45
178,13.418,-0.22,0.05,0.45
179,13.421,-0.22,0.05,0.45
180,13.443,-0.22,0.05,0.45
181,13.453,-0.22,0.05,0.45
182,13.472,-0.22,0.05,0.45
183,13.492,-0.22,0.05,0.45
184,13.51,-0.22,0.05,0.45
185,13.531,-0.22,0.05,0.45
186,13.549,-0.22,0.05,0.45
187,13.568,-0.22,0.05,0.45
188,13.587,-0.22,0.05,0.45
189,13.606,-0.22,0.05,0.45
190,13.639,-0.22,0.05,0.45
191,13.65,-0.22,0.05,0.45
192,13.663,-0.22,0.05,0.45
193,13.682,-0.22,0.05,0.45
194,13.701,-0.22,0.05,0.45
195,13.72,-0.22,0.05,0.45
196,13.738,-0.22,0.05,0.45
197,13.758,-0.22,0.05,0.45
198,13.777,-0.22,0.05,0.45
199,13.799,-0.22,0.05,0.45
200,13.815,-0.22,0.05,0.45
201,13.834,-0.22,0.05,0.45
202,13.853,-0.22,0.05,0.45
203,13.873,-0.22,0.05,0.45
204,13.891,-0.22,0.05,0.45
205,13.91,-0.22,0.05,0.45
206,13.931,-0.22,0.05,0.45
207,13.958,-0.22,0.05,0.45
208,13.967,-0.22,0.05,0.45
209,13.986,-0.22,0.05,0.45
210,14.006,-0.22,0.05,0.45
211,14.042,-0.22,0.05,0.45
212,14.049,-0.22,0.05,0.45
213,14.062,-0.22,0.05,0.45
214,14.082,-0.22,0.05,0.45
215,14.1,-0.22,0.05,0.45
216,14.119,-0.22,0.05,0.45
217,14.138,-0.22,0.05,0.45
218,14.158,-0.22,0.05,0.45
219,14.176,-0.22,0.05,0.45
220,14.197,-0.22,0.05,0.45
221,14.216,-0.22,0.05,0.45
222,14.243,-0.22,0.05,0.45
223,14.252,-0.22,0.05,0.45
224,14.272,-0.22,0.05,0.45
225,14.291,-0.22,0.05,0.45
226,14.309,-0.22,0.05,0.45
227,14.329,-0.22,0.05,0.45
228,14.347,-0.22,0.05,0.45
229,14.367,-0.22,0.05,0.45
230,14.386,-0.22,0.05,0.45
231,14.417,-0.22,0.05,0.45
232,14.421,-0.22,0.05,0.45
233,14.439,-0.22,0.05,0.45
234,14.458,-0.22,0.05,0.45
235,14.478,-0.22,0.05,0.45
236,14.497,-0.22,0.05,0.45
237,14.516,-0.22,0.05,0.45
238,14.535,-0.22,0.05,0.45
239,14.554,-0.22,0.05,0.45
240,14.572,-0.22,0.05,0.45
241,14.594,-0.22,0.05,0.45
242,14.611,-0.22,0.05,0.45
243,14.633,-0.22,0.05,0.45
244,14.659,-0.22,0.05,0.45
245,14.667,-0.22,0.05,0.45
246,14.688,-0.22,0.05,0.45
247,14.706,-0.22,0.05,0.45
248,14.732,-0.22,0.05,0.45
249,14.747,-0.22,0.05,0.45
250,14.763,-0.22,0.05,0.45
251,14.783,-0.22,0.05,0.45
252,14.801,-0.22,0.05,0.45
253,14.82,-0.22,0.05,0.45
254,14.84,-0.22,0.05,0.45
255,14.859,-0.22,0.05,0.45
256,14.878,-0.22,0.05,0.45
257,14.897,-0.22,0.05,0.45
258,14.915,-0.22,0.05,0.45
259,14.934,-0.22,0.05,0.45
260,14.953,-0.22,0.05,0.45
261,14.972,-0.22,0.05,0.45
262,14.992,-0.22,0.05,0.45
263,15.01,-0.22,0.05,0.45
264,15.031,-0.22,0.05,0.45
265,15.049,-0.22,0.05,0.45
266,15.067,-0.22,0.05,0.45
267,15.087,-0.22,0.05,0.45
268,15.106,-0.22,0.05,0.45
269,15.13,-0.22,0.05,0.45
270,15.148,-0.22,0.05,0.45
271,15.163,-0.22,0.05,0.45
272,15.182,-0.22,0.05,0.45
273,15.201,-0.22,0.05,0.45
274,15.228,-0.22,0.05,0.45
275,15.243,-0.22,0.05,0.45
276,15.257,-0.22,0.05,0.45
277,15.276,-0.22,0.05,0.45
278,15.296,-0.22,0.05,0.45
279,15.315,-0.22,0.05,0.45
280,15.333,-0.22,0.05,0.45
281,15.353,-0.22,0.05,0.45
282,15.372,-0.22,0.05,0.45
283,15.392,-0.22,0.05,0.45
284,15.416,-0.22,0.05,0.45
285,15.432,-0.22,0.05,0.45
286,15.448,-0.22,0.05,0.45
287,15.467,-0.22,0.05,0.45
288,15.487,-0.22,0.05,0.45
289,15.506,-0.22,0.05,0.45
290,15.529,-0.22,0.05,0.45
291,15.552,-0.22,0.05,0.45
292,15.563,-0.22,0.05,0.45
293,15.582,-0.22,0.05,0.45
294,15.6,-0.22,0.05,0.45
295,15.619,-0.22,0.05,0.45
296,15.638,-0.22,0.05,0.45
297,15.657,-0.22,0.05,0.45
298,15.675,-0.22,0.05,0.45
299,15.701,-0.22,0.05,0.45
300,15.715,-0.22,0.05,0.45
301,15.733,-0.22,0.05,0.45
302,15.752,-0.22,0.05,0.45
303,15.773,-0.22,0.05,0.45
304,15.791,-0.22,0.05,0.45
305,15.809,-0.22,0.05,0.45
306,15.833,-0.22,0.05,0.45
307,15.856,-0.22,0.05,0.45
308,15.867,-0.22,0.05,0.45
309,15.886,-0.22,0.05,0.45
310,15.904,-0.22,0.05,0.45
311,15.927,-0.22,0.05,0.45
312,15.942,-0.22,0.05,0.45
313,15.962,-0.22,0.05,0.45
314,15.982,-0.22,0.05,0.45
315,16.0,-0.22,0.05,0.45
316,16.019,-0.22,0.05,0.45
317,16.038,-0.22,0.05,0.45
318,16.057,-0.22,0.05,0.45
319,16.077,-0.22,0.05,0.45
320,16.095,-0.22,0.05,0.45
321,16.116,-0.22,0.05,0.45
322,16.133,-0.22,0.05,0.45
323,16.151,-0.22,0.05,0.45
324,16.177,-0.22,0.05,0.45
325,16.191,-0.22,0.05,0.45
326,16.209,-0.22,0.05,0.45
327,16.23,-0.22,0.05,0.45
328,16.247,-0.22,0.05,0.45
329,16.267,-0.22,0.05,0.45
330,16.286,-0.22,0.05,0.45
331,16.304,-0.22,0.05,0.45
332,16.33,-0.22,0.05,0.45
333,16.349,-0.22,0.05,0.45
334,16.362,-0.22,0.05,0.45
335,16.381,-0.22,0.05,0.45
336,16.412,-0.22,0.05,0.45
337,16.421,-0.22,0.05,0.45
338,16.438,-0.22,0.05,0.45
339,16.456,-0.22,0.05,0.45
340,16.476,-0.22,0.05,0.45
341,16.497,-0.22,0.05,0.45
342,16.513,-0.22,0.05,0.45
343,16.533,-0.22,0.05,0.45
344,16.551,-0.22,0.05,0.45
345,16.571,-0.22,0.05,0.45
346,16.59,-0.22,0.05,0.45
347,16.608,-0.22,0.05,0.45
348,16.629,-0.22,0.05,0.45
349,16.651,-0.22,0.05,0.45
350,16.665,-0.22,0.05,0.45
351,16.685,-0.22,0.05,0.45
352,16.704,-0.22,0.05,0.45
353,16.728,-0.22,0.05,0.45
354,16.746,-0.22,0.05,0.45
355,16.761,-0.22,0.05,0.45
356,16.781,-0.22,0.05,0.45
357,16.799,-0.22,0.05,0.45
358,16.819,-0.22,0.05,0.45
359,16.84,-0.22,0.05,0.45
360,16.856,-0.22,0.05,0.45
361,16.875,-0.22,0.05,0.45
362,16.894,-0.22,0.05,0.45
363,16.913,-0.22,0.05,0.45
364,16.932,-0.22,0.05,0.45
365,16.951,-0.22,0.05,0.45
366,16.971,-0.22,0.05,0.45
367,16.99,-0.22,0.05,0.45
368,17.009,-0.22,0.05,0.45
369,17.029,-0.22,0.05,0.45
370,17.049,-0.22,0.05,0.45
371,17.078,-0.22,0.05,0.45
372,17.084,-0.22,0.05,0.45
373,17.103,-0.22,0.05,0.45
374,17.13,-0.22,0.05,0.45
375,17.143,-0.22,0.05,0.45
376,17.161,-0.22,0.05,0.45
377,17.18,-0.22,0.05,0.45
378,17.199,-0.22,0.05,0.45
379,17.218,-0.22,0.05,0.45
380,17.237,-0.22,0.05,0.45
381,17.274,-0.22,0.05,0.45
382,17.277,-0.22,0.05,0.45
383,17.293,-0.22,0.05,0.45
384,17.313,-0.22,0.05,0.45
385,17.333,-0.22,0.05,0.45
386,17.351,-0.22,0.05,0.45
387,17.373,-0.22,0.05,0.45
388,17.389,-0.22,0.05,0.45
389,17.414,-0.22,0.05,0.45
390,17.428,-0.22,0.05,0.45
391,17.447,-0.22,0.05,0.45
392,17.465,-0.22,0.05,0.45
393,17.485,-0.22,0.05,0.45
394,17.504,-0.22,0.05,0.45
395,17.529,-0.22,0.05,0.45
396,17.545,-0.22,0.05,0.45
397,17.561,-0.22,0.05,0.45
398,17.58,-0.22,0.05,0.45
399,17.603,-0.22,0.05,0.45
400,17.618,-0.22,0.05,0.45
401,17.636,-0.22,0.05,0.45
402,17.662,-0.22,0.05,0.45
403,17.675,-0.22,0.05,0.45
404,17.695,-0.22,0.05,0.45
405,17.714,-0.22,0.05,0.45
406,17.732,-0.22,0.05,0.45
407,17.751,-0.22,0.05,0.45
408,17.77,-0.22,0.05,0.45
409,17.789,-0.22,0.05,0.45
410,17.808,-0.22,0.05,0.45
411,17.827,-0.22,0.05,0.45
412,17.852,-0.22,0.05,0.45
413,17.869,-0.22,0.05,0.45
414,17.884,-0.22,0.05,0.45
415,17.904,-0.22,0.05,0.45
416,17.923,-0.22,0.05,0.45
417,17.941,-0.22,0.05,0.45
418,17.966,-0.22,0.05,0.45
419,17.979,-0.22,0.05,0.45
420,17.999,-0.22,0.05,0.45
421,18.018,-0.22,0.05,0.45
422,18.036,-0.22,0.05,0.45
423,18.065,-0.22,0.05,0.45
424,18.08,-0.22,0.05,0.45
425,18.095,-0.22,0.05,0.45
426,18.114,-0.22,0.05,0.45
427,18.132,-0.22,0.05,0.45
428,18.151,-0.22,0.05,0.45
429,18.17,-0.22,0.05,0.45
430,18.196,-0.22,0.05,0.45
431,18.208,-0.22,0.05,0.45
432,18.227,-0.22,0.05,0.45
433,18.247,-0.22,0.05,0.45
434,18.27,-0.22,0.05,0.45
435,18.283,-0.22,0.05,0.45
436,18.303,-0.22,0.05,0.45
437,18.322,-0.22,0.05,0.45
438,18.34,-0.22,0.05,0.45
439,18.36,-0.22,0.05,0.45
440,18.379,-0.22,0.05,0.45
441,18.411,-0.22,0.05,0.45
442,18.416,-0.22,0.05,0.45
443,18.437,-0.22,0.05,0.45
444,18.464,-0.22,0.05,0.45
445,18.475,-0.22,0.05,0.45
446,18.495,-0.22,0.05,0.45
447,18.513,-0.22,0.05,0.45
448,18.532,-0.22,0.05,0.45
449,18.556,-0.22,0.05,0.45
450,18.569,-0.22,0.05,0.45
451,18.589,-0.22,0.05,0.45
452,18.608,-0.22,0.05,0.45
453,18.627,-0.22,0.05,0.45
454,18.645,-0.22,0.05,0.45
455,18.663,-0.22,0.05,0.45
456,18.683,-0.22,0.05,0.45
457,18.702,-0.22,0.05,0.45
458,18.722,-0.22,0.05,0.45
459,18.744,-0.22,0.05,0.45
460,18.76,-0.22,0.05,0.45
461,18.778,-0.22,0.05,0.45
462,18.799,-0.22,0.05,0.45
463,18.817,-0.22,0.05,0.45
464,18.836,-0.22,0.05,0.45
465,18.863,-0.22,0.05,0.45
466,18.873,-0.22,0.05,0.45
467,18.895,-0.22,0.05,0.45
468,18.913,-0.22,0.05,0.45
469,18.931,-0.22,0.05,0.45
470,18.95,-0.22,0.05,0.45
471,18.969,-0.22,0.05,0.45
472,18.988,-0.22,0.05,0.45
473,19.007,-0.22,0.05,0.45
474,19.033,-0.22,0.05,0.45
475,19.046,-0.22,0.05,0.45
476,19.063,-0.22,0.05,0.45
477,19.084,-0.22,0.05,0.45
478,19.102,-0.22,0.05,0.45
479,19.122,-0.22,0.05,0.45
480,19.14,-0.22,0.05,0.45
481,19.162,-0.22,0.05,0.45
482,19.178,-0.22,0.05,0.45
483,19.198,-0.22,0.05,0.45
484,19.217,-0.22,0.05,0.45
485,19.235,-0.22,0.05,0.45
486,19.26,-0.22,0.05,0.45
487,19.273,-0.22,0.05,0.45
488,19.293,-0.22,0.05,0.45
489,19.312,-0.22,0.05,0.45
490,19.33,-0.22,0.05,0.45
491,19.35,-0.22,0.05,0.45
492,19.369,-0.22,0.05,0.45
493,19.397,-0.22,0.05,0.45
494,19.412,-0.22,0.05,0.45
495,19.426,-0.22,0.05,0.45
496,19.446,-0.22,0.05,0.45
497,19.471,-0.22,0.05,0.45
498,19.483,-0.22,0.05,0.45
499,19.507,-0.22,0.05,0.45
