time,ax,ay,az,wx,wy,wz
5.002,1.43,-0.51,0.44,0.42,-0.22,-0.57
5.003,1.43,-0.51,0.44,0.42,-0.22,-0.57
5.004,1.43,-0.51,0.44,0.42,-0.22,-0.57
5.004,1.43,-0.51,0.44,0.42,-0.22,-0.57
5.011,1.43,-0.51,0.44,0.43,-0.26,-0.71
5.012,1.43,-0.51,0.44,0.43,-0.26,-0.71
5.012,0.89,-0.25,0.21,0.43,-0.26,-0.71
5.012,0.89,-0.25,0.21,0.43,-0.26,-0.71
5.021,0.89,-0.25,0.21,0.41,-0.27,-0.82
5.021,0.89,-0.25,0.21,0.41,-0.27,-0.82
5.022,0.5,-0.15,0.2,0.41,-0.27,-0.82
5.022,0.5,-0.15,0.2,0.41,-0.27,-0.82
5.03,0.5,-0.15,0.2,0.35,-0.25,-0.82
5.031,0.5,-0.15,0.2,0.35,-0.25,-0.82
5.032,0.2,-0.1,0.26,0.35,-0.25,-0.82
5.032,0.2,-0.1,0.26,0.35,-0.25,-0.82
5.04,0.2,-0.1,0.26,0.27,-0.18,-0.69
5.04,0.2,-0.1,0.26,0.27,-0.18,-0.69
5.041,0.09,-0.09,0.37,0.27,-0.18,-0.69
5.042,0.09,-0.09,0.37,0.27,-0.18,-0.69
5.05,0.09,-0.09,0.37,0.2,-0.1,-0.47
5.052,0.09,-0.09,0.37,0.2,-0.1,-0.47
5.052,0.16,-0.12,0.44,0.2,-0.1,-0.47
5.053,0.16,-0.12,0.44,0.2,-0.1,-0.47
5.059,0.16,-0.12,0.44,0.16,-0.03,-0.21
5.06,0.16,-0.12,0.44,0.16,-0.03,-0.21
5.06,0.36,-0.15,0.47,0.16,-0.03,-0.21
5.06,0.36,-0.15,0.47,0.16,-0.03,-0.21
5.071,0.36,-0.15,0.47,0.15,0.03,-0.01
5.071,0.36,-0.15,0.47,0.15,0.03,-0.01
5.072,0.65,-0.15,0.44,0.15,0.03,-0.01
5.072,0.65,-0.15,0.44,0.15,0.03,-0.01
5.079,0.65,-0.15,0.44,0.15,0.06,0.11
5.08,0.65,-0.15,0.44,0.15,0.06,0.11
5.08,0.94,-0.09,0.37,0.15,0.06,0.11
5.08,0.94,-0.09,0.37,0.15,0.06,0.11
5.088,0.94,-0.09,0.37,0.15,0.06,0.13
5.089,0.94,-0.09,0.37,0.15,0.06,0.13
5.089,1.2,0.03,0.3,0.15,0.06,0.13
5.09,1.2,0.03,0.3,0.15,0.06,0.13
5.096,1.2,0.03,0.3,0.13,0.02,0.05
5.098,1.2,0.03,0.3,0.13,0.02,0.05
5.099,1.38,0.15,0.24,0.13,0.02,0.05
5.1,1.38,0.15,0.24,0.13,0.02,0.05
5.106,1.38,0.15,0.24,0.1,-0.04,-0.09
5.107,1.38,0.15,0.24,0.1,-0.04,-0.09
5.108,1.43,0.27,0.22,0.1,-0.04,-0.09
5.109,1.43,0.27,0.22,0.1,-0.04,-0.09
5.115,1.43,0.27,0.22,0.07,-0.1,-0.27
5.116,1.43,0.27,0.22,0.07,-0.1,-0.27
5.117,1.4,0.33,0.23,0.07,-0.1,-0.27
5.118,1.4,0.33,0.23,0.07,-0.1,-0.27
5.124,1.4,0.33,0.23,0.03,-0.16,-0.43
5.125,1.4,0.33,0.23,0.03,-0.16,-0.43
5.125,1.26,0.36,0.25,0.03,-0.16,-0.43
5.126,1.26,0.36,0.25,0.03,-0.16,-0.43
5.135,1.26,0.36,0.25,0.01,-0.21,-0.55
5.136,1.26,0.36,0.25,0.01,-0.21,-0.55
5.136,1.07,0.34,0.23,0.01,-0.21,-0.55
5.137,1.07,0.34,0.23,0.01,-0.21,-0.55
5.144,1.07,0.34,0.23,-0.01,-0.24,-0.6
5.145,1.07,0.34,0.23,-0.01,-0.24,-0.6
5.145,0.83,0.31,0.15,-0.01,-0.24,-0.6
5.145,0.83,0.31,0.15,-0.01,-0.24,-0.6
5.153,0.83,0.31,0.15,-0.02,-0.25,-0.58
5.154,0.83,0.31,0.15,-0.02,-0.25,-0.58
5.154,0.55,0.31,-0.02,-0.02,-0.25,-0.58
5.154,0.55,0.31,-0.02,-0.02,-0.25,-0.58
5.162,0.55,0.31,-0.02,-0.03,-0.24,-0.48
5.163,0.55,0.31,-0.02,-0.03,-0.24,-0.48
5.163,0.28,0.31,-0.27,-0.03,-0.24,-0.48
5.164,0.28,0.31,-0.27,-0.03,-0.24,-0.48
5.173,0.28,0.31,-0.27,-0.08,-0.21,-0.32
5.173,0.28,0.31,-0.27,-0.08,-0.21,-0.32
5.174,0.06,0.32,-0.55,-0.08,-0.21,-0.32
5.174,0.06,0.32,-0.55,-0.08,-0.21,-0.32
5.183,0.06,0.32,-0.55,-0.16,-0.18,-0.12
5.184,0.06,0.32,-0.55,-0.16,-0.18,-0.12
5.185,-0.08,0.32,-0.81,-0.16,-0.18,-0.12
5.185,-0.08,0.32,-0.81,-0.16,-0.18,-0.12
5.192,-0.08,0.32,-0.81,-0.16,-0.18,-0.12
5.193,-0.08,0.32,-0.81,-0.16,-0.18,-0.12
5.194,-0.08,0.32,-0.81,-0.16,-0.18,-0.12
5.194,-0.08,0.32,-0.81,-0.16,-0.18,-0.12
5.201,-0.08,0.32,-0.81,-0.29,-0.14,0.1
5.202,-0.08,0.32,-0.81,-0.29,-0.14,0.1
5.203,0,0.2,-1.03,-0.29,-0.14,0.1
5.203,0,0.2,-1.03,-0.29,-0.14,0.1
5.211,0,0.2,-1.03,-0.45,-0.1,0.3
5.212,0,0.2,-1.03,-0.45,-0.1,0.3
5.213,0.11,0.15,-0.97,-0.45,-0.1,0.3
5.213,0.11,0.15,-0.97,-0.45,-0.1,0.3
5.22,0.11,0.15,-0.97,-0.62,-0.04,0.44
5.221,0.11,0.15,-0.97,-0.62,-0.04,0.44
5.221,0.28,0.13,-0.82,-0.62,-0.04,0.44
5.222,0.28,0.13,-0.82,-0.62,-0.04,0.44
5.23,0.28,0.13,-0.82,-0.75,0,0.5
5.231,0.28,0.13,-0.82,-0.75,0,0.5
5.231,0.43,0.12,-0.66,-0.75,0,0.5
5.232,0.43,0.12,-0.66,-0.75,0,0.5
5.239,0.43,0.12,-0.66,-0.82,0.01,0.49
5.24,0.43,0.12,-0.66,-0.82,0.01,0.49
5.24,0.58,0.12,-0.51,-0.82,0.01,0.49
5.24,0.58,0.12,-0.51,-0.82,0.01,0.49
5.249,0.58,0.12,-0.51,-0.8,-0.02,0.4
5.25,0.58,0.12,-0.51,-0.8,-0.02,0.4
5.25,0.74,0.12,-0.4,-0.8,-0.02,0.4
5.251,0.74,0.12,-0.4,-0.8,-0.02,0.4
5.258,0.74,0.12,-0.4,-0.71,-0.08,0.27
5.259,0.74,0.12,-0.4,-0.71,-0.08,0.27
5.259,0.89,0.11,-0.32,-0.71,-0.08,0.27
5.259,0.89,0.11,-0.32,-0.71,-0.08,0.27
5.268,0.89,0.11,-0.32,-0.57,-0.15,0.11
5.268,0.89,0.11,-0.32,-0.57,-0.15,0.11
5.269,1.02,0.13,-0.24,-0.57,-0.15,0.11
5.269,1.02,0.13,-0.24,-0.57,-0.15,0.11
5.278,1.02,0.13,-0.24,-0.41,-0.23,-0.06
5.279,1.02,0.13,-0.24,-0.41,-0.23,-0.06
5.279,1.11,0.18,-0.18,-0.41,-0.23,-0.06
5.279,1.11,0.18,-0.18,-0.41,-0.23,-0.06
5.287,1.11,0.18,-0.18,-0.25,-0.31,-0.23
5.288,1.11,0.18,-0.18,-0.25,-0.31,-0.23
5.289,1.19,0.23,-0.18,-0.25,-0.31,-0.23
5.29,1.19,0.23,-0.18,-0.25,-0.31,-0.23
5.296,1.19,0.23,-0.18,-0.1,-0.36,-0.39
5.297,1.19,0.23,-0.18,-0.1,-0.36,-0.39
5.298,1.21,0.22,-0.24,-0.1,-0.36,-0.39
5.299,1.21,0.22,-0.24,-0.1,-0.36,-0.39
5.306,1.21,0.22,-0.24,0.02,-0.38,-0.53
5.307,1.21,0.22,-0.24,0.02,-0.38,-0.53
5.308,1.19,0.19,-0.38,0.02,-0.38,-0.53
5.308,1.19,0.19,-0.38,0.02,-0.38,-0.53
5.316,1.19,0.19,-0.38,0.1,-0.36,-0.63
5.317,1.19,0.19,-0.38,0.1,-0.36,-0.63
5.318,1.13,0.16,-0.54,0.1,-0.36,-0.63
5.318,1.13,0.16,-0.54,0.1,-0.36,-0.63
5.325,1.13,0.16,-0.54,0.13,-0.35,-0.7
5.325,1.13,0.16,-0.54,0.13,-0.35,-0.7
5.326,1.03,0.16,-0.7,0.13,-0.35,-0.7
5.326,1.03,0.16,-0.7,0.13,-0.35,-0.7
5.335,1.03,0.16,-0.7,0.1,-0.34,-0.72
5.336,1.03,0.16,-0.7,0.1,-0.34,-0.72
5.336,0.98,0.23,-0.84,0.1,-0.34,-0.72
5.337,0.98,0.23,-0.84,0.1,-0.34,-0.72
5.346,0.98,0.23,-0.84,0.03,-0.33,-0.69
5.347,0.98,0.23,-0.84,0.03,-0.33,-0.69
5.347,0.96,0.31,-0.92,0.03,-0.33,-0.69
5.348,0.96,0.31,-0.92,0.03,-0.33,-0.69
5.353,0.96,0.31,-0.92,-0.08,-0.31,-0.64
5.354,0.96,0.31,-0.92,-0.08,-0.31,-0.64
5.354,0.99,0.36,-0.98,-0.08,-0.31,-0.64
5.354,0.99,0.36,-0.98,-0.08,-0.31,-0.64
5.363,0.99,0.36,-0.98,-0.19,-0.28,-0.58
5.363,0.99,0.36,-0.98,-0.19,-0.28,-0.58
5.364,1.08,0.42,-1.02,-0.19,-0.28,-0.58
5.364,1.08,0.42,-1.02,-0.19,-0.28,-0.58
5.373,1.08,0.42,-1.02,-0.29,-0.26,-0.53
5.374,1.08,0.42,-1.02,-0.29,-0.26,-0.53
5.374,1.17,0.48,-1.07,-0.29,-0.26,-0.53
5.374,1.17,0.48,-1.07,-0.29,-0.26,-0.53
5.383,1.17,0.48,-1.07,-0.29,-0.26,-0.53
5.384,1.17,0.48,-1.07,-0.29,-0.26,-0.53
5.384,1.17,0.48,-1.07,-0.29,-0.26,-0.53
5.385,1.17,0.48,-1.07,-0.29,-0.26,-0.53
5.391,1.17,0.48,-1.07,-0.37,-0.24,-0.5
5.392,1.17,0.48,-1.07,-0.37,-0.24,-0.5
5.393,1.37,0.39,-1.27,-0.37,-0.24,-0.5
5.394,1.37,0.39,-1.27,-0.37,-0.24,-0.5
5.401,1.37,0.39,-1.27,-0.43,-0.23,-0.51
5.402,1.37,0.39,-1.27,-0.43,-0.23,-0.51
5.403,1.37,0.13,-1.38,-0.43,-0.23,-0.51
5.404,1.37,0.13,-1.38,-0.43,-0.23,-0.51
5.41,1.37,0.13,-1.38,-0.5,-0.23,-0.55
5.411,1.37,0.13,-1.38,-0.5,-0.23,-0.55
5.411,1.31,-0.32,-1.48,-0.5,-0.23,-0.55
5.412,1.31,-0.32,-1.48,-0.5,-0.23,-0.55
5.419,1.31,-0.32,-1.48,-0.58,-0.23,-0.6
5.42,1.31,-0.32,-1.48,-0.58,-0.23,-0.6
5.42,1.22,-1.97,-1.57,-0.58,-0.23,-0.6
5.421,1.22,-1.97,-1.57,-0.58,-0.23,-0.6
5.429,1.22,-1.97,-1.57,-0.68,-0.24,-0.63
5.429,1.22,-1.97,-1.57,-0.68,-0.24,-0.63
5.43,1.1,-2.29,-1.65,-0.68,-0.24,-0.63
5.43,1.1,-2.29,-1.65,-0.68,-0.24,-0.63
5.438,1.1,-2.29,-1.65,-0.78,-0.23,-0.62
5.44,1.1,-2.29,-1.65,-0.78,-0.23,-0.62
5.44,0.97,-2.79,-1.78,-0.78,-0.23,-0.62
5.441,0.97,-2.79,-1.78,-0.78,-0.23,-0.62
5.451,0.97,-2.79,-1.78,-0.88,-0.22,-0.55
5.453,0.97,-2.79,-1.78,-0.88,-0.22,-0.55
5.454,0.81,-3.35,-2,-0.88,-0.22,-0.55
5.454,0.81,-3.35,-2,-0.88,-0.22,-0.55
5.458,0.81,-3.35,-2,-0.95,-0.2,-0.45
5.459,0.81,-3.35,-2,-0.95,-0.2,-0.45
5.46,0.61,-3.77,-2.27,-0.95,-0.2,-0.45
5.46,0.61,-3.77,-2.27,-0.95,-0.2,-0.45
5.467,0.61,-3.77,-2.27,-1.02,-0.19,-0.32
5.469,0.61,-3.77,-2.27,-1.02,-0.19,-0.32
5.47,0.31,-3.97,-2.57,-1.02,-0.19,-0.32
5.47,0.31,-3.97,-2.57,-1.02,-0.19,-0.32
5.479,0.31,-3.97,-2.57,-1.1,-0.18,-0.18
5.48,0.31,-3.97,-2.57,-1.1,-0.18,-0.18
5.482,-0.14,-3.99,-2.85,-1.1,-0.18,-0.18
5.482,-0.14,-3.99,-2.85,-1.1,-0.18,-0.18
5.498,-0.14,-3.99,-2.85,-1.18,-0.17,-0.01
5.5,-0.14,-3.99,-2.85,-1.18,-0.17,-0.01
5.5,-0.77,-3.81,-3.05,-1.18,-0.17,-0.01
5.5,-0.77,-3.81,-3.05,-1.18,-0.17,-0.01
5.501,-0.77,-3.81,-3.05,-1.27,-0.14,0.18
5.501,-0.77,-3.81,-3.05,-1.27,-0.14,0.18
5.502,-2.3,-3.54,-3.07,-1.27,-0.14,0.18
5.502,-2.3,-3.54,-3.07,-1.27,-0.14,0.18
5.505,-2.3,-3.54,-3.07,-1.35,-0.08,0.44
5.506,-2.3,-3.54,-3.07,-1.35,-0.08,0.44
5.506,-2.71,-3.24,-2.82,-1.35,-0.08,0.44
5.506,-2.71,-3.24,-2.82,-1.35,-0.08,0.44
5.515,-2.71,-3.24,-2.82,-1.39,0.05,0.79
5.516,-2.71,-3.24,-2.82,-1.39,0.05,0.79
5.516,-3.13,-2.89,-2.22,-1.39,0.05,0.79
5.517,-3.13,-2.89,-2.22,-1.39,0.05,0.79
5.524,-3.13,-2.89,-2.22,-1.36,0.25,1.23
5.525,-3.13,-2.89,-2.22,-1.36,0.25,1.23
5.526,-3.38,-2.56,-0.46,-1.36,0.25,1.23
5.526,-3.38,-2.56,-0.46,-1.36,0.25,1.23
5.534,-3.38,-2.56,-0.46,-1.19,0.48,1.66
5.535,-3.38,-2.56,-0.46,-1.19,0.48,1.66
5.536,-3.42,-2.29,1.28,-1.19,0.48,1.66
5.536,-3.42,-2.29,1.28,-1.19,0.48,1.66
5.546,-3.42,-2.29,1.28,-0.79,0.71,2.01
5.547,-3.42,-2.29,1.28,-0.79,0.71,2.01
5.547,-3.32,-2.09,1.65,-0.79,0.71,2.01
5.547,-3.32,-2.09,1.65,-0.79,0.71,2.01
5.553,-3.32,-2.09,1.65,-0.16,0.88,2.22
5.554,-3.32,-2.09,1.65,-0.16,0.88,2.22
5.554,-3.14,-1.92,2.03,-0.16,0.88,2.22
5.554,-3.14,-1.92,2.03,-0.16,0.88,2.22
5.562,-3.14,-1.92,2.03,0.61,0.98,2.3
5.563,-3.14,-1.92,2.03,0.61,0.98,2.3
5.563,-2.92,-1.73,2.21,0.61,0.98,2.3
5.563,-2.92,-1.73,2.21,0.61,0.98,2.3
5.572,-2.92,-1.73,2.21,0.61,0.98,2.3
5.572,-2.92,-1.73,2.21,0.61,0.98,2.3
5.573,-2.92,-1.73,2.21,0.61,0.98,2.3
5.573,-2.92,-1.73,2.21,0.61,0.98,2.3
5.581,-2.92,-1.73,2.21,1.32,0.99,2.25
5.582,-2.92,-1.73,2.21,1.32,0.99,2.25
5.583,-2.49,-1.3,0.27,1.32,0.99,2.25
5.583,-2.49,-1.3,0.27,1.32,0.99,2.25
5.59,-2.49,-1.3,0.27,1.82,0.98,2.08
5.591,-2.49,-1.3,0.27,1.82,0.98,2.08
5.591,-2.3,-1.19,-0.16,1.82,0.98,2.08
5.592,-2.3,-1.19,-0.16,1.82,0.98,2.08
5.6,-2.3,-1.19,-0.16,1.99,0.98,1.82
5.602,-2.3,-1.19,-0.16,1.99,0.98,1.82
5.602,-2.12,-1.16,-1.8,1.99,0.98,1.82
5.603,-2.12,-1.16,-1.8,1.99,0.98,1.82
5.61,-2.12,-1.16,-1.8,1.81,1.03,1.51
5.612,-2.12,-1.16,-1.8,1.81,1.03,1.51
5.612,-1.99,-1.21,-2.2,1.81,1.03,1.51
5.613,-1.99,-1.21,-2.2,1.81,1.03,1.51
5.619,-1.99,-1.21,-2.2,1.34,1.13,1.17
5.62,-1.99,-1.21,-2.2,1.34,1.13,1.17
5.621,-1.87,-1.22,-2.36,1.34,1.13,1.17
5.621,-1.87,-1.22,-2.36,1.34,1.13,1.17
5.628,-1.87,-1.22,-2.36,0.7,1.26,0.85
5.63,-1.87,-1.22,-2.36,0.7,1.26,0.85
5.63,-1.84,-1.19,-2.03,0.7,1.26,0.85
5.63,-1.84,-1.19,-2.03,0.7,1.26,0.85
5.638,-1.84,-1.19,-2.03,0.08,1.38,0.57
5.639,-1.84,-1.19,-2.03,0.08,1.38,0.57
5.639,-1.88,-1.14,-0.14,0.08,1.38,0.57
5.64,-1.88,-1.14,-0.14,0.08,1.38,0.57
5.647,-1.88,-1.14,-0.14,-0.36,1.43,0.34
5.648,-1.88,-1.14,-0.14,-0.36,1.43,0.34
5.649,-1.93,-1.01,0.27,-0.36,1.43,0.34
5.649,-1.93,-1.01,0.27,-0.36,1.43,0.34
5.657,-1.93,-1.01,0.27,-0.51,1.38,0.17
5.658,-1.93,-1.01,0.27,-0.51,1.38,0.17
5.658,-1.98,-0.84,0.79,-0.51,1.38,0.17
5.658,-1.98,-0.84,0.79,-0.51,1.38,0.17
5.666,-1.98,-0.84,0.79,-0.35,1.23,0.07
5.667,-1.98,-0.84,0.79,-0.35,1.23,0.07
5.668,-1.99,-0.63,1.16,-0.35,1.23,0.07
5.668,-1.99,-0.63,1.16,-0.35,1.23,0.07
5.676,-1.99,-0.63,1.16,-0.01,1.02,0.03
5.677,-1.99,-0.63,1.16,-0.01,1.02,0.03
5.678,-1.94,-0.32,1.3,-0.01,1.02,0.03
5.678,-1.94,-0.32,1.3,-0.01,1.02,0.03
5.686,-1.94,-0.32,1.3,0.37,0.8,0.04
5.687,-1.94,-0.32,1.3,0.37,0.8,0.04
5.687,-1.83,0.02,1.28,0.37,0.8,0.04
5.688,-1.83,0.02,1.28,0.37,0.8,0.04
5.695,-1.83,0.02,1.28,0.69,0.58,0.08
5.696,-1.83,0.02,1.28,0.69,0.58,0.08
5.697,-1.67,0.36,1.11,0.69,0.58,0.08
5.698,-1.67,0.36,1.11,0.69,0.58,0.08
5.705,-1.67,0.36,1.11,0.93,0.39,0.12
5.706,-1.67,0.36,1.11,0.93,0.39,0.12
5.707,-1.44,0.7,0.88,0.93,0.39,0.12
5.708,-1.44,0.7,0.88,0.93,0.39,0.12
5.714,-1.44,0.7,0.88,1.05,0.23,0.15
5.716,-1.44,0.7,0.88,1.05,0.23,0.15
5.716,-1.15,0.99,0.69,1.05,0.23,0.15
5.717,-1.15,0.99,0.69,1.05,0.23,0.15
5.723,-1.15,0.99,0.69,1.06,0.11,0.16
5.724,-1.15,0.99,0.69,1.06,0.11,0.16
5.724,-0.88,1.26,0.54,1.06,0.11,0.16
5.725,-0.88,1.26,0.54,1.06,0.11,0.16
5.734,-0.88,1.26,0.54,0.98,0.03,0.12
5.735,-0.88,1.26,0.54,0.98,0.03,0.12
5.735,-0.69,1.52,0.45,0.98,0.03,0.12
5.735,-0.69,1.52,0.45,0.98,0.03,0.12
5.745,-0.69,1.52,0.45,0.84,-0.03,0.05
5.746,-0.69,1.52,0.45,0.84,-0.03,0.05
5.746,-0.57,1.78,0.39,0.84,-0.03,0.05
5.747,-0.57,1.78,0.39,0.84,-0.03,0.05
5.752,-0.57,1.78,0.39,0.68,-0.07,-0.04
5.753,-0.57,1.78,0.39,0.68,-0.07,-0.04
5.753,-0.58,2.05,0.34,0.68,-0.07,-0.04
5.754,-0.58,2.05,0.34,0.68,-0.07,-0.04
5.762,-0.58,2.05,0.34,0.52,-0.12,-0.12
5.763,-0.58,2.05,0.34,0.52,-0.12,-0.12
5.763,-0.67,2.33,0.32,0.52,-0.12,-0.12
5.763,-0.67,2.33,0.32,0.52,-0.12,-0.12
5.772,-0.67,2.33,0.32,0.52,-0.12,-0.12
5.773,-0.67,2.33,0.32,0.52,-0.12,-0.12
5.773,-0.67,2.33,0.32,0.52,-0.12,-0.12
5.774,-0.67,2.33,0.32,0.52,-0.12,-0.12
5.781,-0.67,2.33,0.32,0.37,-0.16,-0.16
5.782,-0.67,2.33,0.32,0.37,-0.16,-0.16
5.783,-1,2.83,0.45,0.37,-0.16,-0.16
5.784,-1,2.83,0.45,0.37,-0.16,-0.16
5.791,-1,2.83,0.45,0.26,-0.21,-0.14
5.792,-1,2.83,0.45,0.26,-0.21,-0.14
5.792,-1.11,3.08,0.55,0.26,-0.21,-0.14
5.793,-1.11,3.08,0.55,0.26,-0.21,-0.14
5.8,-1.11,3.08,0.55,0.19,-0.28,-0.02
5.802,-1.11,3.08,0.55,0.19,-0.28,-0.02
5.803,-1.11,3.41,0.58,0.19,-0.28,-0.02
5.804,-1.11,3.41,0.58,0.19,-0.28,-0.02
5.81,-1.11,3.41,0.58,0.17,-0.26,0.19
5.811,-1.11,3.41,0.58,0.17,-0.26,0.19
5.812,-1.05,3.84,0.49,0.17,-0.26,0.19
5.812,-1.05,3.84,0.49,0.17,-0.26,0.19
5.819,-1.05,3.84,0.49,0.13,-0.15,0.45
5.82,-1.05,3.84,0.49,0.13,-0.15,0.45
5.821,-0.93,4.28,0.36,0.13,-0.15,0.45
5.821,-0.93,4.28,0.36,0.13,-0.15,0.45
5.828,-0.93,4.28,0.36,0.1,-0.05,0.71
5.829,-0.93,4.28,0.36,0.1,-0.05,0.71
5.83,-0.74,4.69,0.2,0.1,-0.05,0.71
5.83,-0.74,4.69,0.2,0.1,-0.05,0.71
5.838,-0.74,4.69,0.2,0.12,0.06,0.92
5.839,-0.74,4.69,0.2,0.12,0.06,0.92
5.84,-0.52,4.96,0.09,0.12,0.06,0.92
5.84,-0.52,4.96,0.09,0.12,0.06,0.92
5.848,-0.52,4.96,0.09,0.1,0.01,1.07
5.849,-0.52,4.96,0.09,0.1,0.01,1.07
5.85,-0.22,5.08,0.04,0.1,0.01,1.07
5.85,-0.22,5.08,0.04,0.1,0.01,1.07
5.857,-0.22,5.08,0.04,0.06,-0.1,1.15
5.858,-0.22,5.08,0.04,0.06,-0.1,1.15
5.858,0.17,5.03,-0.01,0.06,-0.1,1.15
5.858,0.17,5.03,-0.01,0.06,-0.1,1.15
5.866,0.17,5.03,-0.01,0.01,-0.16,1.13
5.867,0.17,5.03,-0.01,0.01,-0.16,1.13
5.867,0.59,4.84,-0.07,0.01,-0.16,1.13
5.868,0.59,4.84,-0.07,0.01,-0.16,1.13
5.876,0.59,4.84,-0.07,-0.07,-0.23,0.97
5.877,0.59,4.84,-0.07,-0.07,-0.23,0.97
5.877,1,4.51,-0.15,-0.07,-0.23,0.97
5.878,1,4.51,-0.15,-0.07,-0.23,0.97
5.885,1,4.51,-0.15,-0.13,-0.24,0.65
5.886,1,4.51,-0.15,-0.13,-0.24,0.65
5.887,1.34,4.04,-0.25,-0.13,-0.24,0.65
5.887,1.34,4.04,-0.25,-0.13,-0.24,0.65
5.895,1.34,4.04,-0.25,-0.21,-0.2,0.18
5.896,1.34,4.04,-0.25,-0.21,-0.2,0.18
5.897,1.59,3.54,-0.48,-0.21,-0.2,0.18
5.897,1.59,3.54,-0.48,-0.21,-0.2,0.18
5.905,1.59,3.54,-0.48,-0.24,-0.17,-0.4
5.905,1.59,3.54,-0.48,-0.24,-0.17,-0.4
5.906,1.74,3.01,-0.86,-0.24,-0.17,-0.4
5.907,1.74,3.01,-0.86,-0.24,-0.17,-0.4
5.914,1.74,3.01,-0.86,-0.21,-0.16,-0.98
5.916,1.74,3.01,-0.86,-0.21,-0.16,-0.98
5.917,1.78,2.55,-1.43,-0.21,-0.16,-0.98
5.918,1.78,2.55,-1.43,-0.21,-0.16,-0.98
5.924,1.78,2.55,-1.43,-0.2,-0.16,-1.49
5.925,1.78,2.55,-1.43,-0.2,-0.16,-1.49
5.925,1.79,2.19,-2.99,-0.2,-0.16,-1.49
5.926,1.79,2.19,-2.99,-0.2,-0.16,-1.49
5.935,1.79,2.19,-2.99,-0.52,-0.16,-1.83
5.935,1.79,2.19,-2.99,-0.52,-0.16,-1.83
5.936,1.76,1.94,-4.75,-0.52,-0.16,-1.83
5.937,1.76,1.94,-4.75,-0.52,-0.16,-1.83
5.943,1.76,1.94,-4.75,-1.34,-0.04,-1.99
5.944,1.76,1.94,-4.75,-1.34,-0.04,-1.99
5.945,1.75,1.8,-5.21,-1.34,-0.04,-1.99
5.946,1.75,1.8,-5.21,-1.34,-0.04,-1.99
5.955,1.75,1.8,-5.21,-2.42,0.15,-2
5.956,1.75,1.8,-5.21,-2.42,0.15,-2
5.956,1.86,1.78,-6.97,-2.42,0.15,-2
5.957,1.86,1.78,-6.97,-2.42,0.15,-2
5.965,1.86,1.78,-6.97,-3.62,0.27,-1.9
5.967,1.86,1.78,-6.97,-3.62,0.27,-1.9
5.968,2.03,1.85,-7.17,-3.62,0.27,-1.9
5.968,2.03,1.85,-7.17,-3.62,0.27,-1.9
5.971,2.03,1.85,-7.17,-3.62,0.27,-1.9
5.972,2.03,1.85,-7.17,-3.62,0.27,-1.9
5.972,2.03,1.85,-7.17,-3.62,0.27,-1.9
5.972,2.03,1.85,-7.17,-3.62,0.27,-1.9
5.981,2.03,1.85,-7.17,-4.72,0.3,-1.77
5.982,2.03,1.85,-7.17,-4.72,0.3,-1.77
5.982,2.53,2.13,-6.68,-4.72,0.3,-1.77
5.983,2.53,2.13,-6.68,-4.72,0.3,-1.77
5.99,2.53,2.13,-6.68,-5.51,0.23,-1.68
5.991,2.53,2.13,-6.68,-5.51,0.23,-1.68
5.991,2.67,2.23,-4.75,-5.51,0.23,-1.68
5.992,2.67,2.23,-4.75,-5.51,0.23,-1.68
6,2.67,2.23,-4.75,-5.81,0.13,-1.41
6.001,2.67,2.23,-4.75,-5.81,0.13,-1.41
6.001,2.64,2.23,-2.86,-5.81,0.13,-1.41
6.002,2.64,2.23,-2.86,-5.81,0.13,-1.41
6.01,2.64,2.23,-2.86,-5.49,0.03,-1.25
6.01,2.64,2.23,-2.86,-5.49,0.03,-1.25
6.01,2.35,2.07,-1.1,-5.49,0.03,-1.25
6.011,2.35,2.07,-1.1,-5.49,0.03,-1.25
6.019,2.35,2.07,-1.1,-4.52,-0.02,-1.38
6.02,2.35,2.07,-1.1,-4.52,-0.02,-1.38
6.02,1.88,1.81,0.67,-4.52,-0.02,-1.38
6.021,1.88,1.81,0.67,-4.52,-0.02,-1.38
6.028,1.88,1.81,0.67,-3,-0.02,-1.38
6.029,1.88,1.81,0.67,-3,-0.02,-1.38
6.03,1.43,1.55,0.87,-3,-0.02,-1.38
6.031,1.43,1.55,0.87,-3,-0.02,-1.38
6.039,1.43,1.55,0.87,-1.14,0,-1.22
6.039,1.43,1.55,0.87,-1.14,0,-1.22
6.04,1.14,1.36,1.1,-1.14,0,-1.22
6.041,1.14,1.36,1.1,-1.14,0,-1.22
6.049,1.14,1.36,1.1,0.75,-0.02,-0.91
6.051,1.14,1.36,1.1,0.75,-0.02,-0.91
6.051,1.09,1.32,1.18,0.75,-0.02,-0.91
6.052,1.09,1.32,1.18,0.75,-0.02,-0.91
6.062,1.09,1.32,1.18,2.34,-0.14,-0.53
6.063,1.09,1.32,1.18,2.34,-0.14,-0.53
6.064,1.28,1.44,1.13,2.34,-0.14,-0.53
6.064,1.28,1.44,1.13,2.34,-0.14,-0.53
6.066,1.28,1.44,1.13,3.45,-0.34,-0.16
6.067,1.28,1.44,1.13,3.45,-0.34,-0.16
6.068,1.59,1.61,0.97,3.45,-0.34,-0.16
6.068,1.59,1.61,0.97,3.45,-0.34,-0.16
6.077,1.59,1.61,0.97,4.07,-0.49,0.1
6.078,1.59,1.61,0.97,4.07,-0.49,0.1
6.078,1.83,1.76,0.62,4.07,-0.49,0.1
6.079,1.83,1.76,0.62,4.07,-0.49,0.1
6.086,1.83,1.76,0.62,4.28,-0.59,0.2
6.087,1.83,1.76,0.62,4.28,-0.59,0.2
6.087,1.8,1.68,-0.97,4.28,-0.59,0.2
6.088,1.8,1.68,-0.97,4.28,-0.59,0.2
6.095,1.8,1.68,-0.97,4.13,-0.71,0.17
6.097,1.8,1.68,-0.97,4.13,-0.71,0.17
6.097,0.08,-0.09,-4.29,4.13,-0.71,0.17
6.098,0.08,-0.09,-4.29,4.13,-0.71,0.17
6.106,0.08,-0.09,-4.29,3.62,-0.82,0.12
6.106,0.08,-0.09,-4.29,3.62,-0.82,0.12
6.107,-2.04,-2.8,-5.96,3.62,-0.82,0.12
6.108,-2.04,-2.8,-5.96,3.62,-0.82,0.12
6.114,-2.04,-2.8,-5.96,2.45,-0.82,0.29
6.115,-2.04,-2.8,-5.96,2.45,-0.82,0.29
6.116,-3.7,-5.89,-5.93,2.45,-0.82,0.29
6.117,-3.7,-5.89,-5.93,2.45,-0.82,0.29
6.123,-3.7,-5.89,-5.93,0.68,-0.78,0.84
6.124,-3.7,-5.89,-5.93,0.68,-0.78,0.84
6.125,-4.04,-7.91,-3.81,0.68,-0.78,0.84
6.125,-4.04,-7.91,-3.81,0.68,-0.78,0.84
6.133,-4.04,-7.91,-3.81,-0.88,-0.8,1.6
6.134,-4.04,-7.91,-3.81,-0.88,-0.8,1.6
6.135,-4.11,-8,-1.02,-0.88,-0.8,1.6
6.135,-4.11,-8,-1.02,-0.88,-0.8,1.6
6.148,-4.11,-8,-1.02,-1.57,-0.81,2.23
6.149,-4.11,-8,-1.02,-1.57,-0.81,2.23
6.149,-3.68,-6.26,0.65,-1.57,-0.81,2.23
6.15,-3.68,-6.26,0.65,-1.57,-0.81,2.23
6.152,-3.68,-6.26,0.65,-1.36,-0.85,2.52
6.153,-3.68,-6.26,0.65,-1.36,-0.85,2.52
6.153,-2.07,-3.74,0.71,-1.36,-0.85,2.52
6.154,-2.07,-3.74,0.71,-1.36,-0.85,2.52
6.161,-2.07,-3.74,0.71,-1.36,-0.85,2.52
6.162,-2.07,-3.74,0.71,-1.36,-0.85,2.52
6.163,-2.07,-3.74,0.71,-1.36,-0.85,2.52
6.163,-2.07,-3.74,0.71,-1.36,-0.85,2.52
6.172,-2.07,-3.74,0.71,-0.66,-0.86,2.5
6.172,-2.07,-3.74,0.71,-0.66,-0.86,2.5
6.173,-1.72,-2.1,-0.19,-0.66,-0.86,2.5
6.173,-1.72,-2.1,-0.19,-0.66,-0.86,2.5
6.181,-1.72,-2.1,-0.19,0.1,-0.77,2.27
6.182,-1.72,-2.1,-0.19,0.1,-0.77,2.27
6.182,-3.43,-4.44,-0.65,0.1,-0.77,2.27
6.183,-3.43,-4.44,-0.65,0.1,-0.77,2.27
6.19,-3.43,-4.44,-0.65,0.64,-0.62,1.95
6.191,-3.43,-4.44,-0.65,0.64,-0.62,1.95
6.191,-5.13,-7.23,-0.9,0.64,-0.62,1.95
6.192,-5.13,-7.23,-0.9,0.64,-0.62,1.95
6.2,-5.13,-7.23,-0.9,0.89,-0.46,1.69
6.201,-5.13,-7.23,-0.9,0.89,-0.46,1.69
6.201,-5.37,-8.89,-1.04,0.89,-0.46,1.69
6.201,-5.37,-8.89,-1.04,0.89,-0.46,1.69
6.21,-5.37,-8.89,-1.04,0.92,-0.34,1.57
6.211,-5.37,-8.89,-1.04,0.92,-0.34,1.57
6.211,-5.01,-8.81,-1.24,0.92,-0.34,1.57
6.212,-5.01,-8.81,-1.24,0.92,-0.34,1.57
6.219,-5.01,-8.81,-1.24,0.85,-0.31,1.52
6.22,-5.01,-8.81,-1.24,0.85,-0.31,1.52
6.22,-1.3,-6.48,-1.35,0.85,-0.31,1.52
6.221,-1.3,-6.48,-1.35,0.85,-0.31,1.52
6.228,-1.3,-6.48,-1.35,0.72,-0.21,1.38
6.229,-1.3,-6.48,-1.35,0.72,-0.21,1.38
6.229,2.03,-3.58,-1.19,0.72,-0.21,1.38
6.23,2.03,-3.58,-1.19,0.72,-0.21,1.38
6.238,2.03,-3.58,-1.19,0.57,-0.02,1
6.239,2.03,-3.58,-1.19,0.57,-0.02,1
6.239,3.67,-1.35,0.59,0.57,-0.02,1
6.24,3.67,-1.35,0.59,0.57,-0.02,1
6.251,3.67,-1.35,0.59,0.44,0.06,0.3
6.253,3.67,-1.35,0.59,0.44,0.06,0.3
6.255,5.42,-0.93,2.5,0.44,0.06,0.3
6.256,5.42,-0.93,2.5,0.44,0.06,0.3
6.256,5.42,-0.93,2.5,0.28,0.06,-0.67
6.257,5.42,-0.93,2.5,0.28,0.06,-0.67
6.257,5.76,-0.44,4.21,0.28,0.06,-0.67
6.257,5.76,-0.44,4.21,0.28,0.06,-0.67
6.266,5.76,-0.44,4.21,0.42,0.01,-1.8
6.267,5.76,-0.44,4.21,0.42,0.01,-1.8
6.267,5.79,-0.24,4.64,0.42,0.01,-1.8
6.268,5.79,-0.24,4.64,0.42,0.01,-1.8
6.277,5.79,-0.24,4.64,1.04,-0.03,-2.92
6.277,5.79,-0.24,4.64,1.04,-0.03,-2.92
6.278,5.34,-0.35,5.15,1.04,-0.03,-2.92
6.278,5.34,-0.35,5.15,1.04,-0.03,-2.92
6.285,5.34,-0.35,5.15,1.82,0,-3.87
6.286,5.34,-0.35,5.15,1.82,0,-3.87
6.287,3.62,-0.59,5.42,1.82,0,-3.87
6.287,3.62,-0.59,5.42,1.82,0,-3.87
6.295,3.62,-0.59,5.42,1.74,0.01,-4.47
6.296,3.62,-0.59,5.42,1.74,0.01,-4.47
6.296,1.61,-0.75,5.23,1.74,0.01,-4.47
6.297,1.61,-0.75,5.23,1.74,0.01,-4.47
6.304,1.61,-0.75,5.23,1.62,-0.04,-4.57
6.305,1.61,-0.75,5.23,1.62,-0.04,-4.57
6.306,1.2,-0.67,3.37,1.62,-0.04,-4.57
6.306,1.2,-0.67,3.37,1.62,-0.04,-4.57
6.314,1.2,-0.67,3.37,2.18,-0.06,-4.16
6.316,1.2,-0.67,3.37,2.18,-0.06,-4.16
6.316,-0.56,-0.37,1.82,2.18,-0.06,-4.16
6.317,-0.56,-0.37,1.82,2.18,-0.06,-4.16
6.323,-0.56,-0.37,1.82,2.35,-0.03,-3.34
6.324,-0.56,-0.37,1.82,2.35,-0.03,-3.34
6.325,-0.93,0.02,0.16,2.35,-0.03,-3.34
6.325,-0.93,0.02,0.16,2.35,-0.03,-3.34
6.333,-0.93,0.02,0.16,2.09,0.05,-2.32
6.334,-0.93,0.02,0.16,2.09,0.05,-2.32
6.335,-2.41,0.41,-1.43,2.09,0.05,-2.32
6.336,-2.41,0.41,-1.43,2.09,0.05,-2.32
6.347,-2.41,0.41,-1.43,1.65,0.05,-1.23
6.348,-2.41,0.41,-1.43,1.65,0.05,-1.23
6.349,-4.1,0.79,-1.78,1.65,0.05,-1.23
6.349,-4.1,0.79,-1.78,1.65,0.05,-1.23
6.352,-4.1,0.79,-1.78,0.89,0.09,-0.1
6.353,-4.1,0.79,-1.78,0.89,0.09,-0.1
6.354,-4.35,1.13,-2.12,0.89,0.09,-0.1
6.354,-4.35,1.13,-2.12,0.89,0.09,-0.1
6.365,-4.35,1.13,-2.12,0.89,0.09,-0.1
6.366,-4.35,1.13,-2.12,0.89,0.09,-0.1
6.366,-4.35,1.13,-2.12,0.89,0.09,-0.1
6.366,-4.35,1.13,-2.12,0.89,0.09,-0.1
6.371,-4.35,1.13,-2.12,-0.22,0.26,1.07
6.372,-4.35,1.13,-2.12,-0.22,0.26,1.07
6.372,-4.44,1.73,-0.12,-0.22,0.26,1.07
6.373,-4.44,1.73,-0.12,-0.22,0.26,1.07
6.38,-4.44,1.73,-0.12,-0.56,0.33,2.22
6.382,-4.44,1.73,-0.12,-0.56,0.33,2.22
6.382,-2.68,1.86,0.32,-0.56,0.33,2.22
6.383,-2.68,1.86,0.32,-0.56,0.33,2.22
6.391,-2.68,1.86,0.32,-0.2,0.28,3.16
6.391,-2.68,1.86,0.32,-0.2,0.28,3.16
6.392,-2.13,1.85,0.86,-0.2,0.28,3.16
6.393,-2.13,1.85,0.86,-0.2,0.28,3.16
6.4,-2.13,1.85,0.86,-0.12,0.23,3.66
6.401,-2.13,1.85,0.86,-0.12,0.23,3.66
6.402,-0.37,1.66,1.15,-0.12,0.23,3.66
6.402,-0.37,1.66,1.15,-0.12,0.23,3.66
6.41,-0.37,1.66,1.15,-0.12,0.21,3.65
6.411,-0.37,1.66,1.15,-0.12,0.21,3.65
6.412,0.19,1.32,1.05,-0.12,0.21,3.65
6.412,0.19,1.32,1.05,-0.12,0.21,3.65
6.42,0.19,1.32,1.05,0.04,0.15,3.17
6.42,0.19,1.32,1.05,0.04,0.15,3.17
6.421,0.77,0.84,0.73,0.04,0.15,3.17
6.422,0.77,0.84,0.73,0.04,0.15,3.17
6.427,0.77,0.84,0.73,0.21,0.06,2.37
6.428,0.77,0.84,0.73,0.21,0.06,2.37
6.429,1.27,0.33,0.37,0.21,0.06,2.37
6.43,1.27,0.33,0.37,0.21,0.06,2.37
6.437,1.27,0.33,0.37,0.29,-0.05,1.43
6.438,1.27,0.33,0.37,0.29,-0.05,1.43
6.439,1.62,-0.13,0.03,0.29,-0.05,1.43
6.441,1.62,-0.13,0.03,0.29,-0.05,1.43
6.451,1.62,-0.13,0.03,0.25,-0.19,0.49
6.452,1.62,-0.13,0.03,0.25,-0.19,0.49
6.452,1.83,-0.48,-0.18,0.25,-0.19,0.49
6.453,1.83,-0.48,-0.18,0.25,-0.19,0.49
6.456,1.83,-0.48,-0.18,0.09,-0.28,-0.33
6.457,1.83,-0.48,-0.18,0.09,-0.28,-0.33
6.457,1.96,-0.68,-0.34,0.09,-0.28,-0.33
6.457,1.96,-0.68,-0.34,0.09,-0.28,-0.33
6.469,1.96,-0.68,-0.34,-0.14,-0.36,-0.98
6.47,1.96,-0.68,-0.34,-0.14,-0.36,-0.98
6.47,2.01,-0.74,-0.5,-0.14,-0.36,-0.98
6.47,2.01,-0.74,-0.5,-0.14,-0.36,-0.98
6.476,2.01,-0.74,-0.5,-0.37,-0.42,-1.46
6.477,2.01,-0.74,-0.5,-0.37,-0.42,-1.46
6.478,1.99,-0.67,-0.62,-0.37,-0.42,-1.46
6.478,1.99,-0.67,-0.62,-0.37,-0.42,-1.46
6.497,1.99,-0.67,-0.62,-0.57,-0.48,-1.74
6.499,1.99,-0.67,-0.62,-0.57,-0.48,-1.74
6.5,1.95,-0.59,-0.68,-0.57,-0.48,-1.74
6.501,1.95,-0.59,-0.68,-0.57,-0.48,-1.74
6.502,1.95,-0.59,-0.68,-0.57,-0.48,-1.74
6.503,1.95,-0.59,-0.68,-0.57,-0.48,-1.74
6.504,1.95,-0.59,-0.68,-0.57,-0.48,-1.74
6.505,1.95,-0.59,-0.68,-0.57,-0.48,-1.74
6.506,1.95,-0.59,-0.68,-0.81,-0.54,-1.89
6.507,1.95,-0.59,-0.68,-0.81,-0.54,-1.89
6.508,1.84,-0.48,-0.56,-0.81,-0.54,-1.89
6.509,1.84,-0.48,-0.56,-0.81,-0.54,-1.89
6.513,1.84,-0.48,-0.56,-0.83,-0.55,-1.82
6.515,1.84,-0.48,-0.56,-0.83,-0.55,-1.82
6.515,1.93,-0.49,-0.55,-0.83,-0.55,-1.82
6.516,1.93,-0.49,-0.55,-0.83,-0.55,-1.82
6.523,1.93,-0.49,-0.55,-0.8,-0.53,-1.71
6.524,1.93,-0.49,-0.55,-0.8,-0.53,-1.71
6.525,2.09,-0.5,-0.66,-0.8,-0.53,-1.71
6.525,2.09,-0.5,-0.66,-0.8,-0.53,-1.71
6.533,2.09,-0.5,-0.66,-0.74,-0.51,-1.58
6.534,2.09,-0.5,-0.66,-0.74,-0.51,-1.58
6.535,2.37,-0.47,-0.93,-0.74,-0.51,-1.58
6.536,2.37,-0.47,-0.93,-0.74,-0.51,-1.58
6.548,2.37,-0.47,-0.93,-0.68,-0.5,-1.49
6.548,2.37,-0.47,-0.93,-0.68,-0.5,-1.49
6.549,2.72,-0.35,-1.32,-0.68,-0.5,-1.49
6.55,2.72,-0.35,-1.32,-0.68,-0.5,-1.49
6.552,2.72,-0.35,-1.32,-0.68,-0.5,-1.49
6.553,2.72,-0.35,-1.32,-0.68,-0.5,-1.49
6.553,2.72,-0.35,-1.32,-0.68,-0.5,-1.49
6.554,2.72,-0.35,-1.32,-0.68,-0.5,-1.49
6.565,2.72,-0.35,-1.32,-0.65,-0.5,-1.45
6.566,2.72,-0.35,-1.32,-0.65,-0.5,-1.45
6.566,3.43,0.11,-2.11,-0.65,-0.5,-1.45
6.567,3.43,0.11,-2.11,-0.65,-0.5,-1.45
6.57,3.43,0.11,-2.11,-0.69,-0.54,-1.49
6.571,3.43,0.11,-2.11,-0.69,-0.54,-1.49
6.571,3.54,0.42,-2.41,-0.69,-0.54,-1.49
6.572,3.54,0.42,-2.41,-0.69,-0.54,-1.49
6.58,3.54,0.42,-2.41,-0.84,-0.61,-1.62
6.581,3.54,0.42,-2.41,-0.84,-0.61,-1.62
6.582,3.42,0.76,-2.64,-0.84,-0.61,-1.62
6.582,3.42,0.76,-2.64,-0.84,-0.61,-1.62
6.591,3.42,0.76,-2.64,-1.06,-0.7,-1.81
6.591,3.42,0.76,-2.64,-1.06,-0.7,-1.81
6.592,3.06,1.09,-2.83,-1.06,-0.7,-1.81
6.592,3.06,1.09,-2.83,-1.06,-0.7,-1.81
6.599,3.06,1.09,-2.83,-1.31,-0.8,-1.97
6.6,3.06,1.09,-2.83,-1.31,-0.8,-1.97
6.601,2.5,1.46,-3,-1.31,-0.8,-1.97
6.602,2.5,1.46,-3,-1.31,-0.8,-1.97
6.61,2.5,1.46,-3,-1.54,-0.87,-2.02
6.61,2.5,1.46,-3,-1.54,-0.87,-2.02
6.611,1.87,1.81,-3.06,-1.54,-0.87,-2.02
6.611,1.87,1.81,-3.06,-1.54,-0.87,-2.02
6.619,1.87,1.81,-3.06,-1.74,-0.9,-1.92
6.62,1.87,1.81,-3.06,-1.74,-0.9,-1.92
6.62,0.15,2.09,-2.83,-1.74,-0.9,-1.92
6.621,0.15,2.09,-2.83,-1.74,-0.9,-1.92
6.628,0.15,2.09,-2.83,-1.89,-0.89,-1.61
6.628,0.15,2.09,-2.83,-1.89,-0.89,-1.61
6.629,-0.19,2.33,-2.3,-1.89,-0.89,-1.61
6.629,-0.19,2.33,-2.3,-1.89,-0.89,-1.61
6.637,-0.19,2.33,-2.3,-1.99,-0.81,-1.07
6.638,-0.19,2.33,-2.3,-1.99,-0.81,-1.07
6.639,-0.79,2.45,-0.7,-1.99,-0.81,-1.07
6.639,-0.79,2.45,-0.7,-1.99,-0.81,-1.07
6.65,-0.79,2.45,-0.7,-1.94,-0.64,-0.32
6.651,-0.79,2.45,-0.7,-1.94,-0.64,-0.32
6.652,-2.31,2.55,-0.22,-1.94,-0.64,-0.32
6.652,-2.31,2.55,-0.22,-1.94,-0.64,-0.32
6.659,-2.31,2.55,-0.22,-1.65,-0.35,0.56
6.659,-2.31,2.55,-0.22,-1.65,-0.35,0.56
6.66,-2.71,2.73,0.37,-1.65,-0.35,0.56
6.661,-2.71,2.73,0.37,-1.65,-0.35,0.56
6.665,-2.71,2.73,0.37,-1.08,0.05,1.53
6.666,-2.71,2.73,0.37,-1.08,0.05,1.53
6.667,-3.06,3.02,0.99,-1.08,0.05,1.53
6.667,-3.06,3.02,0.99,-1.08,0.05,1.53
6.68,-3.06,3.02,0.99,-0.31,0.5,2.51
6.682,-3.06,3.02,0.99,-0.31,0.5,2.51
6.682,-3.17,3.39,1.6,-0.31,0.5,2.51
6.683,-3.17,3.39,1.6,-0.31,0.5,2.51
6.684,-3.17,3.39,1.6,0.56,0.9,3.38
6.685,-3.17,3.39,1.6,0.56,0.9,3.38
6.685,-2.92,3.74,2.18,0.56,0.9,3.38
6.686,-2.92,3.74,2.18,0.56,0.9,3.38
6.702,-2.92,3.74,2.18,2.31,1.24,4.27
6.703,-2.92,3.74,2.18,2.31,1.24,4.27
6.703,-2.59,3.94,2.64,2.31,1.24,4.27
6.704,-2.59,3.94,2.64,2.31,1.24,4.27
6.704,-2.59,3.94,2.64,2.31,1.24,4.27
6.705,-2.59,3.94,2.64,2.31,1.24,4.27
6.705,-2.59,3.94,2.64,2.31,1.24,4.27
6.706,-2.59,3.94,2.64,2.31,1.24,4.27
6.713,-2.59,3.94,2.64,3.08,1.15,4.21
6.714,-2.59,3.94,2.64,3.08,1.15,4.21
6.714,-0.9,3.45,2.78,3.08,1.15,4.21
6.714,-0.9,3.45,2.78,3.08,1.15,4.21
6.723,-0.9,3.45,2.78,3.68,0.93,3.84
6.723,-0.9,3.45,2.78,3.68,0.93,3.84
6.724,-0.62,1.51,2.38,3.68,0.93,3.84
6.724,-0.62,1.51,2.38,3.68,0.93,3.84
6.732,-0.62,1.51,2.38,4.01,0.77,3.13
6.733,-0.62,1.51,2.38,4.01,0.77,3.13
6.734,-0.38,1.08,0.88,4.01,0.77,3.13
6.734,-0.38,1.08,0.88,4.01,0.77,3.13
6.747,-0.38,1.08,0.88,4.01,0.77,3.13
6.748,-0.38,1.08,0.88,4.01,0.77,3.13
6.748,-0.38,1.08,0.88,4.01,0.77,3.13
6.749,-0.38,1.08,0.88,4.01,0.77,3.13
6.754,-0.38,1.08,0.88,3.35,0.3,0.93
6.755,-0.38,1.08,0.88,3.35,0.3,0.93
6.755,-0.2,-0.09,0.1,3.35,0.3,0.93
6.756,-0.2,-0.09,0.1,3.35,0.3,0.93
6.76,-0.2,-0.09,0.1,3.35,0.3,0.93
6.761,-0.2,-0.09,0.1,3.35,0.3,0.93
6.762,-0.2,-0.09,0.1,3.35,0.3,0.93
6.762,-0.2,-0.09,0.1,3.35,0.3,0.93
6.77,-0.2,-0.09,0.1,2.39,0.15,-0.1
6.771,-0.2,-0.09,0.1,2.39,0.15,-0.1
6.771,-0.58,-0.14,0.12,2.39,0.15,-0.1
6.772,-0.58,-0.14,0.12,2.39,0.15,-0.1
6.779,-0.58,-0.14,0.12,1.32,0.09,-0.84
6.78,-0.58,-0.14,0.12,1.32,0.09,-0.84
6.781,-0.87,0.23,0.14,1.32,0.09,-0.84
6.782,-0.87,0.23,0.14,1.32,0.09,-0.84
6.79,-0.87,0.23,0.14,0.46,0.09,-0.86
6.79,-0.87,0.23,0.14,0.46,0.09,-0.86
6.791,-1.06,0.58,-0.07,0.46,0.09,-0.86
6.792,-1.06,0.58,-0.07,0.46,0.09,-0.86
6.799,-1.06,0.58,-0.07,-0.13,0.12,-0.67
6.8,-1.06,0.58,-0.07,-0.13,0.12,-0.67
6.8,-1.09,0.79,-0.42,-0.13,0.12,-0.67
6.801,-1.09,0.79,-0.42,-0.13,0.12,-0.67
6.809,-1.09,0.79,-0.42,-0.52,0.2,-0.72
6.811,-1.09,0.79,-0.42,-0.52,0.2,-0.72
6.811,-0.95,0.81,-0.62,-0.52,0.2,-0.72
6.812,-0.95,0.81,-0.62,-0.52,0.2,-0.72
6.82,-0.95,0.81,-0.62,-0.8,0.28,-0.67
6.82,-0.95,0.81,-0.62,-0.8,0.28,-0.67
6.821,-0.71,0.71,-0.52,-0.8,0.28,-0.67
6.822,-0.71,0.71,-0.52,-0.8,0.28,-0.67
6.827,-0.71,0.71,-0.52,-1.04,0.36,-0.59
6.828,-0.71,0.71,-0.52,-1.04,0.36,-0.59
6.829,-0.5,0.52,-0.18,-1.04,0.36,-0.59
6.83,-0.5,0.52,-0.18,-1.04,0.36,-0.59
6.837,-0.5,0.52,-0.18,-1.21,0.4,-0.54
6.837,-0.5,0.52,-0.18,-1.21,0.4,-0.54
6.838,-0.26,0.21,0.27,-1.21,0.4,-0.54
6.839,-0.26,0.21,0.27,-1.21,0.4,-0.54
6.849,-0.26,0.21,0.27,-1.25,0.41,-0.55
6.85,-0.26,0.21,0.27,-1.25,0.41,-0.55
6.85,0.03,-0.32,0.52,-1.25,0.41,-0.55
6.851,0.03,-0.32,0.52,-1.25,0.41,-0.55
6.856,0.03,-0.32,0.52,-1.15,0.39,-0.62
6.857,0.03,-0.32,0.52,-1.15,0.39,-0.62
6.858,0.38,-2.13,0.38,-1.15,0.39,-0.62
6.858,0.38,-2.13,0.38,-1.15,0.39,-0.62
6.865,0.38,-2.13,0.38,-0.95,0.36,-0.73
6.866,0.38,-2.13,0.38,-0.95,0.36,-0.73
6.866,0.87,-3.88,-0.17,-0.95,0.36,-0.73
6.867,0.87,-3.88,-0.17,-0.95,0.36,-0.73
6.875,0.87,-3.88,-0.17,-0.73,0.33,-0.86
6.877,0.87,-3.88,-0.17,-0.73,0.33,-0.86
6.877,1.47,-5.52,-1.95,-0.73,0.33,-0.86
6.878,1.47,-5.52,-1.95,-0.73,0.33,-0.86
6.884,1.47,-5.52,-1.95,-0.65,0.3,-1.02
6.885,1.47,-5.52,-1.95,-0.65,0.3,-1.02
6.886,2.01,-6.01,-3.6,-0.65,0.3,-1.02
6.887,2.01,-6.01,-3.6,-0.65,0.3,-1.02
6.897,2.01,-6.01,-3.6,-0.82,0.25,-1.18
6.898,2.01,-6.01,-3.6,-0.82,0.25,-1.18
6.899,2.27,-6.28,-3.87,-0.82,0.25,-1.18
6.9,2.27,-6.28,-3.87,-0.82,0.25,-1.18
6.907,2.27,-6.28,-3.87,-1.22,0.17,-1.34
6.907,2.27,-6.28,-3.87,-1.22,0.17,-1.34
6.908,2.18,-6.13,-4.28,-1.22,0.17,-1.34
6.908,2.18,-6.13,-4.28,-1.22,0.17,-1.34
6.914,2.18,-6.13,-4.28,-1.7,0.09,-1.44
6.915,2.18,-6.13,-4.28,-1.7,0.09,-1.44
6.915,1.67,-5.7,-4.75,-1.7,0.09,-1.44
6.916,1.67,-5.7,-4.75,-1.7,0.09,-1.44
6.923,1.67,-5.7,-4.75,-2.1,0.03,-1.46
6.924,1.67,-5.7,-4.75,-2.1,0.03,-1.46
6.924,0.08,-5.26,-5.06,-2.1,0.03,-1.46
6.925,0.08,-5.26,-5.06,-2.1,0.03,-1.46
6.932,0.08,-5.26,-5.06,-2.35,0,-1.35
6.933,0.08,-5.26,-5.06,-2.35,0,-1.35
6.933,-0.37,-5.01,-5.1,-2.35,0,-1.35
6.934,-0.37,-5.01,-5.1,-2.35,0,-1.35
6.946,-0.37,-5.01,-5.1,-2.5,-0.01,-1.06
6.947,-0.37,-5.01,-5.1,-2.5,-0.01,-1.06
6.947,-0.86,-4.96,-4.88,-2.5,-0.01,-1.06
6.948,-0.86,-4.96,-4.88,-2.5,-0.01,-1.06
6.955,-0.86,-4.96,-4.88,-2.55,-0.01,-0.64
6.956,-0.86,-4.96,-4.88,-2.55,-0.01,-0.64
6.956,-1.2,-5.11,-4.46,-2.55,-0.01,-0.64
6.956,-1.2,-5.11,-4.46,-2.55,-0.01,-0.64
6.96,-1.2,-5.11,-4.46,-2.55,-0.01,-0.64
6.961,-1.2,-5.11,-4.46,-2.55,-0.01,-0.64
6.961,-1.2,-5.11,-4.46,-2.55,-0.01,-0.64
6.961,-1.2,-5.11,-4.46,-2.55,-0.01,-0.64
6.969,-1.2,-5.11,-4.46,-2.51,-0.01,-0.15
6.97,-1.2,-5.11,-4.46,-2.51,-0.01,-0.15
6.97,-0.99,-5.51,-3.46,-2.51,-0.01,-0.15
6.97,-0.99,-5.51,-3.46,-2.51,-0.01,-0.15
6.979,-0.99,-5.51,-3.46,-2.32,-0.01,0.28
6.979,-0.99,-5.51,-3.46,-2.32,-0.01,0.28
6.98,-0.47,-5.46,-3,-2.32,-0.01,0.28
6.98,-0.47,-5.46,-3,-2.32,-0.01,0.28
6.988,-0.47,-5.46,-3,-2,-0.01,0.59
6.989,-0.47,-5.46,-3,-2,-0.01,0.59
6.989,0.08,-5.03,-2.53,-2,-0.01,0.59
6.989,0.08,-5.03,-2.53,-2,-0.01,0.59
6.998,0.08,-5.03,-2.53,-1.56,-0.01,0.75
6.999,0.08,-5.03,-2.53,-1.56,-0.01,0.75
7,0.47,-3.49,-2.09,-1.56,-0.01,0.75
7.001,0.47,-3.49,-2.09,-1.56,-0.01,0.75
7.009,0.47,-3.49,-2.09,-1.09,-0.03,0.75
7.01,0.47,-3.49,-2.09,-1.09,-0.03,0.75
7.01,0.5,-1.56,-1.66,-1.09,-0.03,0.75
7.011,0.5,-1.56,-1.66,-1.09,-0.03,0.75
7.02,0.5,-1.56,-1.66,-0.67,-0.05,0.61
7.021,0.5,-1.56,-1.66,-0.67,-0.05,0.61
7.022,0.2,-1.14,-1.24,-0.67,-0.05,0.61
7.022,0.2,-1.14,-1.24,-0.67,-0.05,0.61
7.028,0.2,-1.14,-1.24,-0.32,-0.07,0.43
7.029,0.2,-1.14,-1.24,-0.32,-0.07,0.43
7.029,-0.31,0.64,-0.87,-0.32,-0.07,0.43
7.029,-0.31,0.64,-0.87,-0.32,-0.07,0.43
7.038,-0.31,0.64,-0.87,-0.04,-0.1,0.27
7.038,-0.31,0.64,-0.87,-0.04,-0.1,0.27
7.039,-0.93,0.93,-0.57,-0.04,-0.1,0.27
7.039,-0.93,0.93,-0.57,-0.04,-0.1,0.27
7.046,-0.93,0.93,-0.57,0.2,-0.14,0.21
7.047,-0.93,0.93,-0.57,0.2,-0.14,0.21
7.047,-1.51,1.38,-0.41,0.2,-0.14,0.21
7.048,-1.51,1.38,-0.41,0.2,-0.14,0.21
7.058,-1.51,1.38,-0.41,0.4,-0.19,0.28
7.059,-1.51,1.38,-0.41,0.4,-0.19,0.28
7.06,-1.98,1.8,-0.38,0.4,-0.19,0.28
7.06,-1.98,1.8,-0.38,0.4,-0.19,0.28
7.066,-1.98,1.8,-0.38,0.58,-0.25,0.5
7.067,-1.98,1.8,-0.38,0.58,-0.25,0.5
7.067,-2.3,2.08,-0.44,0.58,-0.25,0.5
7.067,-2.3,2.08,-0.44,0.58,-0.25,0.5
7.075,-2.3,2.08,-0.44,0.71,-0.33,0.82
7.076,-2.3,2.08,-0.44,0.71,-0.33,0.82
7.076,-2.42,2.21,-0.57,0.71,-0.33,0.82
7.076,-2.42,2.21,-0.57,0.71,-0.33,0.82
7.083,-2.42,2.21,-0.57,0.77,-0.41,1.2
7.084,-2.42,2.21,-0.57,0.77,-0.41,1.2
7.084,-2.32,2.23,-0.7,0.77,-0.41,1.2
7.084,-2.32,2.23,-0.7,0.77,-0.41,1.2
7.093,-2.32,2.23,-0.7,0.77,-0.49,1.55
7.094,-2.32,2.23,-0.7,0.77,-0.49,1.55
7.094,-1.97,2.15,-0.79,0.77,-0.49,1.55
7.095,-1.97,2.15,-0.79,0.77,-0.49,1.55
7.103,-1.97,2.15,-0.79,0.69,-0.54,1.82
7.104,-1.97,2.15,-0.79,0.69,-0.54,1.82
7.104,-1.47,2.04,-0.79,0.69,-0.54,1.82
7.105,-1.47,2.04,-0.79,0.69,-0.54,1.82
7.112,-1.47,2.04,-0.79,0.56,-0.58,1.93
7.113,-1.47,2.04,-0.79,0.56,-0.58,1.93
7.113,-0.86,2,-0.67,0.56,-0.58,1.93
7.114,-0.86,2,-0.67,0.56,-0.58,1.93
7.122,-0.86,2,-0.67,0.42,-0.6,1.84
7.123,-0.86,2,-0.67,0.42,-0.6,1.84
7.123,-0.3,2.06,-0.45,0.42,-0.6,1.84
7.124,-0.3,2.06,-0.45,0.42,-0.6,1.84
7.131,-0.3,2.06,-0.45,0.42,-0.6,1.84
7.132,-0.3,2.06,-0.45,0.42,-0.6,1.84
7.132,-0.3,2.06,-0.45,0.42,-0.6,1.84
7.132,-0.3,2.06,-0.45,0.42,-0.6,1.84
7.144,-0.3,2.06,-0.45,0.29,-0.59,1.53
7.145,-0.3,2.06,-0.45,0.29,-0.59,1.53
7.145,0.3,2.46,0.03,0.29,-0.59,1.53
7.146,0.3,2.46,0.03,0.29,-0.59,1.53
7.15,0.3,2.46,0.03,0.24,-0.58,1.05
7.151,0.3,2.46,0.03,0.24,-0.58,1.05
7.151,0.26,2.79,0.21,0.24,-0.58,1.05
7.152,0.26,2.79,0.21,0.24,-0.58,1.05
7.16,0.26,2.79,0.21,0.27,-0.56,0.47
7.16,0.26,2.79,0.21,0.27,-0.56,0.47
7.161,-0.01,3.11,0.34,0.27,-0.56,0.47
7.161,-0.01,3.11,0.34,0.27,-0.56,0.47
7.169,-0.01,3.11,0.34,0.37,-0.55,-0.08
7.17,-0.01,3.11,0.34,0.37,-0.55,-0.08
7.17,-0.43,3.44,0.43,0.37,-0.55,-0.08
7.17,-0.43,3.44,0.43,0.37,-0.55,-0.08
7.179,-0.43,3.44,0.43,0.5,-0.58,-0.49
7.18,-0.43,3.44,0.43,0.5,-0.58,-0.49
7.18,-0.9,3.72,0.52,0.5,-0.58,-0.49
7.18,-0.9,3.72,0.52,0.5,-0.58,-0.49
7.188,-0.9,3.72,0.52,0.62,-0.61,-0.67
7.189,-0.9,3.72,0.52,0.62,-0.61,-0.67
7.19,-1.35,3.87,0.57,0.62,-0.61,-0.67
7.19,-1.35,3.87,0.57,0.62,-0.61,-0.67
7.198,-1.35,3.87,0.57,0.7,-0.67,-0.59
7.199,-1.35,3.87,0.57,0.7,-0.67,-0.59
7.2,-1.65,3.94,0.57,0.7,-0.67,-0.59
7.201,-1.65,3.94,0.57,0.7,-0.67,-0.59
7.209,-1.65,3.94,0.57,0.75,-0.78,-0.3
7.211,-1.65,3.94,0.57,0.75,-0.78,-0.3
7.211,-1.75,3.92,0.57,0.75,-0.78,-0.3
7.213,-1.75,3.92,0.57,0.75,-0.78,-0.3
7.218,-1.75,3.92,0.57,0.75,-0.87,0.12
7.218,-1.75,3.92,0.57,0.75,-0.87,0.12
7.219,-1.68,3.85,0.54,0.75,-0.87,0.12
7.22,-1.68,3.85,0.54,0.75,-0.87,0.12
7.227,-1.68,3.85,0.54,0.71,-0.93,0.55
7.227,-1.68,3.85,0.54,0.71,-0.93,0.55
7.228,-1.53,3.78,0.53,0.71,-0.93,0.55
7.229,-1.53,3.78,0.53,0.71,-0.93,0.55
7.236,-1.53,3.78,0.53,0.64,-0.94,0.91
7.236,-1.53,3.78,0.53,0.64,-0.94,0.91
7.237,-1.33,3.68,0.55,0.64,-0.94,0.91
7.238,-1.33,3.68,0.55,0.64,-0.94,0.91
7.248,-1.33,3.68,0.55,0.55,-0.92,1.11
7.25,-1.33,3.68,0.55,0.55,-0.92,1.11
7.25,-1.15,3.57,0.56,0.55,-0.92,1.11
7.251,-1.15,3.57,0.56,0.55,-0.92,1.11
7.256,-1.15,3.57,0.56,0.45,-0.84,1.16
7.257,-1.15,3.57,0.56,0.45,-0.84,1.16
7.257,-1.01,3.45,0.52,0.45,-0.84,1.16
7.258,-1.01,3.45,0.52,0.45,-0.84,1.16
7.264,-1.01,3.45,0.52,0.36,-0.72,1.08
7.265,-1.01,3.45,0.52,0.36,-0.72,1.08
7.266,-0.84,3.32,0.44,0.36,-0.72,1.08
7.266,-0.84,3.32,0.44,0.36,-0.72,1.08
7.275,-0.84,3.32,0.44,0.27,-0.57,0.89
7.276,-0.84,3.32,0.44,0.27,-0.57,0.89
7.277,-0.66,3.15,0.3,0.27,-0.57,0.89
7.277,-0.66,3.15,0.3,0.27,-0.57,0.89
7.284,-0.66,3.15,0.3,0.18,-0.41,0.66
7.285,-0.66,3.15,0.3,0.18,-0.41,0.66
7.285,-0.44,2.91,0.1,0.18,-0.41,0.66
7.286,-0.44,2.91,0.1,0.18,-0.41,0.66
7.293,-0.44,2.91,0.1,0.06,-0.23,0.39
7.294,-0.44,2.91,0.1,0.06,-0.23,0.39
7.294,-0.14,2.54,-0.21,0.06,-0.23,0.39
7.295,-0.14,2.54,-0.21,0.06,-0.23,0.39
7.302,-0.14,2.54,-0.21,-0.09,-0.13,0.11
7.303,-0.14,2.54,-0.21,-0.09,-0.13,0.11
7.304,0.3,2.02,-0.68,-0.09,-0.13,0.11
7.304,0.3,2.02,-0.68,-0.09,-0.13,0.11
7.313,0.3,2.02,-0.68,-0.3,0,-0.21
7.314,0.3,2.02,-0.68,-0.3,0,-0.21
7.315,0.94,1.37,-2.34,-0.3,0,-0.21
7.315,0.94,1.37,-2.34,-0.3,0,-0.21
7.322,0.94,1.37,-2.34,-0.63,0.23,-0.57
7.323,0.94,1.37,-2.34,-0.63,0.23,-0.57
7.323,2.55,0.76,-2.61,-0.63,0.23,-0.57
7.324,2.55,0.76,-2.61,-0.63,0.23,-0.57
7.331,2.55,0.76,-2.61,-0.63,0.23,-0.57
7.332,2.55,0.76,-2.61,-0.63,0.23,-0.57
7.333,2.55,0.76,-2.61,-0.63,0.23,-0.57
7.333,2.55,0.76,-2.61,-0.63,0.23,-0.57
7.345,2.55,0.76,-2.61,-1.14,0.44,-1.04
7.346,2.55,0.76,-2.61,-1.14,0.44,-1.04
7.347,3.4,0.17,-3.15,-1.14,0.44,-1.04
7.347,3.4,0.17,-3.15,-1.14,0.44,-1.04
7.351,3.4,0.17,-3.15,-1.74,0.61,-1.68
7.352,3.4,0.17,-3.15,-1.74,0.61,-1.68
7.352,3.53,0.27,-3,-1.74,0.61,-1.68
7.352,3.53,0.27,-3,-1.74,0.61,-1.68
7.362,3.53,0.27,-3,-1.8,0.7,-2.41
7.363,3.53,0.27,-3,-1.8,0.7,-2.41
7.363,3.23,0.53,-2.63,-1.8,0.7,-2.41
7.364,3.23,0.53,-2.63,-1.8,0.7,-2.41
7.369,3.23,0.53,-2.63,-1.16,0.7,-3.02
7.37,3.23,0.53,-2.63,-1.16,0.7,-3.02
7.371,1.78,0.85,-2.19,-1.16,0.7,-3.02
7.371,1.78,0.85,-2.19,-1.16,0.7,-3.02
7.379,1.78,0.85,-2.19,-0.54,0.62,-3.31
7.38,1.78,0.85,-2.19,-0.54,0.62,-3.31
7.381,1.24,1.21,-1.87,-0.54,0.62,-3.31
7.381,1.24,1.21,-1.87,-0.54,0.62,-3.31
7.389,1.24,1.21,-1.87,-0.36,0.49,-3.18
7.39,1.24,1.21,-1.87,-0.36,0.49,-3.18
7.391,-0.36,1.56,-1.77,-0.36,0.49,-3.18
7.391,-0.36,1.56,-1.77,-0.36,0.49,-3.18
7.399,-0.36,1.56,-1.77,-0.41,0.31,-2.66
7.4,-0.36,1.56,-1.77,-0.41,0.31,-2.66
7.401,-0.69,1.85,-1.77,-0.41,0.31,-2.66
7.402,-0.69,1.85,-1.77,-0.41,0.31,-2.66
7.407,-0.69,1.85,-1.77,-0.38,0.08,-1.84
7.408,-0.69,1.85,-1.77,-0.38,0.08,-1.84
7.408,-1.01,2.03,-1.77,-0.38,0.08,-1.84
7.409,-1.01,2.03,-1.77,-0.38,0.08,-1.84
7.417,-1.01,2.03,-1.77,-0.31,0.01,-0.89
7.418,-1.01,2.03,-1.77,-0.31,0.01,-0.89
7.419,-1.2,2.11,-1.73,-0.31,0.01,-0.89
7.419,-1.2,2.11,-1.73,-0.31,0.01,-0.89
7.427,-1.2,2.11,-1.73,-0.27,0.09,0.06
7.427,-1.2,2.11,-1.73,-0.27,0.09,0.06
7.428,-1.2,2.09,-1.6,-0.27,0.09,0.06
7.428,-1.2,2.09,-1.6,-0.27,0.09,0.06
7.436,-1.2,2.09,-1.6,-0.25,0.14,0.86
7.437,-1.2,2.09,-1.6,-0.25,0.14,0.86
7.438,-1.04,2.05,-1.39,-0.25,0.14,0.86
7.438,-1.04,2.05,-1.39,-0.25,0.14,0.86
7.448,-1.04,2.05,-1.39,-0.21,0.06,1.45
7.449,-1.04,2.05,-1.39,-0.21,0.06,1.45
7.45,-0.86,2.04,-1.18,-0.21,0.06,1.45
7.45,-0.86,2.04,-1.18,-0.21,0.06,1.45
7.456,-0.86,2.04,-1.18,-0.14,-0.13,1.82
7.457,-0.86,2.04,-1.18,-0.14,-0.13,1.82
7.457,-0.74,1.99,-1.01,-0.14,-0.13,1.82
7.457,-0.74,1.99,-1.01,-0.14,-0.13,1.82
7.471,-0.74,1.99,-1.01,-0.04,-0.17,1.99
7.472,-0.74,1.99,-1.01,-0.04,-0.17,1.99
7.472,-0.73,1.91,-0.88,-0.04,-0.17,1.99
7.472,-0.73,1.91,-0.88,-0.04,-0.17,1.99
7.479,-0.73,1.91,-0.88,0.1,-0.2,2
7.48,-0.73,1.91,-0.88,0.1,-0.2,2
7.481,-0.84,1.77,-0.81,0.1,-0.2,2
7.481,-0.84,1.77,-0.81,0.1,-0.2,2
7.497,-0.84,1.77,-0.81,0.25,-0.32,1.91
7.498,-0.84,1.77,-0.81,0.25,-0.32,1.91
7.498,-0.91,1.51,-0.67,0.25,-0.32,1.91
7.499,-0.91,1.51,-0.67,0.25,-0.32,1.91
7.5,-0.91,1.51,-0.67,0.38,-0.41,1.79
7.5,-0.91,1.51,-0.67,0.38,-0.41,1.79
7.501,-0.88,1.15,-0.36,0.38,-0.41,1.79
7.501,-0.88,1.15,-0.36,0.38,-0.41,1.79
7.502,-0.88,1.15,-0.36,0.51,-0.48,1.67
7.503,-0.88,1.15,-0.36,0.51,-0.48,1.67
7.503,-0.66,0.63,0.06,0.51,-0.48,1.67
7.504,-0.66,0.63,0.06,0.51,-0.48,1.67
7.512,-0.66,0.63,0.06,0.65,-0.54,1.53
7.513,-0.66,0.63,0.06,0.65,-0.54,1.53
7.514,-0.3,-1.4,0.53,0.65,-0.54,1.53
7.515,-0.3,-1.4,0.53,0.65,-0.54,1.53
7.522,-0.3,-1.4,0.53,0.65,-0.54,1.53
7.523,-0.3,-1.4,0.53,0.65,-0.54,1.53
7.524,-0.3,-1.4,0.53,0.65,-0.54,1.53
7.524,-0.3,-1.4,0.53,0.65,-0.54,1.53
7.531,-0.3,-1.4,0.53,0.86,-0.61,1.32
7.532,-0.3,-1.4,0.53,0.86,-0.61,1.32
7.533,0.19,-5.59,0.51,0.86,-0.61,1.32
7.533,0.19,-5.59,0.51,0.86,-0.61,1.32
7.547,0.19,-5.59,0.51,1.17,-0.67,0.97
7.548,0.19,-5.59,0.51,1.17,-0.67,0.97
7.549,0.25,-6.05,0.14,1.17,-0.67,0.97
7.549,0.25,-6.05,0.14,1.17,-0.67,0.97
7.55,0.25,-6.05,0.14,1.52,-0.68,0.52
7.55,0.25,-6.05,0.14,1.52,-0.68,0.52
7.551,0.33,-6.38,-0.14,1.52,-0.68,0.52
7.551,0.33,-6.38,-0.14,1.52,-0.68,0.52
7.563,0.33,-6.38,-0.14,1.75,-0.7,0.02
7.563,0.33,-6.38,-0.14,1.75,-0.7,0.02
7.564,0.54,-6.03,-0.09,1.75,-0.7,0.02
7.564,0.54,-6.03,-0.09,1.75,-0.7,0.02
7.569,0.54,-6.03,-0.09,1.78,-0.72,-0.42
7.57,0.54,-6.03,-0.09,1.78,-0.72,-0.42
7.57,0.89,-3.87,0.48,1.78,-0.72,-0.42
7.57,0.89,-3.87,0.48,1.78,-0.72,-0.42
7.579,0.89,-3.87,0.48,1.66,-0.72,-0.7
7.58,0.89,-3.87,0.48,1.66,-0.72,-0.7
7.58,1.14,-2.03,2.2,1.66,-0.72,-0.7
7.581,1.14,-2.03,2.2,1.66,-0.72,-0.7
7.589,1.14,-2.03,2.2,1.38,-0.68,-0.87
7.59,1.12,-1.65,2.69,1.38,-0.68,-0.87
7.59,1.12,-1.65,2.69,1.38,-0.68,-0.87
7.591,1.12,-1.65,2.69,1.38,-0.68,-0.87
7.597,1.12,-1.65,2.69,1.24,-0.62,-0.97
7.598,1.12,-1.65,2.69,1.24,-0.62,-0.97
7.599,0.78,-1.45,3.29,1.24,-0.62,-0.97
7.599,0.78,-1.45,3.29,1.24,-0.62,-0.97
7.607,0.78,-1.45,3.29,1.41,-0.54,-1.01
7.608,0.78,-1.45,3.29,1.41,-0.54,-1.01
7.609,0.18,-1.56,3.8,1.41,-0.54,-1.01
7.61,0.18,-1.56,3.8,1.41,-0.54,-1.01
7.617,0.18,-1.56,3.8,1.69,-0.45,-0.97
7.618,0.18,-1.56,3.8,1.69,-0.45,-0.97
7.619,-1.28,-1.97,4.05,1.69,-0.45,-0.97
7.619,-1.28,-1.97,4.05,1.69,-0.45,-0.97
7.626,-1.28,-1.97,4.05,2,-0.34,-0.8
7.627,-1.28,-1.97,4.05,2,-0.34,-0.8
7.628,-1.58,-3.85,4.01,2,-0.34,-0.8
7.629,-1.58,-3.85,4.01,2,-0.34,-0.8
7.636,-1.58,-3.85,4.01,2.26,-0.21,-0.47
7.637,-1.58,-3.85,4.01,2.26,-0.21,-0.47
7.637,-1.89,-4.25,3.69,2.26,-0.21,-0.47
7.638,-1.89,-4.25,3.69,2.26,-0.21,-0.47
7.647,-1.89,-4.25,3.69,2.41,-0.04,-0.03
7.648,-1.89,-4.25,3.69,2.41,-0.04,-0.03
7.648,-2.08,-4.83,3.14,2.41,-0.04,-0.03
7.649,-2.08,-4.83,3.14,2.41,-0.04,-0.03
7.655,-2.08,-4.83,3.14,2.39,0.18,0.4
7.656,-2.08,-4.83,3.14,2.39,0.18,0.4
7.656,-1.95,-5.15,1.16,2.39,0.18,0.4
7.657,-1.95,-5.15,1.16,2.39,0.18,0.4
7.664,-1.95,-5.15,1.16,2.16,0.39,0.71
7.665,-1.95,-5.15,1.16,2.16,0.39,0.71
7.665,-1.47,-4.95,-0.69,2.16,0.39,0.71
7.665,-1.47,-4.95,-0.69,2.16,0.39,0.71
7.675,-1.47,-4.95,-0.69,1.67,0.58,0.88
7.676,-1.47,-4.95,-0.69,1.67,0.58,0.88
7.676,0.12,-3.17,-1.09,1.67,0.58,0.88
7.677,0.12,-3.17,-1.09,1.67,0.58,0.88
7.683,0.12,-3.17,-1.09,0.93,0.7,0.9
7.684,0.12,-3.17,-1.09,0.93,0.7,0.9
7.685,0.67,-2.66,-1.03,0.93,0.7,0.9
7.685,0.67,-2.66,-1.03,0.93,0.7,0.9
7.692,0.67,-2.66,-1.03,0.09,0.73,0.74
7.693,0.67,-2.66,-1.03,0.09,0.73,0.74
7.694,1.26,-1.08,2.07,0.09,0.73,0.74
7.694,1.26,-1.08,2.07,0.09,0.73,0.74
7.703,1.26,-1.08,2.07,-0.61,0.65,0.43
7.704,1.26,-1.08,2.07,-0.61,0.65,0.43
7.705,1.67,-0.7,3.98,-0.61,0.65,0.43
7.705,1.67,-0.7,3.98,-0.61,0.65,0.43
7.712,1.67,-0.7,3.98,-0.61,0.65,0.43
7.713,1.67,-0.7,3.98,-0.61,0.65,0.43
7.714,1.67,-0.7,3.98,-0.61,0.65,0.43
7.714,1.67,-0.7,3.98,-0.61,0.65,0.43
7.721,1.67,-0.7,3.98,-0.89,0.5,0.03
7.722,1.67,-0.7,3.98,-0.89,0.5,0.03
7.723,1.96,0.14,6.41,-0.89,0.5,0.03
7.723,1.96,0.14,6.41,-0.89,0.5,0.03
7.731,1.96,0.14,6.41,-0.59,0.33,-0.37
7.732,1.96,0.14,6.41,-0.59,0.33,-0.37
7.732,1.88,0.32,6.72,-0.59,0.33,-0.37
7.733,1.88,0.32,6.72,-0.59,0.33,-0.37
7.747,1.88,0.32,6.72,0.24,0.19,-0.72
7.748,1.88,0.32,6.72,0.24,0.19,-0.72
7.748,1.63,0.32,6.9,0.24,0.19,-0.72
7.749,1.63,0.32,6.9,0.24,0.19,-0.72
7.75,1.63,0.32,6.9,1.34,0.09,-0.99
7.751,1.63,0.32,6.9,1.34,0.09,-0.99
7.752,1.36,0.2,6.91,1.34,0.09,-0.99
7.752,1.36,0.2,6.91,1.34,0.09,-0.99
7.765,1.36,0.2,6.91,2.38,0.03,-1.16
7.765,1.36,0.2,6.91,2.38,0.03,-1.16
7.766,1.18,0.04,6.6,2.38,0.03,-1.16
7.766,1.18,0.04,6.6,2.38,0.03,-1.16
7.769,1.18,0.04,6.6,3.16,-0.02,-1.21
7.769,1.18,0.04,6.6,3.16,-0.02,-1.21
7.77,1.07,-0.06,4.7,3.16,-0.02,-1.21
7.77,1.07,-0.06,4.7,3.16,-0.02,-1.21
7.778,1.07,-0.06,4.7,3.54,-0.04,-1.14
7.779,1.07,-0.06,4.7,3.54,-0.04,-1.14
7.78,1.04,-0.12,4.08,3.54,-0.04,-1.14
7.78,1.04,-0.12,4.08,3.54,-0.04,-1.14
7.788,1.04,-0.12,4.08,3.51,-0.03,-1.01
7.789,1.04,-0.12,4.08,3.51,-0.03,-1.01
7.79,0.98,-0.14,2.11,3.51,-0.03,-1.01
7.79,0.98,-0.14,2.11,3.51,-0.03,-1.01
7.798,0.98,-0.14,2.11,3.05,0.02,-0.86
7.799,0.98,-0.14,2.11,3.05,0.02,-0.86
7.8,0.88,-0.16,1.53,3.05,0.02,-0.86
7.8,0.88,-0.16,1.53,3.05,0.02,-0.86
7.809,0.88,-0.16,1.53,2.26,0.07,-0.72
7.81,0.88,-0.16,1.53,2.26,0.07,-0.72
7.811,0.81,-0.2,1.05,2.26,0.07,-0.72
7.811,0.81,-0.2,1.05,2.26,0.07,-0.72
7.816,0.81,-0.2,1.05,1.3,0.11,-0.59
7.817,0.81,-0.2,1.05,1.3,0.11,-0.59
7.818,0.81,-0.19,0.84,1.3,0.11,-0.59
7.818,0.81,-0.19,0.84,1.3,0.11,-0.59
7.826,0.81,-0.19,0.84,0.34,0.13,-0.47
7.827,0.81,-0.19,0.84,0.34,0.13,-0.47
7.828,0.86,-0.13,1,0.34,0.13,-0.47
7.828,0.86,-0.13,1,0.34,0.13,-0.47
7.836,0.86,-0.13,1,-0.45,0.11,-0.37
7.837,0.86,-0.13,1,-0.45,0.11,-0.37
7.837,0.92,-0.03,1.31,-0.45,0.11,-0.37
7.838,0.92,-0.03,1.31,-0.45,0.11,-0.37
7.845,0.92,-0.03,1.31,-0.98,0.07,-0.29
7.846,0.92,-0.03,1.31,-0.98,0.07,-0.29
7.846,0.96,0.09,1.55,-0.98,0.07,-0.29
7.847,0.96,0.09,1.55,-0.98,0.07,-0.29
7.855,0.96,0.09,1.55,-1.25,0.03,-0.25
7.856,0.96,0.09,1.55,-1.25,0.03,-0.25
7.856,0.97,0.23,1.62,-1.25,0.03,-0.25
7.856,0.97,0.23,1.62,-1.25,0.03,-0.25
7.882,0.97,0.23,1.62,-1.28,-0.01,-0.25
7.883,0.97,0.23,1.62,-1.28,-0.01,-0.25
7.884,0.97,0.37,1.47,-1.28,-0.01,-0.25
7.884,0.97,0.37,1.47,-1.28,-0.01,-0.25
7.884,0.97,0.37,1.47,-1.16,-0.02,-0.26
7.884,0.97,0.37,1.47,-1.16,-0.02,-0.26
7.885,0.92,0.46,1.22,-1.16,-0.02,-0.26
7.885,0.92,0.46,1.22,-1.16,-0.02,-0.26
7.885,0.92,0.46,1.22,-0.98,-0.01,-0.27
7.886,0.92,0.46,1.22,-0.98,-0.01,-0.27
7.886,0.82,0.51,0.92,-0.98,-0.01,-0.27
7.886,0.82,0.51,0.92,-0.98,-0.01,-0.27
7.892,0.82,0.51,0.92,-0.83,-0.01,-0.27
7.892,0.82,0.51,0.92,-0.83,-0.01,-0.27
7.893,0.74,0.53,0.65,-0.83,-0.01,-0.27
7.893,0.74,0.53,0.65,-0.83,-0.01,-0.27
7.903,0.74,0.53,0.65,-0.73,0,-0.26
7.904,0.74,0.53,0.65,-0.73,0,-0.26
7.904,0.71,0.51,0.41,-0.73,0,-0.26
7.905,0.71,0.51,0.41,-0.73,0,-0.26
7.912,0.71,0.51,0.41,-0.73,0,-0.26
7.913,0.71,0.51,0.41,-0.73,0,-0.26
7.914,0.71,0.51,0.41,-0.73,0,-0.26
7.914,0.71,0.51,0.41,-0.73,0,-0.26
7.921,0.71,0.51,0.41,-0.71,0,-0.22
7.922,0.71,0.51,0.41,-0.71,0,-0.22
7.922,1.01,0.43,-0.05,-0.71,0,-0.22
7.923,1.01,0.43,-0.05,-0.71,0,-0.22
7.931,1.01,0.43,-0.05,-0.74,-0.01,-0.19
7.932,1.01,0.43,-0.05,-0.74,-0.01,-0.19
7.933,1.25,0.38,-0.45,-0.74,-0.01,-0.19
7.933,1.25,0.38,-0.45,-0.74,-0.01,-0.19
7.94,1.25,0.38,-0.45,-0.83,-0.04,-0.19
7.941,1.25,0.38,-0.45,-0.83,-0.04,-0.19
7.942,1.5,0.34,-0.9,-0.83,-0.04,-0.19
7.942,1.5,0.34,-0.9,-0.83,-0.04,-0.19
7.95,1.5,0.34,-0.9,-0.97,-0.08,-0.26
7.951,1.5,0.34,-0.9,-0.97,-0.08,-0.26
7.952,1.74,0.36,-1.39,-0.97,-0.08,-0.26
7.952,1.74,0.36,-1.39,-0.97,-0.08,-0.26
7.969,1.74,0.36,-1.39,-1.16,-0.15,-0.4
7.97,1.74,0.36,-1.39,-1.16,-0.15,-0.4
7.97,1.96,0.43,-1.87,-1.16,-0.15,-0.4
7.97,1.96,0.43,-1.87,-1.16,-0.15,-0.4
7.971,1.96,0.43,-1.87,-1.39,-0.25,-0.59
7.971,1.96,0.43,-1.87,-1.39,-0.25,-0.59
7.971,2.15,0.54,-2.35,-1.39,-0.25,-0.59
7.971,2.15,0.54,-2.35,-1.39,-0.25,-0.59
7.978,2.15,0.54,-2.35,-1.64,-0.36,-0.8
7.979,2.15,0.54,-2.35,-1.64,-0.36,-0.8
7.979,2.28,0.67,-2.84,-1.64,-0.36,-0.8
7.979,2.28,0.67,-2.84,-1.64,-0.36,-0.8
7.988,2.28,0.67,-2.84,-1.9,-0.49,-1.02
7.989,2.28,0.67,-2.84,-1.9,-0.49,-1.02
7.99,2.35,0.8,-3.29,-1.9,-0.49,-1.02
7.99,2.35,0.8,-3.29,-1.9,-0.49,-1.02
7.997,2.35,0.8,-3.29,-2.16,-0.61,-1.22
7.999,2.35,0.8,-3.29,-2.16,-0.61,-1.22
7.999,2.34,0.89,-3.62,-2.16,-0.61,-1.22
8,2.34,0.89,-3.62,-2.16,-0.61,-1.22
8.008,2.34,0.89,-3.62,-2.4,-0.72,-1.39
8.008,2.34,0.89,-3.62,-2.4,-0.72,-1.39
8.009,2.15,0.99,-3.7,-2.4,-0.72,-1.39
8.009,2.15,0.99,-3.7,-2.4,-0.72,-1.39
8.016,2.15,0.99,-3.7,-2.6,-0.81,-1.5
8.017,2.15,0.99,-3.7,-2.6,-0.81,-1.5
8.018,1.8,1.1,-3.48,-2.6,-0.81,-1.5
8.018,1.8,1.1,-3.48,-2.6,-0.81,-1.5
8.026,1.8,1.1,-3.48,-2.71,-0.85,-1.53
8.027,1.8,1.1,-3.48,-2.71,-0.85,-1.53
8.028,1.3,1.29,-2.97,-2.71,-0.85,-1.53
8.028,1.3,1.29,-2.97,-2.71,-0.85,-1.53
8.035,1.3,1.29,-2.97,-2.7,-0.82,-1.45
8.036,1.3,1.29,-2.97,-2.7,-0.82,-1.45
8.037,0.65,1.62,-1.27,-2.7,-0.82,-1.45
8.038,0.65,1.62,-1.27,-2.7,-0.82,-1.45
8.045,0.65,1.62,-1.27,-2.5,-0.68,-1.22
8.046,0.65,1.62,-1.27,-2.5,-0.68,-1.22
8.047,-0.01,2.03,-1.01,-2.5,-0.68,-1.22
8.049,-0.01,2.03,-1.01,-2.5,-0.68,-1.22
8.054,-0.01,2.03,-1.01,-2.06,-0.41,-0.83
8.055,-0.01,2.03,-1.01,-2.06,-0.41,-0.83
8.055,-0.59,2.47,-0.55,-2.06,-0.41,-0.83
8.056,-0.59,2.47,-0.55,-2.06,-0.41,-0.83
8.064,-0.59,2.47,-0.55,-1.43,-0.06,-0.31
8.065,-0.59,2.47,-0.55,-1.43,-0.06,-0.31
8.066,-1.04,2.83,-0.08,-1.43,-0.06,-0.31
8.066,-1.04,2.83,-0.08,-1.43,-0.06,-0.31
8.08,-1.04,2.83,-0.08,-0.71,0.31,0.3
8.081,-1.04,2.83,-0.08,-0.71,0.31,0.3
8.081,-1.27,3.05,0.31,-0.71,0.31,0.3
8.082,-1.27,3.05,0.31,-0.71,0.31,0.3
8.085,-1.27,3.05,0.31,0,0.65,0.93
8.086,-1.27,3.05,0.31,0,0.65,0.93
8.086,-1.31,3.14,0.49,0,0.65,0.93
8.086,-1.31,3.14,0.49,0,0.65,0.93
8.092,-1.31,3.14,0.49,0.65,0.94,1.5
8.093,-1.31,3.14,0.49,0.65,0.94,1.5
8.093,-1.26,3.1,0.44,0.65,0.94,1.5
8.094,-1.26,3.1,0.44,0.65,0.94,1.5
8.102,-1.26,3.1,0.44,0.65,0.94,1.5
8.103,-1.26,3.1,0.44,0.65,0.94,1.5
8.103,-1.26,3.1,0.44,0.65,0.94,1.5
8.103,-1.26,3.1,0.44,0.65,0.94,1.5
8.112,-1.26,3.1,0.44,1.23,1.15,1.95
8.113,-1.26,3.1,0.44,1.23,1.15,1.95
8.113,-1.15,2.9,-0.06,1.23,1.15,1.95
8.114,-1.15,2.9,-0.06,1.23,1.15,1.95
8.121,-1.15,2.9,-0.06,1.66,1.26,2.24
8.122,-1.15,2.9,-0.06,1.66,1.26,2.24
8.122,-1.24,2.79,-0.13,1.66,1.26,2.24
8.123,-1.24,2.79,-0.13,1.66,1.26,2.24
8.13,-1.24,2.79,-0.13,1.88,1.29,2.35
8.131,-1.24,2.79,-0.13,1.88,1.29,2.35
8.131,-1.38,2.74,0.04,1.88,1.29,2.35
8.132,-1.38,2.74,0.04,1.88,1.29,2.35
8.14,-1.38,2.74,0.04,1.9,1.27,2.34
8.141,-1.38,2.74,0.04,1.9,1.27,2.34
8.142,-1.48,2.71,0.47,1.9,1.27,2.34
8.143,-1.48,2.71,0.47,1.9,1.27,2.34
8.155,-1.48,2.71,0.47,1.81,1.23,2.26
8.157,-1.48,2.71,0.47,1.81,1.23,2.26
8.157,-1.49,2.58,1.04,1.81,1.23,2.26
8.158,-1.49,2.58,1.04,1.81,1.23,2.26
8.168,-1.49,2.58,1.04,1.76,1.18,2.16
8.169,-1.49,2.58,1.04,1.76,1.18,2.16
8.169,-1.25,2.39,1.53,1.76,1.18,2.16
8.169,-1.25,2.39,1.53,1.76,1.18,2.16
8.169,-1.25,2.39,1.53,1.82,1.12,2.02
8.17,-1.25,2.39,1.53,1.82,1.12,2.02
8.17,-0.79,2.04,1.8,1.82,1.12,2.02
8.17,-0.79,2.04,1.8,1.82,1.12,2.02
8.178,-0.79,2.04,1.8,2,1.04,1.81
8.179,-0.79,2.04,1.8,2,1.04,1.81
8.179,0.91,1.57,1.73,2,1.04,1.81
8.179,0.91,1.57,1.73,2,1.04,1.81
8.188,0.91,1.57,1.73,2.21,0.92,1.43
8.188,0.91,1.57,1.73,2.21,0.92,1.43
8.189,1.3,1.08,1.38,2.21,0.92,1.43
8.189,1.3,1.08,1.38,2.21,0.92,1.43
8.197,1.3,1.08,1.38,2.06,0.77,0.78
8.199,1.3,1.08,1.38,2.06,0.77,0.78
8.199,2.77,0.58,0.81,2.06,0.77,0.78
8.2,2.77,0.58,0.81,2.06,0.77,0.78
8.208,2.77,0.58,0.81,1.63,0.62,-0.12
8.208,2.77,0.58,0.81,1.63,0.62,-0.12
8.209,3.32,0.15,-0.63,1.63,0.62,-0.12
8.209,3.32,0.15,-0.63,1.63,0.62,-0.12
8.216,3.32,0.15,-0.63,1.25,0.5,-1.17
8.217,3.32,0.15,-0.63,1.25,0.5,-1.17
8.218,3.89,-0.23,-0.81,1.25,0.5,-1.17
8.218,3.89,-0.23,-0.81,1.25,0.5,-1.17
8.225,3.89,-0.23,-0.81,1.01,0.42,-2.19
8.226,3.89,-0.23,-0.81,1.01,0.42,-2.19
8.227,4.27,-0.55,-0.88,1.01,0.42,-2.19
8.227,4.27,-0.55,-0.88,1.01,0.42,-2.19
8.235,4.27,-0.55,-0.88,0.91,0.35,-3.03
8.236,4.27,-0.55,-0.88,0.91,0.35,-3.03
8.236,4.32,-0.99,-0.87,0.91,0.35,-3.03
8.237,4.32,-0.99,-0.87,0.91,0.35,-3.03
8.245,4.32,-0.99,-0.87,0.8,0.29,-3.61
8.246,4.32,-0.99,-0.87,0.8,0.29,-3.61
8.247,4.02,-2.63,-0.84,0.8,0.29,-3.61
8.247,4.02,-2.63,-0.84,0.8,0.29,-3.61
8.254,4.02,-2.63,-0.84,0.41,0.24,-3.87
8.255,4.02,-2.63,-0.84,0.41,0.24,-3.87
8.255,3.49,-4.48,-0.87,0.41,0.24,-3.87
8.256,3.49,-4.48,-0.87,0.41,0.24,-3.87
8.264,3.49,-4.48,-0.87,-0.04,0.22,-3.79
8.265,3.49,-4.48,-0.87,-0.04,0.22,-3.79
8.266,2.86,-6.45,-0.99,-0.04,0.22,-3.79
8.266,2.86,-6.45,-0.99,-0.04,0.22,-3.79
8.273,2.86,-6.45,-0.99,-0.31,0.21,-3.36
8.274,2.86,-6.45,-0.99,-0.31,0.21,-3.36
8.274,1.1,-6.91,-1.18,-0.31,0.21,-3.36
8.274,1.1,-6.91,-1.18,-0.31,0.21,-3.36
8.288,1.1,-6.91,-1.18,-0.42,0.2,-2.65
8.289,1.1,-6.91,-1.18,-0.42,0.2,-2.65
8.29,0.79,-6.92,-1.4,-0.42,0.2,-2.65
8.29,0.79,-6.92,-1.4,-0.42,0.2,-2.65
8.298,0.79,-6.92,-1.4,-0.46,0.2,-1.77
8.299,0.79,-6.92,-1.4,-0.46,0.2,-1.77
8.299,0.26,-5.24,-1.66,-0.46,0.2,-1.77
8.299,0.26,-5.24,-1.66,-0.46,0.2,-1.77
8.301,0.26,-5.24,-1.66,-0.46,0.2,-1.77
8.302,0.26,-5.24,-1.66,-0.46,0.2,-1.77
8.302,0.26,-5.24,-1.66,-0.46,0.2,-1.77
8.302,0.26,-5.24,-1.66,-0.46,0.2,-1.77
8.311,0.26,-5.24,-1.66,-0.46,0.19,-0.88
8.313,0.26,-5.24,-1.66,-0.46,0.19,-0.88
8.313,-0.92,-4.18,-2.4,-0.46,0.19,-0.88
8.314,-0.92,-4.18,-2.4,-0.46,0.19,-0.88
8.321,-0.92,-4.18,-2.4,-0.36,0.15,-0.12
8.322,-0.92,-4.18,-2.4,-0.36,0.15,-0.12
8.322,-1.39,-3.78,-2.7,-0.36,0.15,-0.12
8.323,-1.39,-3.78,-2.7,-0.36,0.15,-0.12
8.332,-1.39,-3.78,-2.7,-0.28,0.09,0.49
8.332,-1.39,-3.78,-2.7,-0.28,0.09,0.49
8.333,-1.72,-3.58,-2.85,-0.28,0.09,0.49
8.333,-1.72,-3.58,-2.85,-0.28,0.09,0.49
8.339,-1.72,-3.58,-2.85,-0.41,0.02,1.01
8.34,-1.72,-3.58,-2.85,-0.41,0.02,1.01
8.34,-1.92,-3.51,-2.88,-0.41,0.02,1.01
8.341,-1.92,-3.51,-2.88,-0.41,0.02,1.01
8.349,-1.92,-3.51,-2.88,-0.71,-0.03,1.44
8.35,-1.92,-3.51,-2.88,-0.71,-0.03,1.44
8.35,-2.02,-3.51,-2.73,-0.71,-0.03,1.44
8.351,-2.02,-3.51,-2.73,-0.71,-0.03,1.44
8.368,-2.02,-3.51,-2.73,-0.94,-0.07,1.78
8.368,-2.02,-3.51,-2.73,-0.94,-0.07,1.78
8.369,-2.02,-3.52,-2.36,-0.94,-0.07,1.78
8.369,-2.02,-3.52,-2.36,-0.94,-0.07,1.78
8.369,-2.02,-3.52,-2.36,-1.07,-0.09,2
8.37,-2.02,-3.52,-2.36,-1.07,-0.09,2
8.37,-1.95,-3.49,-1.88,-1.07,-0.09,2
8.37,-1.95,-3.49,-1.88,-1.07,-0.09,2
8.377,-1.95,-3.49,-1.88,-1.07,-0.13,2.11
8.378,-1.95,-3.49,-1.88,-1.07,-0.13,2.11
8.378,-1.74,-3.33,-1.39,-1.07,-0.13,2.11
8.379,-1.74,-3.33,-1.39,-1.07,-0.13,2.11
8.387,-1.74,-3.33,-1.39,-0.96,-0.17,2.12
8.388,-1.74,-3.33,-1.39,-0.96,-0.17,2.12
8.389,-1.43,-3,-1.05,-0.96,-0.17,2.12
8.39,-1.43,-3,-1.05,-0.96,-0.17,2.12
8.396,-1.43,-3,-1.05,-0.76,-0.21,2.03
8.398,-1.43,-3,-1.05,-0.76,-0.21,2.03
8.398,-1.08,-2.5,-0.95,-0.76,-0.21,2.03
8.399,-1.08,-2.5,-0.95,-0.76,-0.21,2.03
8.406,-1.08,-2.5,-0.95,-0.51,-0.26,1.86
8.407,-1.08,-2.5,-0.95,-0.51,-0.26,1.86
8.407,-0.74,-1.88,-1.06,-0.51,-0.26,1.86
8.408,-0.74,-1.88,-1.06,-0.51,-0.26,1.86
8.415,-0.74,-1.88,-1.06,-0.27,-0.29,1.62
8.416,-0.74,-1.88,-1.06,-0.27,-0.29,1.62
8.417,-0.6,-1.23,-1.26,-0.27,-0.29,1.62
8.418,-0.6,-1.23,-1.26,-0.27,-0.29,1.62
8.425,-0.6,-1.23,-1.26,-0.1,-0.32,1.35
8.426,-0.6,-1.23,-1.26,-0.1,-0.32,1.35
8.426,-0.66,-0.62,-1.42,-0.1,-0.32,1.35
8.427,-0.66,-0.62,-1.42,-0.1,-0.32,1.35
8.434,-0.66,-0.62,-1.42,-0.03,-0.32,1.07
8.435,-0.66,-0.62,-1.42,-0.03,-0.32,1.07
8.436,-0.87,-0.09,-1.49,-0.03,-0.32,1.07
8.436,-0.87,-0.09,-1.49,-0.03,-0.32,1.07
8.444,-0.87,-0.09,-1.49,-0.04,-0.31,0.84
8.445,-0.87,-0.09,-1.49,-0.04,-0.31,0.84
8.446,-1.21,0.38,-1.33,-0.04,-0.31,0.84
8.447,-1.21,0.38,-1.33,-0.04,-0.31,0.84
8.454,-1.21,0.38,-1.33,-0.11,-0.28,0.68
8.455,-1.21,0.38,-1.33,-0.11,-0.28,0.68
8.456,-1.56,0.76,-1.08,-0.11,-0.28,0.68
8.457,-1.56,0.76,-1.08,-0.11,-0.28,0.68
8.469,-1.56,0.76,-1.08,-0.19,-0.25,0.63
8.47,-1.56,0.76,-1.08,-0.19,-0.25,0.63
8.47,-1.81,0.98,-0.87,-0.19,-0.25,0.63
8.47,-1.81,0.98,-0.87,-0.19,-0.25,0.63
8.472,-1.81,0.98,-0.87,-0.25,-0.23,0.68
8.473,-1.81,0.98,-0.87,-0.25,-0.23,0.68
8.473,-1.88,1.04,-0.76,-0.25,-0.23,0.68
8.474,-1.88,1.04,-0.76,-0.25,-0.23,0.68
8.495,-1.88,1.04,-0.76,-0.26,-0.28,0.93
8.496,-1.88,1.04,-0.76,-0.26,-0.28,0.93
8.496,-1.88,1.04,-0.76,-0.26,-0.28,0.93
8.497,-1.88,1.04,-0.76,-0.26,-0.28,0.93
8.497,-1.65,0.9,-0.76,-0.26,-0.28,0.93
8.497,-1.65,0.9,-0.76,-0.26,-0.28,0.93
8.497,-1.65,0.9,-0.76,-0.26,-0.28,0.93
8.498,-1.65,0.9,-0.76,-0.26,-0.28,0.93
8.501,-1.65,0.9,-0.76,-0.26,-0.28,0.93
8.502,-1.65,0.9,-0.76,-0.26,-0.28,0.93
8.502,-1.65,0.9,-0.76,-0.26,-0.28,0.93
8.502,-1.65,0.9,-0.76,-0.26,-0.28,0.93
8.51,-1.65,0.9,-0.76,-0.23,-0.33,1.03
8.511,-1.65,0.9,-0.76,-0.23,-0.33,1.03
8.512,0,0.19,-0.92,-0.23,-0.33,1.03
8.512,0,0.19,-0.92,-0.23,-0.33,1.03
8.52,0,0.19,-0.92,-0.21,-0.41,1
8.521,0,0.19,-0.92,-0.21,-0.41,1
8.522,0.54,0.1,-0.79,-0.21,-0.41,1
8.522,0.54,0.1,-0.79,-0.21,-0.41,1
8.531,0.54,0.1,-0.79,-0.19,-0.46,0.77
8.532,0.54,0.1,-0.79,-0.19,-0.46,0.77
8.532,0.85,0.12,-0.67,-0.19,-0.46,0.77
8.533,0.85,0.12,-0.67,-0.19,-0.46,0.77
8.539,0.85,0.12,-0.67,-0.17,-0.48,0.33
8.539,0.85,0.12,-0.67,-0.17,-0.48,0.33
8.539,0.9,0.23,-0.59,-0.17,-0.48,0.33
8.54,0.9,0.23,-0.59,-0.17,-0.48,0.33
8.549,0.9,0.23,-0.59,-0.14,-0.47,-0.22
8.55,0.9,0.23,-0.59,-0.14,-0.47,-0.22
8.55,0.76,0.47,-0.55,-0.14,-0.47,-0.22
8.551,0.76,0.47,-0.55,-0.14,-0.47,-0.22
8.559,0.76,0.47,-0.55,-0.09,-0.44,-0.7
8.56,0.76,0.47,-0.55,-0.09,-0.44,-0.7
8.561,0.51,0.76,-0.56,-0.09,-0.44,-0.7
8.561,0.51,0.76,-0.56,-0.09,-0.44,-0.7
8.568,0.51,0.76,-0.56,-0.05,-0.41,-1
8.569,0.51,0.76,-0.56,-0.05,-0.41,-1
8.569,0.28,1.08,-0.49,-0.05,-0.41,-1
8.569,0.28,1.08,-0.49,-0.05,-0.41,-1
8.577,0.28,1.08,-0.49,-0.03,-0.4,-1.11
8.578,0.28,1.08,-0.49,-0.03,-0.4,-1.11
8.578,0.07,1.37,-0.37,-0.03,-0.4,-1.11
8.579,0.07,1.37,-0.37,-0.03,-0.4,-1.11
8.587,0.07,1.37,-0.37,-0.02,-0.4,-1.05
8.587,0.07,1.37,-0.37,-0.02,-0.4,-1.05
8.588,-0.03,1.6,-0.22,-0.02,-0.4,-1.05
8.588,-0.03,1.6,-0.22,-0.02,-0.4,-1.05
8.596,-0.03,1.6,-0.22,-0.02,-0.43,-0.88
8.597,-0.03,1.6,-0.22,-0.02,-0.43,-0.88
8.598,-0.02,1.79,-0.07,-0.02,-0.43,-0.88
8.598,-0.02,1.79,-0.07,-0.02,-0.43,-0.88
8.607,-0.02,1.79,-0.07,-0.01,-0.47,-0.65
8.608,-0.02,1.79,-0.07,-0.01,-0.47,-0.65
8.609,0.05,1.96,-0.02,-0.01,-0.47,-0.65
8.609,0.05,1.96,-0.02,-0.01,-0.47,-0.65
8.616,0.05,1.96,-0.02,0.02,-0.52,-0.42
8.616,0.05,1.96,-0.02,0.02,-0.52,-0.42
8.617,0.15,2.13,-0.04,0.02,-0.52,-0.42
8.617,0.15,2.13,-0.04,0.02,-0.52,-0.42
8.625,0.15,2.13,-0.04,0.05,-0.55,-0.23
8.626,0.15,2.13,-0.04,0.05,-0.55,-0.23
8.626,0.19,2.29,-0.1,0.05,-0.55,-0.23
8.626,0.19,2.29,-0.1,0.05,-0.55,-0.23
8.635,0.19,2.29,-0.1,0.07,-0.57,-0.09
8.635,0.19,2.29,-0.1,0.07,-0.57,-0.09
8.636,0.14,2.47,-0.16,0.07,-0.57,-0.09
8.636,0.14,2.47,-0.16,0.07,-0.57,-0.09
8.644,0.14,2.47,-0.16,0.05,-0.57,0
8.645,0.14,2.47,-0.16,0.05,-0.57,0
8.645,0.02,2.62,-0.21,0.05,-0.57,0
8.646,0.02,2.62,-0.21,0.05,-0.57,0
8.654,0.02,2.62,-0.21,0,-0.56,0.06
8.654,0.02,2.62,-0.21,0,-0.56,0.06
8.655,-0.15,2.76,-0.24,0,-0.56,0.06
8.655,-0.15,2.76,-0.24,0,-0.56,0.06
8.663,-0.15,2.76,-0.24,-0.08,-0.55,0.12
8.666,-0.15,2.76,-0.24,-0.08,-0.55,0.12
8.666,-0.35,2.86,-0.27,-0.08,-0.55,0.12
8.667,-0.35,2.86,-0.27,-0.08,-0.55,0.12
8.684,-0.35,2.86,-0.27,-0.18,-0.54,0.2
8.685,-0.35,2.86,-0.27,-0.18,-0.54,0.2
8.686,-0.53,2.96,-0.31,-0.18,-0.54,0.2
8.686,-0.53,2.96,-0.31,-0.18,-0.54,0.2
8.686,-0.53,2.96,-0.31,-0.29,-0.54,0.33
8.687,-0.53,2.96,-0.31,-0.29,-0.54,0.33
8.687,-0.66,3.06,-0.31,-0.29,-0.54,0.33
8.687,-0.66,3.06,-0.31,-0.29,-0.54,0.33
8.693,-0.66,3.06,-0.31,-0.29,-0.54,0.33
8.694,-0.66,3.06,-0.31,-0.29,-0.54,0.33
8.695,-0.66,3.06,-0.31,-0.29,-0.54,0.33
8.695,-0.66,3.06,-0.31,-0.29,-0.54,0.33
8.701,-0.66,3.06,-0.31,-0.38,-0.54,0.48
8.701,-0.66,3.06,-0.31,-0.38,-0.54,0.48
8.702,-0.73,3.38,-0.29,-0.38,-0.54,0.48
8.702,-0.73,3.38,-0.29,-0.38,-0.54,0.48
8.711,-0.73,3.38,-0.29,-0.47,-0.53,0.65
8.712,-0.73,3.38,-0.29,-0.47,-0.53,0.65
8.712,-0.69,3.57,-0.18,-0.47,-0.53,0.65
8.713,-0.69,3.57,-0.18,-0.47,-0.53,0.65
8.72,-0.69,3.57,-0.18,-0.54,-0.51,0.81
8.721,-0.69,3.57,-0.18,-0.54,-0.51,0.81
8.722,-0.61,3.75,-0.08,-0.54,-0.51,0.81
8.722,-0.61,3.75,-0.08,-0.54,-0.51,0.81
8.73,-0.61,3.75,-0.08,-0.59,-0.47,0.93
8.731,-0.61,3.75,-0.08,-0.59,-0.47,0.93
8.731,-0.47,3.91,0.04,-0.59,-0.47,0.93
8.732,-0.47,3.91,0.04,-0.59,-0.47,0.93
8.738,-0.47,3.91,0.04,-0.59,-0.41,1
8.739,-0.47,3.91,0.04,-0.59,-0.41,1
8.74,-0.27,4.02,0.12,-0.59,-0.41,1
8.74,-0.27,4.02,0.12,-0.59,-0.41,1
8.748,-0.27,4.02,0.12,-0.56,-0.35,1
8.75,-0.27,4.02,0.12,-0.56,-0.35,1
8.75,0.02,4,0.19,-0.56,-0.35,1
8.751,0.02,4,0.19,-0.56,-0.35,1
8.762,0.02,4,0.19,-0.5,-0.28,0.92
8.763,0.02,4,0.19,-0.5,-0.28,0.92
8.764,0.43,3.78,0.23,-0.5,-0.28,0.92
8.764,0.43,3.78,0.23,-0.5,-0.28,0.92
8.767,0.43,3.78,0.23,-0.42,-0.2,0.74
8.768,0.43,3.78,0.23,-0.42,-0.2,0.74
8.768,0.9,3.33,0.2,-0.42,-0.2,0.74
8.769,0.9,3.33,0.2,-0.42,-0.2,0.74
8.781,0.9,3.33,0.2,-0.32,-0.12,0.43
8.782,0.9,3.33,0.2,-0.32,-0.12,0.43
8.782,1.41,1.54,-0.01,-0.32,-0.12,0.43
8.783,1.41,1.54,-0.01,-0.32,-0.12,0.43
8.786,1.41,1.54,-0.01,-0.22,0,-0.01
8.787,1.41,1.54,-0.01,-0.22,0,-0.01
8.787,1.93,1.14,-0.45,-0.22,0,-0.01
8.787,1.93,1.14,-0.45,-0.22,0,-0.01
8.796,1.93,1.14,-0.45,-0.11,0.13,-0.59
8.797,1.93,1.14,-0.45,-0.11,0.13,-0.59
8.797,2.37,-0.36,-1,-0.11,0.13,-0.59
8.797,2.37,-0.36,-1,-0.11,0.13,-0.59
8.806,2.37,-0.36,-1,-0.07,0.27,-1.22
8.806,2.37,-0.36,-1,-0.07,0.27,-1.22
8.807,2.71,-0.77,-1.46,-0.07,0.27,-1.22
8.807,2.71,-0.77,-1.46,-0.07,0.27,-1.22
8.815,2.71,-0.77,-1.46,-0.12,0.31,-1.79
8.817,2.71,-0.77,-1.46,-0.12,0.31,-1.79
8.817,2.86,-1.16,-1.69,-0.12,0.31,-1.79
8.818,2.86,-1.16,-1.69,-0.12,0.31,-1.79
8.824,2.86,-1.16,-1.69,-0.27,0.26,-2.23
8.825,2.86,-1.16,-1.69,-0.27,0.26,-2.23
8.825,2.73,-1.31,-1.69,-0.27,0.26,-2.23
8.826,2.73,-1.31,-1.69,-0.27,0.26,-2.23
8.834,2.73,-1.31,-1.69,-0.26,0.21,-2.47
8.835,2.73,-1.31,-1.69,-0.26,0.21,-2.47
8.835,2.41,-1.08,-1.61,-0.26,0.21,-2.47
8.836,2.41,-1.08,-1.61,-0.26,0.21,-2.47
8.843,2.41,-1.08,-1.61,-0.25,0.15,-2.52
8.844,2.41,-1.08,-1.61,-0.25,0.15,-2.52
8.844,1.98,-0.62,-1.69,-0.25,0.15,-2.52
8.845,1.98,-0.62,-1.69,-0.25,0.15,-2.52
8.853,1.98,-0.62,-1.69,-0.39,0.04,-2.41
8.854,1.98,-0.62,-1.69,-0.39,0.04,-2.41
8.855,1.52,1.05,-1.97,-0.39,0.04,-2.41
8.855,1.52,1.05,-1.97,-0.39,0.04,-2.41
8.864,1.52,1.05,-1.97,-0.49,-0.11,-2.16
8.865,1.52,1.05,-1.97,-0.49,-0.11,-2.16
8.866,1.18,1.35,-2.38,-0.49,-0.11,-2.16
8.867,1.18,1.35,-2.38,-0.49,-0.11,-2.16
8.872,1.18,1.35,-2.38,-0.63,-0.28,-1.82
8.873,1.18,1.35,-2.38,-0.63,-0.28,-1.82
8.874,0.89,1.78,-2.75,-0.63,-0.28,-1.82
8.874,0.89,1.78,-2.75,-0.63,-0.28,-1.82
8.883,0.89,1.78,-2.75,-0.63,-0.28,-1.82
8.884,0.89,1.78,-2.75,-0.63,-0.28,-1.82
8.884,0.89,1.78,-2.75,-0.63,-0.28,-1.82
8.885,0.89,1.78,-2.75,-0.63,-0.28,-1.82
8.891,0.89,1.78,-2.75,-0.86,-0.45,-1.43
8.892,0.89,1.78,-2.75,-0.86,-0.45,-1.43
8.893,0.45,2.43,-2.61,-0.86,-0.45,-1.43
8.893,0.45,2.43,-2.61,-0.86,-0.45,-1.43
8.901,0.45,2.43,-2.61,-1.17,-0.56,-1.04
8.902,0.45,2.43,-2.61,-1.17,-0.56,-1.04
8.903,0.2,2.42,-0.88,-1.17,-0.56,-1.04
8.903,0.2,2.42,-0.88,-1.17,-0.56,-1.04
8.911,0.2,2.42,-0.88,-1.42,-0.67,-0.65
8.912,0.2,2.42,-0.88,-1.42,-0.67,-0.65
8.912,-0.07,2.14,-0.42,-1.42,-0.67,-0.65
8.913,-0.07,2.14,-0.42,-1.42,-0.67,-0.65
8.92,-0.07,2.14,-0.42,-1.47,-0.83,-0.26
8.921,-0.07,2.14,-0.42,-1.47,-0.83,-0.26
8.922,-0.36,1.65,0.24,-1.47,-0.83,-0.26
8.923,-0.36,1.65,0.24,-1.47,-0.83,-0.26
8.929,-0.36,1.65,0.24,-1.21,-0.91,0.14
8.931,-0.36,1.65,0.24,-1.21,-0.91,0.14
8.932,-0.67,1.04,0.84,-1.21,-0.91,0.14
8.932,-0.67,1.04,0.84,-1.21,-0.91,0.14
8.938,-0.67,1.04,0.84,-0.67,-0.92,0.54
8.939,-0.67,1.04,0.84,-0.67,-0.92,0.54
8.939,-1,0.44,1.27,-0.67,-0.92,0.54
8.94,-1,0.44,1.27,-0.67,-0.92,0.54
8.949,-1,0.44,1.27,0.03,-0.87,0.94
8.949,-1,0.44,1.27,0.03,-0.87,0.94
8.95,-1.35,0.03,1.52,0.03,-0.87,0.94
8.95,-1.35,0.03,1.52,0.03,-0.87,0.94
8.961,-1.35,0.03,1.52,0.77,-0.81,1.31
8.962,-1.35,0.03,1.52,0.77,-0.81,1.31
8.962,-1.67,-0.13,1.65,0.77,-0.81,1.31
8.962,-1.67,-0.13,1.65,0.77,-0.81,1.31
8.967,-1.67,-0.13,1.65,1.45,-0.75,1.62
8.968,-1.67,-0.13,1.65,1.45,-0.75,1.62
8.968,-1.93,-0.04,1.71,1.45,-0.75,1.62
8.969,-1.93,-0.04,1.71,1.45,-0.75,1.62
8.986,-1.93,-0.04,1.71,1.97,-0.71,1.88
8.987,-1.93,-0.04,1.71,1.97,-0.71,1.88
8.987,-2.08,0.23,1.6,1.97,-0.71,1.88
8.987,-2.08,0.23,1.6,1.97,-0.71,1.88
8.988,-2.08,0.23,1.6,2.28,-0.59,1.71
8.988,-2.08,0.23,1.6,2.28,-0.59,1.71
8.988,-2.07,0.59,1.28,2.28,-0.59,1.71
8.988,-2.07,0.59,1.28,2.28,-0.59,1.71
8.996,-2.07,0.59,1.28,2.02,-0.42,1.54
8.997,-2.07,0.59,1.28,2.02,-0.42,1.54
8.997,-1.92,0.92,0.82,2.02,-0.42,1.54
8.998,-1.92,0.92,0.82,2.02,-0.42,1.54
9.006,-1.92,0.92,0.82,1.63,-0.33,1.72
9.007,-1.92,0.92,0.82,1.63,-0.33,1.72
9.007,-1.62,1.04,0.36,1.63,-0.33,1.72
9.008,-1.62,1.04,0.36,1.63,-0.33,1.72
9.014,-1.62,1.04,0.36,1.49,-0.3,1.78
9.015,-1.62,1.04,0.36,1.49,-0.3,1.78
9.016,-1.21,0.78,0.06,1.49,-0.3,1.78
9.017,-1.21,0.78,0.06,1.49,-0.3,1.78
9.024,-1.21,0.78,0.06,1.18,-0.26,1.72
9.025,-1.21,0.78,0.06,1.18,-0.26,1.72
9.026,-0.75,-0.77,-0.04,1.18,-0.26,1.72
9.026,-0.75,-0.77,-0.04,1.18,-0.26,1.72
9.033,-0.75,-0.77,-0.04,0.79,-0.23,1.5
9.035,-0.75,-0.77,-0.04,0.79,-0.23,1.5
9.035,-0.28,-2.66,0.07,0.79,-0.23,1.5
9.036,-0.28,-2.66,0.07,0.79,-0.23,1.5
9.043,-0.28,-2.66,0.07,0.42,-0.23,1.1
9.044,-0.28,-2.66,0.07,0.42,-0.23,1.1
9.045,0.25,-4.24,0.31,0.42,-0.23,1.1
9.045,0.25,-4.24,0.31,0.42,-0.23,1.1
9.053,0.25,-4.24,0.31,0.17,-0.26,0.54
9.054,0.25,-4.24,0.31,0.17,-0.26,0.54
9.055,0.85,-4.57,0.6,0.17,-0.26,0.54
9.056,0.85,-4.57,0.6,0.17,-0.26,0.54
9.064,0.85,-4.57,0.6,0.09,-0.32,-0.11
9.065,0.85,-4.57,0.6,0.09,-0.32,-0.11
9.066,1.41,-4.59,0.93,0.09,-0.32,-0.11
9.066,1.41,-4.59,0.93,0.09,-0.32,-0.11
9.09,1.41,-4.59,0.93,0.09,-0.32,-0.11
9.091,1.41,-4.59,0.93,0.09,-0.32,-0.11
9.091,1.41,-4.59,0.93,0.09,-0.32,-0.11
9.091,1.41,-4.59,0.93,0.09,-0.32,-0.11
9.092,1.41,-4.59,0.93,0.04,-0.35,-0.74
9.092,1.41,-4.59,0.93,0.04,-0.35,-0.74
9.092,1.61,-3.7,1.47,0.04,-0.35,-0.74
9.092,1.61,-3.7,1.47,0.04,-0.35,-0.74
9.093,1.61,-3.7,1.47,0.09,-0.36,-1.26
9.093,1.61,-3.7,1.47,0.09,-0.36,-1.26
9.093,-0.72,-3.35,1.57,0.09,-0.36,-1.26
9.093,-0.72,-3.35,1.57,0.09,-0.36,-1.26
9.101,-0.72,-3.35,1.57,0.06,-0.31,-1.57
9.101,-0.72,-3.35,1.57,0.06,-0.31,-1.57
9.102,-2.94,-3.19,1.62,0.06,-0.31,-1.57
9.102,-2.94,-3.19,1.62,0.06,-0.31,-1.57
9.11,-2.94,-3.19,1.62,0.06,-0.19,-1.52
9.11,-2.94,-3.19,1.62,0.06,-0.19,-1.52
9.111,-4.67,-3.09,1.73,0.06,-0.19,-1.52
9.111,-4.67,-3.09,1.73,0.06,-0.19,-1.52
9.12,-4.67,-3.09,1.73,0.32,-0.21,-1.01
9.12,-4.67,-3.09,1.73,0.32,-0.21,-1.01
9.121,-5.03,-2.94,2.02,0.32,-0.21,-1.01
9.122,-5.03,-2.94,2.02,0.32,-0.21,-1.01
9.129,-5.03,-2.94,2.02,0.52,-0.39,-0.13
9.13,-5.03,-2.94,2.02,0.52,-0.39,-0.13
9.131,-5.37,-2.68,2.34,0.52,-0.39,-0.13
9.131,-5.37,-2.68,2.34,0.52,-0.39,-0.13
9.139,-5.37,-2.68,2.34,0.72,-0.25,0.86
9.14,-5.37,-2.68,2.34,0.72,-0.25,0.86
9.141,-5.37,-2.38,2.55,0.72,-0.25,0.86
9.141,-5.37,-2.38,2.55,0.72,-0.25,0.86
9.148,-5.37,-2.38,2.55,0.61,-0.18,1.71
9.149,-5.37,-2.38,2.55,0.61,-0.18,1.71
9.15,-5.01,-2.05,2.64,0.61,-0.18,1.71
9.15,-5.01,-2.05,2.64,0.61,-0.18,1.71
9.162,-5.01,-2.05,2.64,0.2,-0.54,2.3
9.163,-5.01,-2.05,2.64,0.2,-0.54,2.3
9.164,-3.1,-1.77,2.72,0.2,-0.54,2.3
9.164,-3.1,-1.77,2.72,0.2,-0.54,2.3
9.167,-3.1,-1.77,2.72,0.23,-0.43,2.57
9.168,-3.1,-1.77,2.72,0.23,-0.43,2.57
9.168,-2.57,-1.6,2.94,0.23,-0.43,2.57
9.168,-2.57,-1.6,2.94,0.23,-0.43,2.57
9.186,-2.57,-1.6,2.94,0.61,0.05,2.53
9.187,-2.57,-1.6,2.94,0.61,0.05,2.53
9.187,-0.73,-1.6,3.41,0.61,0.05,2.53
9.187,-0.73,-1.6,3.41,0.61,0.05,2.53
9.188,-0.73,-1.6,3.41,0.9,0.32,2.17
9.188,-0.73,-1.6,3.41,0.9,0.32,2.17
9.188,1.19,-1.76,3.87,0.9,0.32,2.17
9.188,1.19,-1.76,3.87,0.9,0.32,2.17
9.195,1.19,-1.76,3.87,1.12,0.38,1.52
9.196,1.19,-1.76,3.87,1.12,0.38,1.52
9.197,1.68,-1.94,4.05,1.12,0.38,1.52
9.197,1.68,-1.94,4.05,1.12,0.38,1.52
9.205,1.68,-1.94,4.05,1.19,0.28,0.66
9.206,1.68,-1.94,4.05,1.19,0.28,0.66
9.206,3.56,-1.87,3.93,1.19,0.28,0.66
9.207,3.56,-1.87,3.93,1.19,0.28,0.66
9.215,3.56,-1.87,3.93,1.12,0.27,-0.35
9.216,3.56,-1.87,3.93,1.12,0.27,-0.35
9.217,5.13,-1.55,3.52,1.12,0.27,-0.35
9.217,5.13,-1.55,3.52,1.12,0.27,-0.35
9.224,5.13,-1.55,3.52,1.16,0.17,-1.41
9.225,7.02,-1.06,2.99,1.16,0.17,-1.41
9.225,7.02,-1.06,2.99,1.16,0.17,-1.41
9.225,7.02,-1.06,2.99,1.16,0.17,-1.41
9.233,7.02,-1.06,2.99,1.26,-0.17,-2.51
9.234,7.02,-1.06,2.99,1.26,-0.17,-2.51
9.234,7.33,-0.57,2.56,1.26,-0.17,-2.51
9.234,7.33,-0.57,2.56,1.26,-0.17,-2.51
9.242,7.33,-0.57,2.56,1.22,-0.48,-3.61
9.243,7.33,-0.57,2.56,1.22,-0.48,-3.61
9.243,7.46,-0.29,2.29,1.22,-0.48,-3.61
9.243,7.46,-0.29,2.29,1.22,-0.48,-3.61
9.253,7.46,-0.29,2.29,1.08,-0.75,-4.6
9.254,7.46,-0.29,2.29,1.08,-0.75,-4.6
9.255,7.13,-0.22,2.12,1.08,-0.75,-4.6
9.255,7.13,-0.22,2.12,1.08,-0.75,-4.6
9.263,7.13,-0.22,2.12,0.87,-0.95,-5.33
9.265,7.13,-0.22,2.12,0.87,-0.95,-5.33
9.265,5.33,-0.25,1.98,0.87,-0.95,-5.33
9.266,5.33,-0.25,1.98,0.87,-0.95,-5.33
9.271,5.33,-0.25,1.98,0.87,-0.95,-5.33
9.272,5.33,-0.25,1.98,0.87,-0.95,-5.33
9.272,5.33,-0.25,1.98,0.87,-0.95,-5.33
9.272,5.33,-0.25,1.98,0.87,-0.95,-5.33
9.287,5.33,-0.25,1.98,0.65,-1.07,-5.65
9.288,5.33,-0.25,1.98,0.65,-1.07,-5.65
9.288,1.46,-0.4,1.53,0.65,-1.07,-5.65
9.288,1.46,-0.4,1.53,0.65,-1.07,-5.65
9.295,1.46,-0.4,1.53,0.45,-1.1,-5.41
9.296,1.46,-0.4,1.53,0.45,-1.1,-5.41
9.296,-0.01,-0.45,1.33,0.45,-1.1,-5.41
9.297,-0.01,-0.45,1.33,0.45,-1.1,-5.41
9.3,-0.01,-0.45,1.33,0.25,-1.04,-4.53
9.3,-0.01,-0.45,1.33,0.25,-1.04,-4.53
9.3,-0.5,-0.46,1.36,0.25,-1.04,-4.53
9.301,-0.5,-0.46,1.36,0.25,-1.04,-4.53
9.31,-0.5,-0.46,1.36,0.06,-0.9,-3.09
9.311,-0.5,-0.46,1.36,0.06,-0.9,-3.09
9.312,-1.05,-0.4,1.64,0.06,-0.9,-3.09
9.312,-1.05,-0.4,1.64,0.06,-0.9,-3.09
9.32,-1.05,-0.4,1.64,-0.1,-0.7,-1.44
9.32,-1.05,-0.4,1.64,-0.1,-0.7,-1.44
9.321,-1.48,-0.23,2.04,-0.1,-0.7,-1.44
9.322,-1.48,-0.23,2.04,-0.1,-0.7,-1.44
9.329,-1.48,-0.23,2.04,-0.19,-0.47,0.07
9.33,-1.48,-0.23,2.04,-0.19,-0.47,0.07
9.331,-1.72,0.02,2.43,-0.19,-0.47,0.07
9.331,-1.72,0.02,2.43,-0.19,-0.47,0.07
9.338,-1.72,0.02,2.43,-0.15,-0.23,1.27
9.339,-1.72,0.02,2.43,-0.15,-0.23,1.27
9.339,-1.76,0.27,2.64,-0.15,-0.23,1.27
9.34,-1.76,0.27,2.64,-0.15,-0.23,1.27
9.347,-1.76,0.27,2.64,0.03,0,2.16
9.349,-1.76,0.27,2.64,0.03,0,2.16
9.349,-1.57,0.42,2.57,0.03,0,2.16
9.35,-1.57,0.42,2.57,0.03,0,2.16
9.362,-1.57,0.42,2.57,0.29,0.19,2.76
9.363,-1.57,0.42,2.57,0.29,0.19,2.76
9.363,-1.17,0.43,2.2,0.29,0.19,2.76
9.364,-1.17,0.43,2.2,0.29,0.19,2.76
9.367,-1.17,0.43,2.2,0.55,0.31,3.08
9.368,-0.64,0.31,1.57,0.55,0.31,3.08
9.368,-0.64,0.31,1.57,0.55,0.31,3.08
9.369,-0.64,0.31,1.57,0.55,0.31,3.08
9.383,-0.64,0.31,1.57,0.71,0.36,3.14
9.383,-0.64,0.31,1.57,0.71,0.36,3.14
9.384,-0.01,0.17,0.02,0.71,0.36,3.14
9.384,-0.01,0.17,0.02,0.71,0.36,3.14
9.385,-0.01,0.17,0.02,0.68,0.36,2.96
9.386,-0.01,0.17,0.02,0.68,0.36,2.96
9.386,0.66,0.07,-0.45,0.68,0.36,2.96
9.386,0.66,0.07,-0.45,0.68,0.36,2.96
9.395,0.66,0.07,-0.45,0.4,0.33,2.57
9.396,0.66,0.07,-0.45,0.4,0.33,2.57
9.396,1.28,0.05,-0.88,0.4,0.33,2.57
9.396,1.28,0.05,-0.88,0.4,0.33,2.57
9.404,1.28,0.05,-0.88,-0.09,0.27,2.03
9.405,1.28,0.05,-0.88,-0.09,0.27,2.03
9.406,1.81,0.1,-1.08,-0.09,0.27,2.03
9.406,1.81,0.1,-1.08,-0.09,0.27,2.03
9.414,1.81,0.1,-1.08,-0.65,0.17,1.38
9.415,1.81,0.1,-1.08,-0.65,0.17,1.38
9.416,2.22,0.17,-0.97,-0.65,0.17,1.38
9.416,2.22,0.17,-0.97,-0.65,0.17,1.38
9.423,2.22,0.17,-0.97,-1.13,0.02,0.7
9.424,2.22,0.17,-0.97,-1.13,0.02,0.7
9.425,2.49,0.26,-0.57,-1.13,0.02,0.7
9.425,2.49,0.26,-0.57,-1.13,0.02,0.7
9.433,2.49,0.26,-0.57,-1.43,-0.14,0.04
9.434,2.49,0.26,-0.57,-1.43,-0.14,0.04
9.434,2.64,0.36,-0.07,-1.43,-0.14,0.04
9.435,2.64,0.36,-0.07,-1.43,-0.14,0.04
9.443,2.64,0.36,-0.07,-1.53,-0.31,-0.55
9.444,2.64,0.36,-0.07,-1.53,-0.31,-0.55
9.444,2.69,0.49,0.39,-1.53,-0.31,-0.55
9.445,2.69,0.49,0.39,-1.53,-0.31,-0.55
9.453,2.69,0.49,0.39,-1.4,-0.44,-1.03
9.454,2.69,0.49,0.39,-1.4,-0.44,-1.03
9.455,2.67,0.62,0.63,-1.4,-0.44,-1.03
9.455,2.67,0.62,0.63,-1.4,-0.44,-1.03
9.464,2.67,0.62,0.63,-1.4,-0.44,-1.03
9.465,2.67,0.62,0.63,-1.4,-0.44,-1.03
9.466,2.67,0.62,0.63,-1.4,-0.44,-1.03
9.466,2.67,0.62,0.63,-1.4,-0.44,-1.03
9.471,2.67,0.62,0.63,-1.09,-0.52,-1.39
9.472,2.67,0.62,0.63,-1.09,-0.52,-1.39
9.472,2.65,0.79,0.34,-1.09,-0.52,-1.39
9.472,2.65,0.79,0.34,-1.09,-0.52,-1.39
9.494,2.65,0.79,0.34,-0.71,-0.56,-1.62
9.495,2.65,0.79,0.34,-0.71,-0.56,-1.62
9.496,2.6,0.79,-0.28,-0.71,-0.56,-1.62
9.496,2.6,0.79,-0.28,-0.71,-0.56,-1.62
9.496,2.6,0.79,-0.28,-0.21,-0.6,-1.79
9.496,2.6,0.79,-0.28,-0.21,-0.6,-1.79
9.497,2.5,0.76,-2.04,-0.21,-0.6,-1.79
9.497,2.5,0.76,-2.04,-0.21,-0.6,-1.79
9.499,2.5,0.76,-2.04,-0.21,-0.6,-1.79
9.5,2.5,0.76,-2.04,-0.21,-0.6,-1.79
9.5,2.5,0.76,-2.04,-0.21,-0.6,-1.79
9.501,2.5,0.76,-2.04,-0.21,-0.6,-1.79
9.509,2.5,0.76,-2.04,-0.88,-0.77,-1.81
9.51,2.5,0.76,-2.04,-0.88,-0.77,-1.81
9.511,2.24,0.75,-3.25,-0.88,-0.77,-1.81
9.511,2.24,0.75,-3.25,-0.88,-0.77,-1.81
9.518,2.24,0.75,-3.25,-0.88,-0.77,-1.81
9.519,2.24,0.75,-3.25,-0.88,-0.77,-1.81
9.52,2.24,0.75,-3.25,-0.88,-0.77,-1.81
9.52,2.24,0.75,-3.25,-0.88,-0.77,-1.81
9.528,2.24,0.75,-3.25,-2.24,-1.11,-1.63
9.529,2.24,0.75,-3.25,-2.24,-1.11,-1.63
9.529,1.59,0.99,-3.83,-2.24,-1.11,-1.63
9.53,1.59,0.99,-3.83,-2.24,-1.11,-1.63
9.537,1.59,0.99,-3.83,-2.7,-1.24,-1.43
9.538,1.59,0.99,-3.83,-2.7,-1.24,-1.43
9.538,1.12,1.25,-3.52,-2.7,-1.24,-1.43
9.539,1.12,1.25,-3.52,-2.7,-1.24,-1.43
9.547,1.12,1.25,-3.52,-2.89,-1.28,-1.17
9.548,1.12,1.25,-3.52,-2.89,-1.28,-1.17
9.549,0.64,1.62,-2.97,-2.89,-1.28,-1.17
9.549,0.64,1.62,-2.97,-2.89,-1.28,-1.17
9.56,0.64,1.62,-2.97,-2.93,-1.26,-0.86
9.56,0.64,1.62,-2.97,-2.93,-1.26,-0.86
9.561,0.2,2.08,-1.24,-2.93,-1.26,-0.86
9.561,0.2,2.08,-1.24,-2.93,-1.26,-0.86
9.567,0.2,2.08,-1.24,-2.75,-1.13,-0.51
9.567,0.2,2.08,-1.24,-2.75,-1.13,-0.51
9.568,-0.15,2.6,-0.91,-2.75,-1.13,-0.51
9.568,-0.15,2.6,-0.91,-2.75,-1.13,-0.51
9.581,-0.15,2.6,-0.91,-2.29,-0.88,-0.1
9.582,-0.15,2.6,-0.91,-2.29,-0.88,-0.1
9.583,-0.39,3.07,-0.35,-2.29,-0.88,-0.1
9.583,-0.39,3.07,-0.35,-2.29,-0.88,-0.1
9.586,-0.39,3.07,-0.35,-1.6,-0.52,0.35
9.587,-0.39,3.07,-0.35,-1.6,-0.52,0.35
9.587,-0.54,3.37,1.17,-1.6,-0.52,0.35
9.588,-0.54,3.37,1.17,-1.6,-0.52,0.35
9.595,-0.54,3.37,1.17,-0.75,-0.11,0.79
9.596,-0.54,3.37,1.17,-0.75,-0.11,0.79
9.596,-0.7,3.47,1.62,-0.75,-0.11,0.79
9.596,-0.7,3.47,1.62,-0.75,-0.11,0.79
9.605,-0.7,3.47,1.62,0.2,0.28,1.17
9.606,-0.7,3.47,1.62,0.2,0.28,1.17
9.606,-0.84,3.27,2.03,0.2,0.28,1.17
9.607,-0.84,3.27,2.03,0.2,0.28,1.17
9.614,-0.84,3.27,2.03,1.25,0.61,1.47
9.615,-0.84,3.27,2.03,1.25,0.61,1.47
9.616,-0.91,2.89,2.21,1.25,0.61,1.47
9.616,-0.91,2.89,2.21,1.25,0.61,1.47
9.623,-0.91,2.89,2.21,2.29,0.87,1.67
9.624,-0.91,2.89,2.21,2.29,0.87,1.67
9.625,-0.84,2.44,2.03,2.29,0.87,1.67
9.625,-0.84,2.44,2.03,2.29,0.87,1.67
9.633,-0.84,2.44,2.03,3.12,1.02,1.76
9.634,-0.84,2.44,2.03,3.12,1.02,1.76
9.634,-0.57,1.99,1.58,3.12,1.02,1.76
9.635,-0.57,1.99,1.58,3.12,1.02,1.76
9.642,-0.57,1.99,1.58,3.6,1.07,1.73
9.643,-0.57,1.99,1.58,3.6,1.07,1.73
9.644,-0.14,1.67,1,3.6,1.07,1.73
9.644,-0.14,1.67,1,3.6,1.07,1.73
9.653,-0.14,1.67,1,3.68,1.06,1.56
9.654,-0.14,1.67,1,3.68,1.06,1.56
9.654,0.34,1.49,0.48,3.68,1.06,1.56
9.655,0.34,1.49,0.48,3.68,1.06,1.56
9.663,0.34,1.49,0.48,3.68,1.06,1.56
9.664,0.34,1.49,0.48,3.68,1.06,1.56
9.665,0.34,1.49,0.48,3.68,1.06,1.56
9.666,0.34,1.49,0.48,3.68,1.06,1.56
9.671,0.34,1.49,0.48,3.37,1,1.22
9.672,0.34,1.49,0.48,3.37,1,1.22
9.672,1.03,1.32,0.01,3.37,1,1.22
9.673,1.03,1.32,0.01,3.37,1,1.22
9.684,1.03,1.32,0.01,2.85,0.91,0.73
9.685,1.03,1.32,0.01,2.85,0.91,0.73
9.685,1.03,1.27,0.03,2.85,0.91,0.73
9.685,1.03,1.27,0.03,2.85,0.91,0.73
9.692,1.03,1.27,0.03,2.16,0.81,0.13
9.693,1.03,1.27,0.03,2.16,0.81,0.13
9.694,0.89,1.24,-0.01,2.16,0.81,0.13
9.694,0.89,1.24,-0.01,2.16,0.81,0.13
9.699,0.89,1.24,-0.01,1.41,0.7,-0.45
9.7,0.89,1.24,-0.01,1.41,0.7,-0.45
9.701,0.66,1.16,-0.26,1.41,0.7,-0.45
9.701,0.66,1.16,-0.26,1.41,0.7,-0.45
9.709,0.66,1.16,-0.26,0.77,0.6,-0.91
9.71,0.66,1.16,-0.26,0.77,0.6,-0.91
9.711,0.43,1.01,-0.69,0.77,0.6,-0.91
9.711,0.43,1.01,-0.69,0.77,0.6,-0.91
9.718,0.43,1.01,-0.69,0.25,0.51,-1.18
9.719,0.43,1.01,-0.69,0.25,0.51,-1.18
9.719,0.19,0.79,-1.15,0.25,0.51,-1.18
9.72,0.19,0.79,-1.15,0.25,0.51,-1.18
9.729,0.19,0.79,-1.15,-0.22,0.43,-1.26
9.731,0.19,0.79,-1.15,-0.22,0.43,-1.26
9.732,-0.05,0.45,-1.57,-0.22,0.43,-1.26
9.732,-0.05,0.45,-1.57,-0.22,0.43,-1.26
9.737,-0.05,0.45,-1.57,-0.67,0.37,-1.19
9.738,-0.05,0.45,-1.57,-0.67,0.37,-1.19
9.738,-0.28,0.1,-1.8,-0.67,0.37,-1.19
9.739,-0.28,0.1,-1.8,-0.67,0.37,-1.19
9.747,-0.28,0.1,-1.8,-1.13,0.32,-1.02
9.748,-0.28,0.1,-1.8,-1.13,0.32,-1.02
9.748,-0.44,-0.15,-1.87,-1.13,0.32,-1.02
9.749,-0.44,-0.15,-1.87,-1.13,0.32,-1.02
9.757,-0.44,-0.15,-1.87,-1.53,0.27,-0.79
9.758,-0.44,-0.15,-1.87,-1.53,0.27,-0.79
9.758,-0.47,-0.28,-1.87,-1.53,0.27,-0.79
9.758,-0.47,-0.28,-1.87,-1.53,0.27,-0.79
9.766,-0.47,-0.28,-1.87,-1.83,0.22,-0.53
9.767,-0.47,-0.28,-1.87,-1.83,0.22,-0.53
9.767,-0.34,-0.32,-1.73,-1.83,0.22,-0.53
9.768,-0.34,-0.32,-1.73,-1.83,0.22,-0.53
9.778,-0.34,-0.32,-1.73,-1.99,0.17,-0.3
9.779,-0.34,-0.32,-1.73,-1.99,0.17,-0.3
9.78,-0.05,-0.4,-1.55,-1.99,0.17,-0.3
9.78,-0.05,-0.4,-1.55,-1.99,0.17,-0.3
9.785,-0.05,-0.4,-1.55,-2.01,0.13,-0.14
9.786,-0.05,-0.4,-1.55,-2.01,0.13,-0.14
9.786,0.35,-0.81,-1.37,-2.01,0.13,-0.14
9.786,0.35,-0.81,-1.37,-2.01,0.13,-0.14
9.802,0.35,-0.81,-1.37,-1.92,0.07,-0.08
9.803,0.35,-0.81,-1.37,-1.92,0.07,-0.08
9.803,0.76,-2.38,-1.36,-1.92,0.07,-0.08
9.803,0.76,-2.38,-1.36,-1.92,0.07,-0.08
9.803,0.76,-2.38,-1.36,-1.74,0.02,-0.12
9.804,0.76,-2.38,-1.36,-1.74,0.02,-0.12
9.804,1.08,-4.42,-1.68,-1.74,0.02,-0.12
9.804,1.08,-4.42,-1.68,-1.74,0.02,-0.12
9.814,1.08,-4.42,-1.68,-1.51,-0.04,-0.26
9.815,1.08,-4.42,-1.68,-1.51,-0.04,-0.26
9.815,1.26,-4.72,-3.54,-1.51,-0.04,-0.26
9.815,1.26,-4.72,-3.54,-1.51,-0.04,-0.26
9.823,1.26,-4.72,-3.54,-1.32,-0.1,-0.42
9.824,1.26,-4.72,-3.54,-1.32,-0.1,-0.42
9.825,1.24,-5,-3.93,-1.32,-0.1,-0.42
9.826,1.24,-5,-3.93,-1.32,-0.1,-0.42
9.833,1.24,-5,-3.93,-1.3,-0.17,-0.56
9.834,1.24,-5,-3.93,-1.3,-0.17,-0.56
9.835,1.05,-5.07,-4.54,-1.3,-0.17,-0.56
9.835,1.05,-5.07,-4.54,-1.3,-0.17,-0.56
9.843,1.05,-5.07,-4.54,-1.45,-0.23,-0.64
9.844,1.05,-5.07,-4.54,-1.45,-0.23,-0.64
9.845,0.75,-4.98,-4.98,-1.45,-0.23,-0.64
9.846,0.75,-4.98,-4.98,-1.45,-0.23,-0.64
9.851,0.75,-4.98,-4.98,-1.45,-0.23,-0.64
9.852,0.75,-4.98,-4.98,-1.45,-0.23,-0.64
9.853,0.75,-4.98,-4.98,-1.45,-0.23,-0.64
9.854,0.75,-4.98,-4.98,-1.45,-0.23,-0.64
9.862,0.75,-4.98,-4.98,-1.69,-0.28,-0.64
9.862,0.75,-4.98,-4.98,-1.69,-0.28,-0.64
9.863,0,-5.11,-4.89,-1.69,-0.28,-0.64
9.863,0,-5.11,-4.89,-1.69,-0.28,-0.64
9.871,0,-5.11,-4.89,-1.9,-0.29,-0.55
9.871,0,-5.11,-4.89,-1.9,-0.29,-0.55
9.872,-0.44,-5.44,-4.37,-1.9,-0.29,-0.55
9.872,-0.44,-5.44,-4.37,-1.9,-0.29,-0.55
9.889,-0.44,-5.44,-4.37,-2.01,-0.26,-0.37
9.889,-0.44,-5.44,-4.37,-2.01,-0.26,-0.37
9.89,-0.91,-5.84,-2.83,-2.01,-0.26,-0.37
9.89,-0.91,-5.84,-2.83,-2.01,-0.26,-0.37
9.89,-0.91,-5.84,-2.83,-1.96,-0.21,-0.1
9.89,-0.91,-5.84,-2.83,-1.96,-0.21,-0.1
9.891,-1.37,-6.21,-1.1,-1.96,-0.21,-0.1
9.891,-1.37,-6.21,-1.1,-1.96,-0.21,-0.1
9.899,-1.37,-6.21,-1.1,-1.68,-0.14,0.21
9.9,-1.37,-6.21,-1.1,-1.68,-0.14,0.21
9.9,-1.74,-6.38,-0.62,-1.68,-0.14,0.21
9.9,-1.74,-6.38,-0.62,-1.68,-0.14,0.21
9.91,-1.74,-6.38,-0.62,-1.15,-0.08,0.52
9.911,-1.74,-6.38,-0.62,-1.15,-0.08,0.52
9.911,-1.95,-6.17,0.07,-1.15,-0.08,0.52
9.911,-1.95,-6.17,0.07,-1.15,-0.08,0.52
9.918,-1.95,-6.17,0.07,-0.49,-0.06,0.79
9.919,-1.95,-6.17,0.07,-0.49,-0.06,0.79
9.919,-1.89,-4.47,0.6,-0.49,-0.06,0.79
9.92,-1.89,-4.47,0.6,-0.49,-0.06,0.79
9.928,-1.89,-4.47,0.6,0.17,-0.07,0.99
9.929,-1.89,-4.47,0.6,0.17,-0.07,0.99
9.929,-1.66,-3.98,0.76,0.17,-0.07,0.99
9.93,-1.66,-3.98,0.76,0.17,-0.07,0.99
9.938,-1.66,-3.98,0.76,0.71,-0.11,1.12
9.939,-1.66,-3.98,0.76,0.71,-0.11,1.12
9.94,-1.46,-2.11,0.54,0.71,-0.11,1.12
9.94,-1.46,-2.11,0.54,0.71,-0.11,1.12
9.947,-1.46,-2.11,0.54,1.09,-0.18,1.16
9.948,-1.46,-2.11,0.54,1.09,-0.18,1.16
9.948,-1.42,-0.49,0.12,1.09,-0.18,1.16
9.949,-1.42,-0.49,0.12,1.09,-0.18,1.16
9.962,-1.42,-0.49,0.12,1.31,-0.26,1.13
9.963,-1.42,-0.49,0.12,1.31,-0.26,1.13
9.963,-1.65,-0.14,-0.3,1.31,-0.26,1.13
9.964,-1.65,-0.14,-0.3,1.31,-0.26,1.13
9.966,-1.65,-0.14,-0.3,1.35,-0.3,1.06
9.967,-1.65,-0.14,-0.3,1.35,-0.3,1.06
9.967,-2.1,0.42,-0.62,1.35,-0.3,1.06
9.968,-2.1,0.42,-0.62,1.35,-0.3,1.06
9.99,-2.1,0.42,-0.62,1.24,-0.31,1.01
9.991,-2.1,0.42,-0.62,1.24,-0.31,1.01
9.991,-2.55,0.96,-0.81,1.24,-0.31,1.01
9.992,-2.55,0.96,-0.81,1.24,-0.31,1.01
9.998,-2.55,0.96,-0.81,1,-0.27,1.02
9.999,-2.55,0.96,-0.81,1,-0.27,1.02
9.999,-2.89,1.42,-0.95,1,-0.27,1.02
10,-2.89,1.42,-0.95,1,-0.27,1.02
10.001,-2.89,1.42,-0.95,0.77,-0.21,1.13
10.002,-2.89,1.42,-0.95,0.77,-0.21,1.13
10.002,-3.06,1.75,-1.04,0.77,-0.21,1.13
10.003,-3.06,1.75,-1.04,0.77,-0.21,1.13
10.003,-3.06,1.75,-1.04,0.5,-0.15,1.32
10.004,-3.06,1.75,-1.04,0.5,-0.15,1.32
10.004,-3.01,1.95,-1.07,0.5,-0.15,1.32
10.004,-3.01,1.95,-1.07,0.5,-0.15,1.32
10.013,-3.01,1.95,-1.07,0.15,-0.1,1.55
10.014,-3.01,1.95,-1.07,0.15,-0.1,1.55
10.014,-2.77,2.1,-1.04,0.15,-0.1,1.55
10.015,-2.77,2.1,-1.04,0.15,-0.1,1.55
10.023,-2.77,2.1,-1.04,-0.15,-0.05,1.76
10.024,-2.77,2.1,-1.04,-0.15,-0.05,1.76
10.024,-2.35,2.25,-0.95,-0.15,-0.05,1.76
10.024,-2.35,2.25,-0.95,-0.15,-0.05,1.76
10.033,-2.35,2.25,-0.95,-0.4,0,1.88
10.033,-2.35,2.25,-0.95,-0.4,0,1.88
10.034,-1.89,2.4,-0.9,-0.4,0,1.88
10.034,-1.89,2.4,-0.9,-0.4,0,1.88
10.042,-1.89,2.4,-0.9,-0.4,0,1.88
10.042,-1.89,2.4,-0.9,-0.4,0,1.88
10.042,-1.89,2.4,-0.9,-0.4,0,1.88
10.043,-1.89,2.4,-0.9,-0.4,0,1.88
10.052,-1.89,2.4,-0.9,-0.57,0.03,1.87
10.052,-1.89,2.4,-0.9,-0.57,0.03,1.87
10.053,-1.15,2.77,-0.97,-0.57,0.03,1.87
10.053,-1.15,2.77,-0.97,-0.57,0.03,1.87
10.061,-1.15,2.77,-0.97,-0.69,0.05,1.7
10.062,-1.15,2.77,-0.97,-0.69,0.05,1.7
10.062,-0.94,2.97,-0.97,-0.69,0.05,1.7
10.062,-0.94,2.97,-0.97,-0.69,0.05,1.7
10.07,-0.94,2.97,-0.97,-0.81,0.05,1.38
10.071,-0.94,2.97,-0.97,-0.81,0.05,1.38
10.071,-0.82,3.14,-0.94,-0.81,0.05,1.38
10.072,-0.82,3.14,-0.94,-0.81,0.05,1.38
10.082,-0.82,3.14,-0.94,-0.92,0.03,0.97
10.082,-0.82,3.14,-0.94,-0.92,0.03,0.97
10.083,-0.8,3.24,-0.87,-0.92,0.03,0.97
10.084,-0.8,3.24,-0.87,-0.92,0.03,0.97
10.09,-0.8,3.24,-0.87,-1.02,-0.01,0.54
10.091,-0.8,3.24,-0.87,-1.02,-0.01,0.54
10.091,-0.8,3.21,-0.81,-1.02,-0.01,0.54
10.092,-0.8,3.21,-0.81,-1.02,-0.01,0.54
10.099,-0.8,3.21,-0.81,-1.09,-0.07,0.19
10.1,-0.8,3.21,-0.81,-1.09,-0.07,0.19
10.1,-0.81,3.05,-0.75,-1.09,-0.07,0.19
10.101,-0.81,3.05,-0.75,-1.09,-0.07,0.19
10.108,-0.81,3.05,-0.75,-1.12,-0.14,-0.08
10.109,-0.81,3.05,-0.75,-1.12,-0.14,-0.08
10.11,-0.79,2.8,-0.65,-1.12,-0.14,-0.08
10.11,-0.79,2.8,-0.65,-1.12,-0.14,-0.08
10.119,-0.79,2.8,-0.65,-1.09,-0.22,-0.26
10.119,-0.79,2.8,-0.65,-1.09,-0.22,-0.26
10.12,-0.69,2.53,-0.52,-1.09,-0.22,-0.26
10.12,-0.69,2.53,-0.52,-1.09,-0.22,-0.26
10.128,-0.69,2.53,-0.52,-1.01,-0.29,-0.38
10.129,-0.69,2.53,-0.52,-1.01,-0.29,-0.38
10.129,-0.59,2.25,-0.38,-1.01,-0.29,-0.38
10.13,-0.59,2.25,-0.38,-1.01,-0.29,-0.38
10.137,-0.59,2.25,-0.38,-0.88,-0.36,-0.47
10.138,-0.59,2.25,-0.38,-0.88,-0.36,-0.47
10.139,-0.44,2,-0.21,-0.88,-0.36,-0.47
10.139,-0.44,2,-0.21,-0.88,-0.36,-0.47
10.147,-0.44,2,-0.21,-0.69,-0.42,-0.56
10.148,-0.44,2,-0.21,-0.69,-0.42,-0.56
10.148,-0.29,1.79,-0.13,-0.69,-0.42,-0.56
10.149,-0.29,1.79,-0.13,-0.69,-0.42,-0.56
10.162,-0.29,1.79,-0.13,-0.48,-0.47,-0.64
10.163,-0.29,1.79,-0.13,-0.48,-0.47,-0.64
10.163,-0.2,1.62,-0.1,-0.48,-0.47,-0.64
10.164,-0.2,1.62,-0.1,-0.48,-0.47,-0.64
10.166,-0.2,1.62,-0.1,-0.26,-0.49,-0.73
10.167,-0.2,1.62,-0.1,-0.26,-0.49,-0.73
10.167,-0.17,1.51,-0.12,-0.26,-0.49,-0.73
10.168,-0.17,1.51,-0.12,-0.26,-0.49,-0.73
10.185,-0.17,1.51,-0.12,-0.07,-0.49,-0.81
10.186,-0.17,1.51,-0.12,-0.07,-0.49,-0.81
10.186,-0.27,1.47,-0.2,-0.07,-0.49,-0.81
10.186,-0.27,1.47,-0.2,-0.07,-0.49,-0.81
10.186,-0.27,1.47,-0.2,0.07,-0.48,-0.85
10.187,-0.27,1.47,-0.2,0.07,-0.48,-0.85
10.187,-0.45,1.46,-0.29,0.07,-0.48,-0.85
10.187,-0.45,1.46,-0.29,0.07,-0.48,-0.85
10.194,-0.45,1.46,-0.29,0.14,-0.47,-0.83
10.195,-0.45,1.46,-0.29,0.14,-0.47,-0.83
10.195,-0.64,1.47,-0.42,0.14,-0.47,-0.83
10.195,-0.64,1.47,-0.42,0.14,-0.47,-0.83
10.203,-0.64,1.47,-0.42,0.15,-0.46,-0.74
10.204,-0.64,1.47,-0.42,0.15,-0.46,-0.74
10.204,-0.72,1.49,-0.58,0.15,-0.46,-0.74
10.205,-0.72,1.49,-0.58,0.15,-0.46,-0.74
10.213,-0.72,1.49,-0.58,0.1,-0.44,-0.57
10.214,-0.72,1.49,-0.58,0.1,-0.44,-0.57
10.215,-0.66,1.51,-0.71,0.1,-0.44,-0.57
10.215,-0.66,1.51,-0.71,0.1,-0.44,-0.57
10.223,-0.66,1.51,-0.71,0,-0.4,-0.36
10.224,-0.66,1.51,-0.71,0,-0.4,-0.36
10.224,-0.41,1.56,-0.82,0,-0.4,-0.36
10.225,-0.41,1.56,-0.82,0,-0.4,-0.36
10.232,-0.41,1.56,-0.82,-0.13,-0.34,-0.16
10.233,-0.41,1.56,-0.82,-0.13,-0.34,-0.16
10.233,-0.05,1.6,-0.86,-0.13,-0.34,-0.16
10.234,-0.05,1.6,-0.86,-0.13,-0.34,-0.16
10.242,-0.05,1.6,-0.86,-0.13,-0.34,-0.16
10.242,-0.05,1.6,-0.86,-0.13,-0.34,-0.16
10.243,-0.05,1.6,-0.86,-0.13,-0.34,-0.16
10.243,-0.05,1.6,-0.86,-0.13,-0.34,-0.16
10.251,-0.05,1.6,-0.86,-0.27,-0.28,-0.04
10.252,-0.05,1.6,-0.86,-0.27,-0.28,-0.04
10.252,0.62,1.57,-0.8,-0.27,-0.28,-0.04
10.252,0.62,1.57,-0.8,-0.27,-0.28,-0.04
10.261,0.62,1.57,-0.8,-0.41,-0.2,-0.03
10.262,0.62,1.57,-0.8,-0.41,-0.2,-0.03
10.262,0.89,1.48,-0.7,-0.41,-0.2,-0.03
10.263,0.89,1.48,-0.7,-0.41,-0.2,-0.03
10.27,0.89,1.48,-0.7,-0.5,-0.1,-0.16
10.271,0.89,1.48,-0.7,-0.5,-0.1,-0.16
10.272,1.06,1.36,-0.62,-0.5,-0.1,-0.16
10.272,1.06,1.36,-0.62,-0.5,-0.1,-0.16
10.289,1.06,1.36,-0.62,-0.55,0,-0.39
10.289,1.06,1.36,-0.62,-0.55,0,-0.39
10.29,1.16,1.24,-0.57,-0.55,0,-0.39
10.29,1.16,1.24,-0.57,-0.55,0,-0.39
10.291,1.16,1.24,-0.57,-0.54,0.11,-0.65
10.291,1.16,1.24,-0.57,-0.54,0.11,-0.65
10.291,1.19,1.13,-0.55,-0.54,0.11,-0.65
10.292,1.19,1.13,-0.55,-0.54,0.11,-0.65
10.299,1.19,1.13,-0.55,-0.49,0.2,-0.86
10.299,1.19,1.13,-0.55,-0.49,0.2,-0.86
10.3,1.2,1.06,-0.56,-0.49,0.2,-0.86
10.3,1.2,1.06,-0.56,-0.49,0.2,-0.86
10.308,1.2,1.06,-0.56,-0.42,0.27,-0.99
10.309,1.2,1.06,-0.56,-0.42,0.27,-0.99
10.31,1.2,1.03,-0.61,-0.42,0.27,-0.99
10.31,1.2,1.03,-0.61,-0.42,0.27,-0.99
10.318,1.2,1.03,-0.61,-0.36,0.32,-1.04
10.319,1.2,1.03,-0.61,-0.36,0.32,-1.04
10.319,1.16,1.09,-0.69,-0.36,0.32,-1.04
10.32,1.16,1.09,-0.69,-0.36,0.32,-1.04
10.327,1.16,1.09,-0.69,-0.32,0.36,-1.01
10.328,1.16,1.09,-0.69,-0.32,0.36,-1.01
10.329,1.11,1.22,-0.82,-0.32,0.36,-1.01
10.33,1.11,1.22,-0.82,-0.32,0.36,-1.01
10.337,1.11,1.22,-0.82,-0.32,0.37,-0.94
10.338,1.11,1.22,-0.82,-0.32,0.37,-0.94
10.338,1.02,1.39,-0.94,-0.32,0.37,-0.94
10.339,1.02,1.39,-0.94,-0.32,0.37,-0.94
10.347,1.02,1.39,-0.94,-0.36,0.37,-0.84
10.348,1.02,1.39,-0.94,-0.36,0.37,-0.84
10.348,0.92,1.56,-1.01,-0.36,0.37,-0.84
10.349,0.92,1.56,-1.01,-0.36,0.37,-0.84
10.362,0.92,1.56,-1.01,-0.44,0.35,-0.71
10.363,0.92,1.56,-1.01,-0.44,0.35,-0.71
10.364,0.81,1.71,-0.98,-0.44,0.35,-0.71
10.364,0.81,1.71,-0.98,-0.44,0.35,-0.71
10.365,0.81,1.71,-0.98,-0.55,0.3,-0.57
10.366,0.81,1.71,-0.98,-0.55,0.3,-0.57
10.366,0.71,1.79,-0.86,-0.55,0.3,-0.57
10.367,0.71,1.79,-0.86,-0.55,0.3,-0.57
10.383,0.71,1.79,-0.86,-0.65,0.24,-0.42
10.384,0.71,1.79,-0.86,-0.65,0.24,-0.42
10.384,0.66,1.8,-0.68,-0.65,0.24,-0.42
10.385,0.66,1.8,-0.68,-0.65,0.24,-0.42
10.385,0.66,1.8,-0.68,-0.72,0.17,-0.27
10.385,0.66,1.8,-0.68,-0.72,0.17,-0.27
10.385,0.66,1.73,-0.48,-0.72,0.17,-0.27
10.386,0.66,1.73,-0.48,-0.72,0.17,-0.27
10.393,0.66,1.73,-0.48,-0.73,0.11,-0.14
10.394,0.66,1.73,-0.48,-0.73,0.11,-0.14
10.395,0.75,1.6,-0.37,-0.73,0.11,-0.14
10.395,0.75,1.6,-0.37,-0.73,0.11,-0.14
10.403,0.75,1.6,-0.37,-0.67,0.03,-0.04
10.404,0.75,1.6,-0.37,-0.67,0.03,-0.04
10.404,0.91,1.44,-0.35,-0.67,0.03,-0.04
10.405,0.91,1.44,-0.35,-0.67,0.03,-0.04
10.413,0.91,1.44,-0.35,-0.56,-0.04,0.01
10.414,0.91,1.44,-0.35,-0.56,-0.04,0.01
10.414,1.11,1.33,-0.45,-0.56,-0.04,0.01
10.415,1.11,1.33,-0.45,-0.56,-0.04,0.01
10.422,1.11,1.33,-0.45,-0.42,-0.12,-0.01
10.423,1.11,1.33,-0.45,-0.42,-0.12,-0.01
10.423,1.36,1.33,-0.68,-0.42,-0.12,-0.01
10.424,1.36,1.33,-0.68,-0.42,-0.12,-0.01
10.432,1.36,1.33,-0.68,-0.42,-0.12,-0.01
10.433,1.36,1.33,-0.68,-0.42,-0.12,-0.01
10.433,1.36,1.33,-0.68,-0.42,-0.12,-0.01
10.434,1.36,1.33,-0.68,-0.42,-0.12,-0.01
10.441,1.36,1.33,-0.68,-0.32,-0.2,-0.12
10.442,1.36,1.33,-0.68,-0.32,-0.2,-0.12
10.443,1.76,1.58,-0.98,-0.32,-0.2,-0.12
10.444,1.76,1.58,-0.98,-0.32,-0.2,-0.12
10.451,1.76,1.58,-0.98,-0.27,-0.21,-0.3
10.451,1.76,1.58,-0.98,-0.27,-0.21,-0.3
10.452,1.78,1.7,-0.76,-0.27,-0.21,-0.3
10.452,1.78,1.7,-0.76,-0.27,-0.21,-0.3
10.47,1.78,1.7,-0.76,-0.3,-0.18,-0.55
10.471,1.78,1.7,-0.76,-0.3,-0.18,-0.55
10.471,1.63,1.76,-0.19,-0.3,-0.18,-0.55
10.472,1.63,1.76,-0.19,-0.3,-0.18,-0.55
10.472,1.63,1.76,-0.19,-0.34,-0.22,-0.8
10.472,1.63,1.76,-0.19,-0.34,-0.22,-0.8
10.473,1.33,1.75,1.33,-0.34,-0.22,-0.8
10.473,1.33,1.75,1.33,-0.34,-0.22,-0.8
10.479,1.33,1.75,1.33,-0.29,-0.27,-1
10.48,1.33,1.75,1.33,-0.29,-0.27,-1
10.48,0.98,1.67,1.71,-0.29,-0.27,-1
10.481,0.98,1.67,1.71,-0.29,-0.27,-1
10.501,0.98,1.67,1.71,-0.02,-0.3,-1.06
10.502,0.98,1.67,1.71,-0.02,-0.3,-1.06
10.503,0.6,1.59,2.03,-0.02,-0.3,-1.06
10.503,0.6,1.59,2.03,-0.02,-0.3,-1.06
10.503,0.6,1.59,2.03,-0.02,-0.3,-1.06
10.503,0.6,1.59,2.03,-0.02,-0.3,-1.06
10.504,0.6,1.59,2.03,-0.02,-0.3,-1.06
10.504,0.6,1.59,2.03,-0.02,-0.3,-1.06
10.508,0.6,1.59,2.03,1.01,-0.25,-0.72
10.509,0.6,1.59,2.03,1.01,-0.25,-0.72
10.509,-0.04,1.56,1.92,1.01,-0.25,-0.72
10.509,-0.04,1.56,1.92,1.01,-0.25,-0.72
10.517,-0.04,1.56,1.92,1.97,-0.2,-0.5
10.518,-0.04,1.56,1.92,1.97,-0.2,-0.5
10.518,-0.33,1.62,1.63,1.97,-0.2,-0.5
10.518,-0.33,1.62,1.63,1.97,-0.2,-0.5
10.527,-0.33,1.62,1.63,1.97,-0.2,-0.5
10.527,-0.33,1.62,1.63,1.97,-0.2,-0.5
10.528,-0.33,1.62,1.63,1.97,-0.2,-0.5
10.528,-0.33,1.62,1.63,1.97,-0.2,-0.5
10.536,-0.33,1.62,1.63,2.06,-0.22,0.52
10.537,-0.8,1.66,0.97,2.06,-0.22,0.52
10.537,-0.8,1.66,0.97,2.06,-0.22,0.52
10.538,-0.8,1.66,0.97,2.06,-0.22,0.52
10.546,-0.8,1.66,0.97,1.79,-0.23,0.83
10.547,-0.8,1.66,0.97,1.79,-0.23,0.83
10.548,-1.13,1.52,0.76,1.79,-0.23,0.83
10.548,-1.13,1.52,0.76,1.79,-0.23,0.83
10.56,-1.13,1.52,0.76,1.39,-0.23,1.04
10.561,-1.13,1.52,0.76,1.39,-0.23,1.04
10.561,-1.51,1.24,0.68,1.39,-0.23,1.04
10.562,-1.51,1.24,0.68,1.39,-0.23,1.04
10.565,-1.51,1.24,0.68,0.98,-0.24,1.22
10.566,-1.51,1.24,0.68,0.98,-0.24,1.22
10.566,-1.86,0.79,0.65,0.98,-0.24,1.22
10.567,-1.86,0.79,0.65,0.98,-0.24,1.22
10.582,-1.86,0.79,0.65,0.61,-0.25,1.4
10.583,-1.86,0.79,0.65,0.61,-0.25,1.4
10.583,-2.19,-1.13,0.71,0.61,-0.25,1.4
10.584,-2.19,-1.13,0.71,0.61,-0.25,1.4
10.584,-2.19,-1.13,0.71,0.34,-0.24,1.57
10.584,-2.19,-1.13,0.71,0.34,-0.24,1.57
10.584,-2.44,-2.9,0.76,0.34,-0.24,1.57
10.585,-2.44,-2.9,0.76,0.34,-0.24,1.57
10.593,-2.44,-2.9,0.76,0.21,-0.23,1.7
10.594,-2.44,-2.9,0.76,0.21,-0.23,1.7
10.595,-2.64,-3.43,0.71,0.21,-0.23,1.7
10.595,-2.64,-3.43,0.71,0.21,-0.23,1.7
10.604,-2.64,-3.43,0.71,0.21,-0.23,1.74
10.605,-2.64,-3.43,0.71,0.21,-0.23,1.74
10.605,-2.72,-4.92,0.7,0.21,-0.23,1.74
10.606,-2.72,-4.92,0.7,0.21,-0.23,1.74
10.614,-2.72,-4.92,0.7,0.29,-0.21,1.67
10.615,-2.72,-4.92,0.7,0.29,-0.21,1.67
10.616,-2.55,-4.82,0.85,0.29,-0.21,1.67
10.616,-2.55,-4.82,0.85,0.29,-0.21,1.67
10.622,-2.55,-4.82,0.85,0.29,-0.21,1.67
10.623,-2.55,-4.82,0.85,0.29,-0.21,1.67
10.623,-2.55,-4.82,0.85,0.29,-0.21,1.67
10.624,-2.55,-4.82,0.85,0.29,-0.21,1.67
10.631,-2.55,-4.82,0.85,0.4,-0.18,1.53
10.632,-2.55,-4.82,0.85,0.4,-0.18,1.53
10.632,-1.61,-2.73,2.84,0.4,-0.18,1.53
10.633,-1.61,-2.73,2.84,0.4,-0.18,1.53
10.641,-1.61,-2.73,2.84,0.53,-0.14,1.31
10.642,-1.61,-2.73,2.84,0.53,-0.14,1.31
10.642,-1.15,-2.23,3.29,0.53,-0.14,1.31
10.643,-1.15,-2.23,3.29,0.53,-0.14,1.31
10.651,-1.15,-2.23,3.29,0.75,-0.11,1.04
10.652,-1.15,-2.23,3.29,0.75,-0.11,1.04
10.652,-1.04,-2.1,3.76,0.75,-0.11,1.04
10.653,-1.04,-2.1,3.76,0.75,-0.11,1.04
10.662,-1.04,-2.1,3.76,1.08,-0.07,0.73
10.663,-1.04,-2.1,3.76,1.08,-0.07,0.73
10.664,-1.33,-2.51,4.11,1.08,-0.07,0.73
10.664,-1.33,-2.51,4.11,1.08,-0.07,0.73
10.67,-1.33,-2.51,4.11,1.47,-0.03,0.43
10.67,-1.33,-2.51,4.11,1.47,-0.03,0.43
10.671,-3.17,-4.48,4.37,1.47,-0.03,0.43
10.671,-3.17,-4.48,4.37,1.47,-0.03,0.43
10.691,-3.17,-4.48,4.37,1.84,-0.03,0.23
10.692,-3.17,-4.48,4.37,1.84,-0.03,0.23
10.692,-3.61,-6.46,4.55,1.84,-0.03,0.23
10.692,-3.61,-6.46,4.55,1.84,-0.03,0.23
10.692,-3.61,-6.46,4.55,2.14,-0.08,0.21
10.693,-3.61,-6.46,4.55,2.14,-0.08,0.21
10.693,-4.17,-7.93,4.24,2.14,-0.08,0.21
10.693,-4.17,-7.93,4.24,2.14,-0.08,0.21
10.698,-4.17,-7.93,4.24,2.33,0.04,0.36
10.699,-4.17,-7.93,4.24,2.33,0.04,0.36
10.699,-4.19,-7.95,-0.33,2.33,0.04,0.36
10.7,-4.19,-7.95,-0.33,2.33,0.04,0.36
10.71,-4.19,-7.95,-0.33,2.27,0.33,0.56
10.711,-4.19,-7.95,-0.33,2.27,0.33,0.56
10.711,-2.11,-6.15,-3.71,2.27,0.33,0.56
10.712,-2.11,-6.15,-3.71,2.27,0.33,0.56
10.726,-2.11,-6.15,-3.71,0.78,0.72,0.62
10.727,-2.11,-6.15,-3.71,0.78,0.72,0.62
10.727,0.04,-3.93,-4.13,0.78,0.72,0.62
10.728,0.04,-3.93,-4.13,0.78,0.72,0.62
10.728,0.04,-3.93,-4.13,0.78,0.72,0.62
10.729,0.04,-3.93,-4.13,0.78,0.72,0.62
10.729,0.04,-3.93,-4.13,0.78,0.72,0.62
10.73,0.04,-3.93,-4.13,0.78,0.72,0.62
10.739,0.04,-3.93,-4.13,-0.47,0.71,0.32
10.74,0.04,-3.93,-4.13,-0.47,0.71,0.32
10.74,2.41,-1.39,1.66,-0.47,0.71,0.32
10.741,2.41,-1.39,1.66,-0.47,0.71,0.32
10.746,2.41,-1.39,1.66,-1.53,0.53,0.25
10.747,2.41,-1.39,1.66,-1.53,0.53,0.25
10.747,3,0.25,5.79,-1.53,0.53,0.25
10.748,3,0.25,5.79,-1.53,0.53,0.25
10.76,3,0.25,5.79,-1.67,0.44,-0.02
10.762,3,0.25,5.79,-1.67,0.44,-0.02
10.763,4.49,0.72,7.57,-1.67,0.44,-0.02
10.764,4.49,0.72,7.57,-1.67,0.44,-0.02
10.764,4.49,0.72,7.57,-0.93,0.35,-0.85
10.766,4.49,0.72,7.57,-0.93,0.35,-0.85
10.766,4.73,1.11,7.74,-0.93,0.35,-0.85
10.766,4.73,1.11,7.74,-0.93,0.35,-0.85
10.778,4.73,1.11,7.74,0.3,0.14,-1.7
10.779,4.73,1.11,7.74,0.3,0.14,-1.7
10.78,4.75,1.17,7.95,0.3,0.14,-1.7
10.78,4.75,1.17,7.95,0.3,0.14,-1.7
10.783,4.75,1.17,7.95,1.87,0.03,-2.54
10.784,4.75,1.17,7.95,1.87,0.03,-2.54
10.784,4.46,0.75,8.01,1.87,0.03,-2.54
10.784,4.46,0.75,8.01,1.87,0.03,-2.54
10.793,4.46,0.75,8.01,3.3,-0.01,-3.24
10.794,4.46,0.75,8.01,3.3,-0.01,-3.24
10.794,3.93,-0.71,7.85,3.3,-0.01,-3.24
10.794,3.93,-0.71,7.85,3.3,-0.01,-3.24
10.802,3.93,-0.71,7.85,4.34,-0.02,-3.65
10.803,3.93,-0.71,7.85,4.34,-0.02,-3.65
10.803,3.43,-1.08,6.02,4.34,-0.02,-3.65
10.804,3.43,-1.08,6.02,4.34,-0.02,-3.65
10.812,3.43,-1.08,6.02,4.89,-0.02,-3.7
10.813,3.43,-1.08,6.02,4.89,-0.02,-3.7
10.814,2.93,-1.3,3.72,4.89,-0.02,-3.7
10.814,2.93,-1.3,3.72,4.89,-0.02,-3.7
10.822,2.93,-1.3,3.72,4.89,-0.02,-3.7
10.823,2.93,-1.3,3.72,4.89,-0.02,-3.7
10.823,2.93,-1.3,3.72,4.89,-0.02,-3.7
10.823,2.93,-1.3,3.72,4.89,-0.02,-3.7
10.831,2.93,-1.3,3.72,4.85,-0.04,-3.4
10.832,2.93,-1.3,3.72,4.85,-0.04,-3.4
10.832,0.67,-0.91,0.72,4.85,-0.04,-3.4
10.832,0.67,-0.91,0.72,4.85,-0.04,-3.4
10.841,0.67,-0.91,0.72,4.18,-0.1,-2.83
10.841,0.67,-0.91,0.72,4.18,-0.1,-2.83
10.842,-1.08,-0.48,0.11,4.18,-0.1,-2.83
10.842,-1.08,-0.48,0.11,4.18,-0.1,-2.83
10.85,-1.08,-0.48,0.11,2.98,-0.16,-2.01
10.851,-1.08,-0.48,0.11,2.98,-0.16,-2.01
10.851,-2.77,-0.11,0.1,2.98,-0.16,-2.01
10.851,-2.77,-0.11,0.1,2.98,-0.16,-2.01
10.86,-2.77,-0.11,0.1,1.52,-0.16,-0.92
10.861,-2.77,-0.11,0.1,1.52,-0.16,-0.92
10.861,-2.93,0.13,1.98,1.52,-0.16,-0.92
10.862,-2.93,0.13,1.98,1.52,-0.16,-0.92
10.869,-2.93,0.13,1.98,0.2,-0.01,0.37
10.87,-2.93,0.13,1.98,0.2,-0.01,0.37
10.87,-3,0.32,2.28,0.2,-0.01,0.37
10.871,-3,0.32,2.28,0.2,-0.01,0.37
10.885,-3,0.32,2.28,-0.64,0.31,1.66
10.885,-3,0.32,2.28,-0.64,0.31,1.66
10.886,-2.88,0.41,2.57,-0.64,0.31,1.66
10.886,-2.88,0.41,2.57,-0.64,0.31,1.66
10.893,-2.88,0.41,2.57,-0.89,0.72,2.7
10.894,-2.88,0.41,2.57,-0.89,0.72,2.7
10.894,-2.49,0.45,2.47,-0.89,0.72,2.7
10.894,-2.49,0.45,2.47,-0.89,0.72,2.7
10.898,-2.49,0.45,2.47,-0.74,1.07,3.36
10.899,-2.49,0.45,2.47,-0.74,1.07,3.36
10.899,-0.82,0.48,1.95,-0.74,1.07,3.36
10.899,-0.82,0.48,1.95,-0.74,1.07,3.36
10.911,-0.82,0.48,1.95,-0.46,1.28,3.62
10.912,-0.82,0.48,1.95,-0.46,1.28,3.62
10.912,-0.48,0.47,1.21,-0.46,1.28,3.62
10.913,-0.48,0.47,1.21,-0.46,1.28,3.62
10.918,-0.48,0.47,1.21,-0.25,1.31,3.48
10.919,-0.48,0.47,1.21,-0.25,1.31,3.48
10.919,0.09,0.42,0.58,-0.25,1.31,3.48
10.92,0.09,0.42,0.58,-0.25,1.31,3.48
10.926,0.09,0.42,0.58,-0.23,1.18,3.01
10.928,0.09,0.42,0.58,-0.23,1.18,3.01
10.928,0.75,0.35,0.31,-0.23,1.18,3.01
10.929,0.75,0.35,0.31,-0.23,1.18,3.01
10.937,0.75,0.35,0.31,-0.39,0.96,2.35
10.937,0.75,0.35,0.31,-0.39,0.96,2.35
10.938,1.41,0.3,0.41,-0.39,0.96,2.35
10.938,1.41,0.3,0.41,-0.39,0.96,2.35
10.945,1.41,0.3,0.41,-0.63,0.68,1.61
10.946,1.41,0.3,0.41,-0.63,0.68,1.61
10.946,2.04,0.32,0.74,-0.63,0.68,1.61
10.946,2.04,0.32,0.74,-0.63,0.68,1.61
10.958,2.04,0.32,0.74,-0.84,0.37,0.85
10.959,2.04,0.32,0.74,-0.84,0.37,0.85
10.959,2.61,0.41,1.04,-0.84,0.37,0.85
10.96,2.61,0.41,1.04,-0.84,0.37,0.85
10.964,2.61,0.41,1.04,-0.93,0.04,0.07
10.965,2.61,0.41,1.04,-0.93,0.04,0.07
10.965,3.08,0.52,1.08,-0.93,0.04,0.07
10.965,3.08,0.52,1.08,-0.93,0.04,0.07
10.982,3.08,0.52,1.08,-0.86,-0.28,-0.67
10.983,3.08,0.52,1.08,-0.86,-0.28,-0.67
10.983,3.4,0.64,0.88,-0.86,-0.28,-0.67
10.983,3.4,0.64,0.88,-0.86,-0.28,-0.67
10.983,3.4,0.64,0.88,-0.69,-0.58,-1.35
10.984,3.4,0.64,0.88,-0.69,-0.58,-1.35
10.984,3.45,0.66,0.48,-0.69,-0.58,-1.35
10.984,3.45,0.66,0.48,-0.69,-0.58,-1.35
10.993,3.45,0.66,0.48,-0.5,-0.83,-1.92
10.994,3.45,0.66,0.48,-0.5,-0.83,-1.92
10.994,3.25,0.61,0.06,-0.5,-0.83,-1.92
10.994,3.25,0.61,0.06,-0.5,-0.83,-1.92
11.003,3.25,0.61,0.06,-0.37,-1.02,-2.34
11.004,3.25,0.61,0.06,-0.37,-1.02,-2.34
11.005,2.79,0.54,-0.28,-0.37,-1.02,-2.34
11.005,2.79,0.54,-0.28,-0.37,-1.02,-2.34
11.013,2.79,0.54,-0.28,-0.35,-1.15,-2.56
11.014,2.79,0.54,-0.28,-0.35,-1.15,-2.56
11.015,2.21,0.47,-0.56,-0.35,-1.15,-2.56
11.015,2.21,0.47,-0.56,-0.35,-1.15,-2.56
11.022,2.21,0.47,-0.56,-0.35,-1.15,-2.56
11.022,2.21,0.47,-0.56,-0.35,-1.15,-2.56
11.023,2.21,0.47,-0.56,-0.35,-1.15,-2.56
11.023,2.21,0.47,-0.56,-0.35,-1.15,-2.56
11.031,2.21,0.47,-0.56,-0.42,-1.22,-2.57
11.032,2.21,0.47,-0.56,-0.42,-1.22,-2.57
11.032,1.16,0.62,-1.06,-0.42,-1.22,-2.57
11.032,1.16,0.62,-1.06,-0.42,-1.22,-2.57
11.04,1.16,0.62,-1.06,-0.56,-1.22,-2.35
11.041,1.16,0.62,-1.06,-0.56,-1.22,-2.35
11.042,0.68,0.87,-1.37,-0.56,-1.22,-2.35
11.042,0.68,0.87,-1.37,-0.56,-1.22,-2.35
11.05,0.68,0.87,-1.37,-0.75,-1.16,-1.91
11.051,0.68,0.87,-1.37,-0.75,-1.16,-1.91
11.051,0.3,1.2,-1.63,-0.75,-1.16,-1.91
11.052,0.3,1.2,-1.63,-0.75,-1.16,-1.91
11.06,0.3,1.2,-1.63,-0.98,-1.03,-1.33
11.061,0.3,1.2,-1.63,-0.98,-1.03,-1.33
11.062,0.03,1.58,-1.72,-0.98,-1.03,-1.33
11.062,0.03,1.58,-1.72,-0.98,-1.03,-1.33
11.069,0.03,1.58,-1.72,-1.2,-0.87,-0.7
11.07,0.03,1.58,-1.72,-1.2,-0.87,-0.7
11.071,-0.11,1.99,-1.69,-1.2,-0.87,-0.7
11.071,-0.11,1.99,-1.69,-1.2,-0.87,-0.7
11.089,-0.11,1.99,-1.69,-1.38,-0.68,-0.12
11.09,-0.11,1.99,-1.69,-1.38,-0.68,-0.12
11.091,-0.03,2.35,-1.59,-1.38,-0.68,-0.12
11.091,-0.03,2.35,-1.59,-1.38,-0.68,-0.12
11.091,-0.03,2.35,-1.59,-1.5,-0.49,0.34
11.091,-0.03,2.35,-1.59,-1.5,-0.49,0.34
11.092,0.2,2.52,-1.42,-1.5,-0.49,0.34
11.092,0.2,2.52,-1.42,-1.5,-0.49,0.34
11.098,0.2,2.52,-1.42,-1.52,-0.34,0.67
11.099,0.2,2.52,-1.42,-1.52,-0.34,0.67
11.099,0.52,2.46,-1.17,-1.52,-0.34,0.67
11.1,0.52,2.46,-1.17,-1.52,-0.34,0.67
11.109,0.52,2.46,-1.17,-1.45,-0.23,0.84
11.11,0.52,2.46,-1.17,-1.45,-0.23,0.84
11.11,0.81,2.24,-0.79,-1.45,-0.23,0.84
11.111,0.81,2.24,-0.79,-1.45,-0.23,0.84
11.116,0.81,2.24,-0.79,-1.28,-0.17,0.84
11.117,0.81,2.24,-0.79,-1.28,-0.17,0.84
11.117,0.97,1.98,-0.37,-1.28,-0.17,0.84
11.118,0.97,1.98,-0.37,-1.28,-0.17,0.84
11.127,0.97,1.98,-0.37,-0.99,-0.1,0.69
11.128,0.97,1.98,-0.37,-0.99,-0.1,0.69
11.128,0.95,1.81,-0.09,-0.99,-0.1,0.69
11.129,0.95,1.81,-0.09,-0.99,-0.1,0.69
11.136,0.95,1.81,-0.09,-0.6,-0.01,0.46
11.136,0.95,1.81,-0.09,-0.6,-0.01,0.46
11.137,0.73,1.8,-0.06,-0.6,-0.01,0.46
11.137,0.73,1.8,-0.06,-0.6,-0.01,0.46
11.146,0.73,1.8,-0.06,-0.16,0.12,0.21
11.146,0.73,1.8,-0.06,-0.16,0.12,0.21
11.147,0.41,1.85,-0.28,-0.16,0.12,0.21
11.147,0.41,1.85,-0.28,-0.16,0.12,0.21
11.158,0.41,1.85,-0.28,0.24,0.26,0.04
11.159,0.41,1.85,-0.28,0.24,0.26,0.04
11.159,0.05,1.88,-0.48,0.24,0.26,0.04
11.159,0.05,1.88,-0.48,0.24,0.26,0.04
11.164,0.05,1.88,-0.48,0.52,0.41,-0.01
11.164,0.05,1.88,-0.48,0.52,0.41,-0.01
11.165,-0.24,1.84,-0.54,0.52,0.41,-0.01
11.165,-0.24,1.84,-0.54,0.52,0.41,-0.01
11.182,-0.24,1.84,-0.54,0.65,0.56,0.06
11.183,-0.24,1.84,-0.54,0.65,0.56,0.06
11.183,-0.44,1.83,-0.4,0.65,0.56,0.06
11.184,-0.44,1.83,-0.4,0.65,0.56,0.06
11.184,-0.44,1.83,-0.4,0.66,0.7,0.22
11.184,-0.44,1.83,-0.4,0.66,0.7,0.22
11.184,-0.49,1.88,-0.14,0.66,0.7,0.22
11.185,-0.49,1.88,-0.14,0.66,0.7,0.22
11.192,-0.49,1.88,-0.14,0.62,0.81,0.41
11.193,-0.49,1.88,-0.14,0.62,0.81,0.41
11.193,-0.42,1.99,0.13,0.62,0.81,0.41
11.194,-0.42,1.99,0.13,0.62,0.81,0.41
11.202,-0.42,1.99,0.13,0.62,0.81,0.41
11.203,-0.42,1.99,0.13,0.62,0.81,0.41
11.204,-0.42,1.99,0.13,0.62,0.81,0.41
11.205,-0.42,1.99,0.13,0.62,0.81,0.41
11.211,-0.42,1.99,0.13,0.62,0.9,0.58
11.212,-0.42,1.99,0.13,0.62,0.9,0.58
11.213,-0.1,2.14,0.26,0.62,0.9,0.58
11.214,-0.1,2.14,0.26,0.62,0.9,0.58
11.223,-0.1,2.14,0.26,0.66,0.95,0.66
11.224,-0.1,2.14,0.26,0.66,0.95,0.66
11.224,-0.03,1.98,0.09,0.66,0.95,0.66
11.225,-0.03,1.98,0.09,0.66,0.95,0.66
11.23,-0.03,1.98,0.09,0.73,0.94,0.63
11.231,-0.03,1.98,0.09,0.73,0.94,0.63
11.232,0,1.62,-0.16,0.73,0.94,0.63
11.232,0,1.62,-0.16,0.73,0.94,0.63
11.24,0,1.62,-0.16,0.76,0.89,0.5
11.24,0,1.62,-0.16,0.76,0.89,0.5
11.241,-0.02,1.15,-0.41,0.76,0.89,0.5
11.241,-0.02,1.15,-0.41,0.76,0.89,0.5
11.25,-0.02,1.15,-0.41,0.7,0.81,0.32
11.25,-0.02,1.15,-0.41,0.7,0.81,0.32
11.251,-0.01,0.69,-0.51,0.7,0.81,0.32
11.251,-0.01,0.69,-0.51,0.7,0.81,0.32
11.264,-0.01,0.69,-0.51,0.32,0.66,0
11.264,-0.01,0.69,-0.51,0.32,0.66,0
11.265,0.07,0.36,-0.44,0.32,0.66,0
11.265,0.07,0.36,-0.44,0.32,0.66,0
11.269,0.07,0.36,-0.44,0.32,0.66,0
11.27,0.07,0.36,-0.44,0.32,0.66,0
11.27,0.07,0.36,-0.44,0.32,0.66,0
11.27,0.07,0.36,-0.44,0.32,0.66,0
11.287,0.07,0.36,-0.44,0.11,0.6,-0.12
11.288,0.07,0.36,-0.44,0.11,0.6,-0.12
11.288,0.53,0.16,-0.13,0.11,0.6,-0.12
11.288,0.53,0.16,-0.13,0.11,0.6,-0.12
11.289,0.53,0.16,-0.13,-0.04,0.54,-0.22
11.289,0.53,0.16,-0.13,-0.04,0.54,-0.22
11.289,0.86,0.23,0.04,-0.04,0.54,-0.22
11.289,0.86,0.23,0.04,-0.04,0.54,-0.22
11.297,0.86,0.23,0.04,-0.11,0.47,-0.36
11.297,0.86,0.23,0.04,-0.11,0.47,-0.36
11.298,1.23,0.34,0.18,-0.11,0.47,-0.36
11.298,1.23,0.34,0.18,-0.11,0.47,-0.36
11.307,1.23,0.34,0.18,-0.09,0.4,-0.54
11.308,1.23,0.34,0.18,-0.09,0.4,-0.54
11.308,1.71,0.29,0.16,-0.09,0.4,-0.54
11.308,1.71,0.29,0.16,-0.09,0.4,-0.54
11.316,1.71,0.29,0.16,-0.02,0.33,-0.77
11.317,1.71,0.29,0.16,-0.02,0.33,-0.77
11.317,2.32,-0.06,-0.12,-0.02,0.33,-0.77
11.318,2.32,-0.06,-0.12,-0.02,0.33,-0.77
11.326,2.32,-0.06,-0.12,0.05,0.23,-1.05
11.327,2.32,-0.06,-0.12,0.05,0.23,-1.05
11.327,2.95,-1.63,-0.66,0.05,0.23,-1.05
11.328,2.95,-1.63,-0.66,0.05,0.23,-1.05
11.335,2.95,-1.63,-0.66,0.07,0.1,-1.35
11.336,2.95,-1.63,-0.66,0.07,0.1,-1.35
11.336,3.49,-3.33,-2.15,0.07,0.1,-1.35
11.337,3.49,-3.33,-2.15,0.07,0.1,-1.35
11.345,3.49,-3.33,-2.15,-0.06,-0.06,-1.65
11.346,3.49,-3.33,-2.15,-0.06,-0.06,-1.65
11.346,3.78,-4.85,-2.52,-0.06,-0.06,-1.65
11.347,3.78,-4.85,-2.52,-0.06,-0.06,-1.65
11.359,3.78,-4.85,-2.52,-0.35,-0.25,-1.89
11.36,3.78,-4.85,-2.52,-0.35,-0.25,-1.89
11.36,3.68,-5.27,-2.89,-0.35,-0.25,-1.89
11.361,3.68,-5.27,-2.89,-0.35,-0.25,-1.89
11.363,3.68,-5.27,-2.89,-0.75,-0.44,-2
11.364,3.68,-5.27,-2.89,-0.75,-0.44,-2
11.364,3.13,-5.54,-3.24,-0.75,-0.44,-2
11.364,3.13,-5.54,-3.24,-0.75,-0.44,-2
11.379,3.13,-5.54,-3.24,-1.13,-0.57,-1.96
11.381,3.13,-5.54,-3.24,-1.13,-0.57,-1.96
11.381,1.2,-5.5,-3.54,-1.13,-0.57,-1.96
11.382,1.2,-5.5,-3.54,-1.13,-0.57,-1.96
11.382,1.2,-5.5,-3.54,-1.41,-0.6,-1.72
11.382,1.2,-5.5,-3.54,-1.41,-0.6,-1.72
11.383,-0.42,-5.24,-3.77,-1.41,-0.6,-1.72
11.383,-0.42,-5.24,-3.77,-1.41,-0.6,-1.72
11.395,-0.42,-5.24,-3.77,-1.61,-0.54,-1.26
11.396,-0.42,-5.24,-3.77,-1.61,-0.54,-1.26
11.396,-2.43,-4.97,-3.92,-1.61,-0.54,-1.26
11.397,-2.43,-4.97,-3.92,-1.61,-0.54,-1.26
11.402,-2.43,-4.97,-3.92,-1.61,-0.54,-1.26
11.402,-2.43,-4.97,-3.92,-1.61,-0.54,-1.26
11.403,-2.43,-4.97,-3.92,-1.61,-0.54,-1.26
11.403,-2.43,-4.97,-3.92,-1.61,-0.54,-1.26
11.411,-2.43,-4.97,-3.92,-1.75,-0.39,-0.55
11.412,-2.43,-4.97,-3.92,-1.75,-0.39,-0.55
11.413,-3.3,-4.78,-4.07,-1.75,-0.39,-0.55
11.413,-3.3,-4.78,-4.07,-1.75,-0.39,-0.55
11.421,-3.3,-4.78,-4.07,-1.84,-0.15,0.36
11.422,-3.3,-4.78,-4.07,-1.84,-0.15,0.36
11.422,-3.7,-4.93,-3.99,-1.84,-0.15,0.36
11.423,-3.7,-4.93,-3.99,-1.84,-0.15,0.36
11.43,-3.7,-4.93,-3.99,-1.87,0.13,1.32
11.431,-3.7,-4.93,-3.99,-1.87,0.13,1.32
11.431,-3.9,-5.15,-3.7,-1.87,0.13,1.32
11.432,-3.9,-5.15,-3.7,-1.87,0.13,1.32
11.439,-3.9,-5.15,-3.7,-1.82,0.4,2.16
11.44,-3.9,-5.15,-3.7,-1.82,0.4,2.16
11.441,-3.77,-5.27,-1.85,-1.82,0.4,2.16
11.441,-3.77,-5.27,-1.85,-1.82,0.4,2.16
11.449,-3.77,-5.27,-1.85,-1.64,0.61,2.75
11.449,-3.77,-5.27,-1.85,-1.64,0.61,2.75
11.45,-3.31,-5.16,-1.34,-1.64,0.61,2.75
11.45,-3.31,-5.16,-1.34,-1.64,0.61,2.75
11.458,-3.31,-5.16,-1.34,-1.3,0.72,3.06
11.459,-3.31,-5.16,-1.34,-1.3,0.72,3.06
11.459,-1.79,-4.72,0.28,-1.3,0.72,3.06
11.46,-1.79,-4.72,0.28,-1.3,0.72,3.06
11.468,-1.79,-4.72,0.28,-0.79,0.71,3.08
11.469,-1.79,-4.72,0.28,-0.79,0.71,3.08
11.469,-0.1,-3.14,0.61,-0.79,0.71,3.08
11.47,-0.1,-3.14,0.61,-0.79,0.71,3.08
11.477,-0.1,-3.14,0.61,-0.19,0.6,2.81
11.478,-0.1,-3.14,0.61,-0.19,0.6,2.81
11.479,0.18,-1.42,0.68,-0.19,0.6,2.81
11.479,0.18,-1.42,0.68,-0.19,0.6,2.81
11.5,0.18,-1.42,0.68,0.38,0.43,2.27
11.5,0.18,-1.42,0.68,0.38,0.43,2.27
11.501,0.41,-1.18,0.33,0.38,0.43,2.27
11.501,0.41,-1.18,0.33,0.38,0.43,2.27
11.501,0.41,-1.18,0.33,0.85,0.25,1.6
11.502,0.41,-1.18,0.33,0.85,0.25,1.6
11.502,0.41,-0.88,-1.51,0.85,0.25,1.6
11.502,0.41,-0.88,-1.51,0.85,0.25,1.6
11.506,0.41,-0.88,-1.51,1.11,0.13,0.93
11.507,0.41,-0.88,-1.51,1.11,0.13,0.93
11.507,0.12,-0.68,-1.79,1.11,0.13,0.93
11.507,0.12,-0.68,-1.79,1.11,0.13,0.93
11.515,0.12,-0.68,-1.79,1.1,0.06,0.38
11.516,0.12,-0.68,-1.79,1.1,0.06,0.38
11.516,-0.32,-0.61,-2.07,1.1,0.06,0.38
11.516,-0.32,-0.61,-2.07,1.1,0.06,0.38
11.525,-0.32,-0.61,-2.07,0.97,0.05,0
11.526,-0.32,-0.61,-2.07,0.97,0.05,0
11.526,-0.73,-0.55,-2.13,0.97,0.05,0
11.527,-0.73,-0.55,-2.13,0.97,0.05,0
11.534,-0.73,-0.55,-2.13,0.67,0.06,-0.2
11.535,-0.73,-0.55,-2.13,0.67,0.06,-0.2
11.535,-0.99,-0.39,-1.91,0.67,0.06,-0.2
11.535,-0.99,-0.39,-1.91,0.67,0.06,-0.2
11.544,-0.99,-0.39,-1.91,0.24,0.08,-0.23
11.544,-0.99,-0.39,-1.91,0.24,0.08,-0.23
11.545,-1.06,-0.09,-1.54,0.24,0.08,-0.23
11.545,-1.06,-0.09,-1.54,0.24,0.08,-0.23
11.558,-1.06,-0.09,-1.54,-0.09,0.11,-0.14
11.559,-1.06,-0.09,-1.54,-0.09,0.11,-0.14
11.56,-0.95,0.28,-1.22,-0.09,0.11,-0.14
11.56,-0.95,0.28,-1.22,-0.09,0.11,-0.14
11.563,-0.95,0.28,-1.22,-0.3,0.16,0
11.564,-0.95,0.28,-1.22,-0.3,0.16,0
11.564,-0.72,0.74,-0.96,-0.3,0.16,0
11.565,-0.72,0.74,-0.96,-0.3,0.16,0
11.58,-0.72,0.74,-0.96,-0.38,0.21,0.13
11.58,-0.72,0.74,-0.96,-0.38,0.21,0.13
11.581,-0.45,1.25,-0.79,-0.38,0.21,0.13
11.581,-0.45,1.25,-0.79,-0.38,0.21,0.13
11.582,-0.45,1.25,-0.79,-0.36,0.25,0.2
11.583,-0.45,1.25,-0.79,-0.36,0.25,0.2
11.583,-0.23,1.77,-0.64,-0.36,0.25,0.2
11.584,-0.23,1.77,-0.64,-0.36,0.25,0.2
11.592,-0.23,1.77,-0.64,-0.36,0.25,0.2
11.593,-0.23,1.77,-0.64,-0.36,0.25,0.2
11.593,-0.23,1.77,-0.64,-0.36,0.25,0.2
11.594,-0.23,1.77,-0.64,-0.36,0.25,0.2
11.601,-0.23,1.77,-0.64,-0.3,0.24,0.19
11.602,-0.23,1.77,-0.64,-0.3,0.24,0.19
11.603,-0.1,2.96,-0.12,-0.3,0.24,0.19
11.603,-0.1,2.96,-0.12,-0.3,0.24,0.19
11.611,-0.1,2.96,-0.12,-0.23,0.19,0.1
11.612,-0.1,2.96,-0.12,-0.23,0.19,0.1
11.612,-0.18,3.58,0.17,-0.23,0.19,0.1
11.613,-0.18,3.58,0.17,-0.23,0.19,0.1
11.621,-0.18,3.58,0.17,-0.13,0.11,-0.01
11.621,-0.18,3.58,0.17,-0.13,0.11,-0.01
11.622,-0.35,4.14,0.42,-0.13,0.11,-0.01
11.622,-0.35,4.14,0.42,-0.13,0.11,-0.01
11.63,-0.35,4.14,0.42,0,0.02,-0.12
11.631,-0.35,4.14,0.42,0,0.02,-0.12
11.631,-0.58,4.57,0.62,0,0.02,-0.12
11.632,-0.58,4.57,0.62,0,0.02,-0.12
11.639,-0.58,4.57,0.62,0.17,-0.07,-0.16
11.64,-0.58,4.57,0.62,0.17,-0.07,-0.16
11.641,-0.79,4.87,0.8,0.17,-0.07,-0.16
11.641,-0.79,4.87,0.8,0.17,-0.07,-0.16
11.649,-0.79,4.87,0.8,0.35,-0.15,-0.12
11.649,-0.79,4.87,0.8,0.35,-0.15,-0.12
11.65,-1,4.99,0.96,0.35,-0.15,-0.12
11.65,-1,4.99,0.96,0.35,-0.15,-0.12
11.659,-1,4.99,0.96,0.53,-0.21,0.02
11.661,-1,4.99,0.96,0.53,-0.21,0.02
11.662,-1.18,4.95,1.08,0.53,-0.21,0.02
11.663,-1.18,4.95,1.08,0.53,-0.21,0.02
11.668,-1.18,4.95,1.08,0.71,-0.27,0.25
11.668,-1.18,4.95,1.08,0.71,-0.27,0.25
11.669,-1.3,4.78,1.13,0.71,-0.27,0.25
11.669,-1.3,4.78,1.13,0.71,-0.27,0.25
11.677,-1.3,4.78,1.13,0.88,-0.32,0.54
11.679,-1.3,4.78,1.13,0.88,-0.32,0.54
11.679,-1.38,4.57,1.16,0.88,-0.32,0.54
11.68,-1.38,4.57,1.16,0.88,-0.32,0.54
11.7,-1.38,4.57,1.16,1.03,-0.38,0.85
11.701,-1.38,4.57,1.16,1.03,-0.38,0.85
11.701,-1.38,4.34,1.2,1.03,-0.38,0.85
11.702,-1.38,4.34,1.2,1.03,-0.38,0.85
11.702,-1.38,4.34,1.2,1.14,-0.41,1.13
11.703,-1.38,4.34,1.2,1.14,-0.41,1.13
11.703,-1.32,4.16,1.26,1.14,-0.41,1.13
11.703,-1.32,4.16,1.26,1.14,-0.41,1.13
11.708,-1.32,4.16,1.26,1.2,-0.42,1.33
11.709,-1.32,4.16,1.26,1.2,-0.42,1.33
11.709,-1.25,4,1.34,1.2,-0.42,1.33
11.71,-1.25,4,1.34,1.2,-0.42,1.33
11.715,-1.25,4,1.34,1.21,-0.42,1.44
11.716,-1.25,4,1.34,1.21,-0.42,1.44
11.716,-1.2,3.87,1.41,1.21,-0.42,1.44
11.716,-1.2,3.87,1.41,1.21,-0.42,1.44
11.724,-1.2,3.87,1.41,1.2,-0.4,1.44
11.725,-1.2,3.87,1.41,1.2,-0.4,1.44
11.726,-1.21,3.77,1.38,1.2,-0.4,1.44
11.726,-1.21,3.77,1.38,1.2,-0.4,1.44
11.734,-1.21,3.77,1.38,1.17,-0.37,1.36
11.735,-1.21,3.77,1.38,1.17,-0.37,1.36
11.736,-1.24,3.66,1.29,1.17,-0.37,1.36
11.736,-1.24,3.66,1.29,1.17,-0.37,1.36
11.744,-1.24,3.66,1.29,1.12,-0.35,1.24
11.744,-1.24,3.66,1.29,1.12,-0.35,1.24
11.745,-1.24,3.55,1.15,1.12,-0.35,1.24
11.745,-1.24,3.55,1.15,1.12,-0.35,1.24
11.759,-1.24,3.55,1.15,1.02,-0.32,1.12
11.76,-1.24,3.55,1.15,1.02,-0.32,1.12
11.761,-1.17,3.33,0.93,1.02,-0.32,1.12
11.762,-1.17,3.33,0.93,1.02,-0.32,1.12
11.762,-1.17,3.33,0.93,0.87,-0.28,0.99
11.763,-1.17,3.33,0.93,0.87,-0.28,0.99
11.764,-0.94,2.97,0.62,0.87,-0.28,0.99
11.765,-0.94,2.97,0.62,0.87,-0.28,0.99
11.777,-0.94,2.97,0.62,0.65,-0.23,0.85
11.778,-0.94,2.97,0.62,0.65,-0.23,0.85
11.778,-0.41,2.44,0.13,0.65,-0.23,0.85
11.779,-0.41,2.44,0.13,0.65,-0.23,0.85
11.782,-0.41,2.44,0.13,0.34,-0.17,0.64
11.783,-0.41,2.44,0.13,0.34,-0.17,0.64
11.783,1.36,0.77,-1.36,0.34,-0.17,0.64
11.783,1.36,0.77,-1.36,0.34,-0.17,0.64
11.792,1.36,0.77,-1.36,0.34,-0.17,0.64
11.792,1.36,0.77,-1.36,0.34,-0.17,0.64
11.793,1.36,0.77,-1.36,0.34,-0.17,0.64
11.793,1.36,0.77,-1.36,0.34,-0.17,0.64
11.801,1.36,0.77,-1.36,-0.11,-0.12,0.24
11.801,1.36,0.77,-1.36,-0.11,-0.12,0.24
11.802,3.66,0.45,-3.43,-0.11,-0.12,0.24
11.802,3.66,0.45,-3.43,-0.11,-0.12,0.24
11.813,3.66,0.45,-3.43,-0.52,-0.08,-0.54
11.814,3.66,0.45,-3.43,-0.52,-0.08,-0.54
11.815,3.98,0.36,-3.86,-0.52,-0.08,-0.54
11.815,3.98,0.36,-3.86,-0.52,-0.08,-0.54
11.821,3.98,0.36,-3.86,-1.27,-0.2,-1.74
11.822,3.98,0.36,-3.86,-1.27,-0.2,-1.74
11.822,4.05,0.44,-4.13,-1.27,-0.2,-1.74
11.823,4.05,0.44,-4.13,-1.27,-0.2,-1.74
11.83,4.05,0.44,-4.13,-1.71,-0.19,-3.08
11.831,4.05,0.44,-4.13,-1.71,-0.19,-3.08
11.831,3.81,0.6,-4.1,-1.71,-0.19,-3.08
11.831,3.81,0.6,-4.1,-1.71,-0.19,-3.08
11.839,3.81,0.6,-4.1,-1.35,0.15,-4.14
11.84,3.81,0.6,-4.1,-1.35,0.15,-4.14
11.841,3.49,0.83,-3.9,-1.35,0.15,-4.14
11.841,3.49,0.83,-3.9,-1.35,0.15,-4.14
11.848,3.49,0.83,-3.9,-1.45,0.58,-4.71
11.849,3.49,0.83,-3.9,-1.45,0.58,-4.71
11.85,3.13,1.13,-3.6,-1.45,0.58,-4.71
11.85,3.13,1.13,-3.6,-1.45,0.58,-4.71
11.858,3.13,1.13,-3.6,-1.33,0.76,-4.81
11.86,3.13,1.13,-3.6,-1.33,0.76,-4.81
11.86,2.65,1.43,-3.24,-1.33,0.76,-4.81
11.862,2.65,1.43,-3.24,-1.33,0.76,-4.81
11.867,2.65,1.43,-3.24,-1,0.39,-4.58
11.868,2.65,1.43,-3.24,-1,0.39,-4.58
11.869,1.03,1.65,-2.82,-1,0.39,-4.58
11.869,1.03,1.65,-2.82,-1,0.39,-4.58
11.877,1.03,1.65,-2.82,-1.07,-0.11,-4.09
11.879,1.03,1.65,-2.82,-1.07,-0.11,-4.09
11.879,0.71,1.7,-1.19,-1.07,-0.11,-4.09
11.88,0.71,1.7,-1.19,-1.07,-0.11,-4.09
11.905,0.71,1.7,-1.19,-0.96,-0.41,-3.34
11.906,0.71,1.7,-1.19,-0.96,-0.41,-3.34
11.906,0.12,1.59,-0.9,-0.96,-0.41,-3.34
11.906,0.12,1.59,-0.9,-0.96,-0.41,-3.34
11.906,0.12,1.59,-0.9,-0.8,-0.51,-2.37
11.907,0.12,1.59,-0.9,-0.8,-0.51,-2.37
11.907,-1.36,1.42,-0.38,-0.8,-0.51,-2.37
11.907,-1.36,1.42,-0.38,-0.8,-0.51,-2.37
11.907,-1.36,1.42,-0.38,-0.61,-0.42,-1.25
11.908,-1.36,1.42,-0.38,-0.61,-0.42,-1.25
11.908,-1.7,1.24,0.22,-0.61,-0.42,-1.25
11.908,-1.7,1.24,0.22,-0.61,-0.42,-1.25
11.915,-1.7,1.24,0.22,-0.13,-0.21,-0.04
11.916,-1.7,1.24,0.22,-0.13,-0.21,-0.04
11.916,-2.12,1.09,0.64,-0.13,-0.21,-0.04
11.916,-2.12,1.09,0.64,-0.13,-0.21,-0.04
11.924,-2.12,1.09,0.64,0.22,-0.21,1.17
11.925,-2.12,1.09,0.64,0.22,-0.21,1.17
11.926,-2.52,0.98,0.64,0.22,-0.21,1.17
11.926,-2.52,0.98,0.64,0.22,-0.21,1.17
11.935,-2.52,0.98,0.64,0.15,-0.47,2.28
11.936,-2.52,0.98,0.64,0.15,-0.47,2.28
11.937,-2.81,0.73,0.21,0.15,-0.47,2.28
11.937,-2.81,0.73,0.21,0.15,-0.47,2.28
11.944,-2.81,0.73,0.21,0.08,-0.7,3.15
11.944,-2.81,0.73,0.21,0.08,-0.7,3.15
11.945,-2.95,-1.07,-0.47,0.08,-0.7,3.15
11.945,-2.95,-1.07,-0.47,0.08,-0.7,3.15
11.959,-2.95,-1.07,-0.47,0.4,-0.58,3.75
11.96,-2.95,-1.07,-0.47,0.4,-0.58,3.75
11.96,-2.9,-2.96,-1.97,0.4,-0.58,3.75
11.96,-2.9,-2.96,-1.97,0.4,-0.58,3.75
11.963,-2.9,-2.96,-1.97,0.87,-0.21,4.03
11.963,-2.9,-2.96,-1.97,0.87,-0.21,4.03
11.964,-2.66,-4.8,-2.07,0.87,-0.21,4.03
11.964,-2.66,-4.8,-2.07,0.87,-0.21,4.03
11.986,-2.66,-4.8,-2.07,0.95,0,3.96
11.987,-2.66,-4.8,-2.07,0.95,0,3.96
11.987,-2.25,-5.1,-1.98,0.95,0,3.96
11.988,-2.25,-5.1,-1.98,0.95,0,3.96
11.988,-2.25,-5.1,-1.98,0.78,0.06,3.56
11.989,-2.25,-5.1,-1.98,0.78,0.06,3.56
11.99,-1.69,-5.24,-1.64,0.78,0.06,3.56
11.99,-1.69,-5.24,-1.64,0.78,0.06,3.56
11.991,-1.69,-5.24,-1.64,0.78,0.06,3.56
11.991,-1.69,-5.24,-1.64,0.78,0.06,3.56
11.991,-1.69,-5.24,-1.64,0.78,0.06,3.56
11.992,-1.69,-5.24,-1.64,0.78,0.06,3.56
12.001,-1.69,-5.24,-1.64,0.56,0.03,2.95
12.002,-1.69,-5.24,-1.64,0.56,0.03,2.95
12.002,-0.69,-4.71,-1,0.56,0.03,2.95
12.002,-0.69,-4.71,-1,0.56,0.03,2.95
12.01,-0.69,-4.71,-1,0.41,-0.04,2.27
12.011,-0.69,-4.71,-1,0.41,-0.04,2.27
12.012,-0.66,-4.54,-0.94,0.41,-0.04,2.27
12.012,-0.66,-4.54,-0.94,0.41,-0.04,2.27
12.02,-0.66,-4.54,-0.94,0.37,-0.11,1.6
12.021,-0.66,-4.54,-0.94,0.37,-0.11,1.6
12.022,-2.21,-4.51,-0.94,0.37,-0.11,1.6
12.022,-2.21,-4.51,-0.94,0.37,-0.11,1.6
12.03,-2.21,-4.51,-0.94,0.41,-0.13,1.04
12.031,-2.21,-4.51,-0.94,0.41,-0.13,1.04
12.032,-2.65,-4.43,-0.78,0.41,-0.13,1.04
12.032,-2.65,-4.43,-0.78,0.41,-0.13,1.04
12.039,-2.65,-4.43,-0.78,0.48,-0.02,0.71
12.04,-2.65,-4.43,-0.78,0.48,-0.02,0.71
12.04,-4.11,-4.22,-0.32,0.48,-0.02,0.71
12.041,-4.11,-4.22,-0.32,0.48,-0.02,0.71
12.049,-4.11,-4.22,-0.32,0.58,0.25,0.69
12.049,-4.11,-4.22,-0.32,0.58,0.25,0.69
12.05,-4.29,-4,1.22,0.58,0.25,0.69
12.051,-4.29,-4,1.22,0.58,0.25,0.69
12.059,-4.29,-4,1.22,0.48,0.64,0.93
12.06,-4.29,-4,1.22,0.48,0.64,0.93
12.06,-3.95,-3.82,1.53,0.48,0.64,0.93
12.061,-3.95,-3.82,1.53,0.48,0.64,0.93
12.068,-3.95,-3.82,1.53,0.19,1.07,1.26
12.069,-3.95,-3.82,1.53,0.19,1.07,1.26
12.069,-2.03,-3.68,1.73,0.19,1.07,1.26
12.07,-2.03,-3.68,1.73,0.19,1.07,1.26
12.079,-2.03,-3.68,1.73,0.34,0.92,1.51
12.08,-2.03,-3.68,1.73,0.34,0.92,1.51
12.081,1.44,-3.41,1.87,0.34,0.92,1.51
12.081,1.44,-3.41,1.87,0.34,0.92,1.51
12.109,1.44,-3.41,1.87,0.83,0.66,1.45
12.11,1.44,-3.41,1.87,0.83,0.66,1.45
12.11,3.16,-2.85,2.13,0.83,0.66,1.45
12.11,3.16,-2.85,2.13,0.83,0.66,1.45
12.111,3.16,-2.85,2.13,1.14,0.68,0.95
12.111,3.16,-2.85,2.13,1.14,0.68,0.95
12.111,5.57,-1.36,4.04,1.14,0.68,0.95
12.112,5.57,-1.36,4.04,1.14,0.68,0.95
12.112,5.57,-1.36,4.04,1.3,0.38,0.03
12.112,5.57,-1.36,4.04,1.3,0.38,0.03
12.112,7.25,-1.02,5.7,1.3,0.38,0.03
12.113,7.25,-1.02,5.7,1.3,0.38,0.03
12.115,7.25,-1.02,5.7,1.52,-0.13,-1.18
12.115,7.25,-1.02,5.7,1.52,-0.13,-1.18
12.115,7.57,-0.71,6.14,1.52,-0.13,-1.18
12.116,7.57,-0.71,6.14,1.52,-0.13,-1.18
12.124,7.57,-0.71,6.14,1.95,-0.7,-2.49
12.125,7.57,-0.71,6.14,1.95,-0.7,-2.49
12.125,7.54,-0.53,6.61,1.95,-0.7,-2.49
12.126,7.54,-0.53,6.61,1.95,-0.7,-2.49
12.135,7.54,-0.53,6.61,2.58,-1.17,-3.69
12.136,7.54,-0.53,6.61,2.58,-1.17,-3.69
12.136,7.08,-0.49,6.67,2.58,-1.17,-3.69
12.137,7.08,-0.49,6.67,2.58,-1.17,-3.69
12.144,7.08,-0.49,6.67,3.23,-1.45,-4.58
12.145,7.08,-0.49,6.67,3.23,-1.45,-4.58
12.145,5.33,-0.54,6.24,3.23,-1.45,-4.58
12.146,5.33,-0.54,6.24,3.23,-1.45,-4.58
12.153,5.33,-0.54,6.24,3.69,-1.53,-5.02
12.153,5.33,-0.54,6.24,3.69,-1.53,-5.02
12.154,3.4,-0.61,4.66,3.69,-1.53,-5.02
12.154,3.4,-0.61,4.66,3.69,-1.53,-5.02
12.162,3.4,-0.61,4.66,3.86,-1.46,-4.92
12.163,3.4,-0.61,4.66,3.86,-1.46,-4.92
12.164,3.01,-0.71,2.93,3.86,-1.46,-4.92
12.164,3.01,-0.71,2.93,3.86,-1.46,-4.92
12.188,3.01,-0.71,2.93,3.67,-1.28,-4.33
12.189,3.01,-0.71,2.93,3.67,-1.28,-4.33
12.19,1.46,-0.8,2.45,3.67,-1.28,-4.33
12.19,1.46,-0.8,2.45,3.67,-1.28,-4.33
12.19,1.46,-0.8,2.45,3.67,-1.28,-4.33
12.19,1.46,-0.8,2.45,3.67,-1.28,-4.33
12.191,1.46,-0.8,2.45,3.67,-1.28,-4.33
12.191,1.46,-0.8,2.45,3.67,-1.28,-4.33
12.191,1.46,-0.8,2.45,3.1,-1.05,-3.4
12.191,1.46,-0.8,2.45,3.1,-1.05,-3.4
12.192,-0.51,-0.8,-0.99,3.1,-1.05,-3.4
12.192,-0.51,-0.8,-0.99,3.1,-1.05,-3.4
12.2,-0.51,-0.8,-0.99,2.19,-0.82,-2.27
12.201,-0.51,-0.8,-0.99,2.19,-0.82,-2.27
12.201,-0.87,-0.68,-1.43,2.19,-0.82,-2.27
12.202,-0.87,-0.68,-1.43,2.19,-0.82,-2.27
12.21,-0.87,-0.68,-1.43,1.01,-0.6,-1.03
12.211,-0.87,-0.68,-1.43,1.01,-0.6,-1.03
12.211,-1.21,-0.48,-1.65,1.01,-0.6,-1.03
12.212,-1.21,-0.48,-1.65,1.01,-0.6,-1.03
12.221,-1.21,-0.48,-1.65,-0.32,-0.36,0.25
12.222,-1.21,-0.48,-1.65,-0.32,-0.36,0.25
