time,ax,ay,az,wx,wy,wz
5,-0.23,1.71,-1.68,-0.74,-0.18,0.5
5.003,-0.23,1.71,-1.68,-0.74,-0.18,0.5
5.005,-0.17,1.72,-1.63,-0.74,-0.18,0.5
5.006,-0.17,1.72,-1.63,-0.74,-0.18,0.5
5.022,-0.17,1.72,-1.63,-0.84,-0.1,0.42
5.024,-0.17,1.72,-1.63,-0.84,-0.1,0.42
5.025,-0.14,1.72,-1.61,-0.84,-0.1,0.42
5.025,-0.14,1.72,-1.61,-0.84,-0.1,0.42
5.026,-0.14,1.72,-1.61,-0.93,-0.03,0.31
5.027,-0.14,1.72,-1.61,-0.93,-0.03,0.31
5.028,-0.1,1.71,-1.72,-0.93,-0.03,0.31
5.029,-0.1,1.71,-1.72,-0.93,-0.03,0.31
5.03,-0.1,1.71,-1.72,-0.98,0.01,0.2
5.03,-0.1,1.71,-1.72,-0.98,0.01,0.2
5.03,-0.03,1.58,-1.85,-0.98,0.01,0.2
5.03,-0.03,1.58,-1.85,-0.98,0.01,0.2
5.038,-0.03,1.58,-1.85,-0.98,0.01,0.2
5.039,-0.03,1.58,-1.85,-0.98,0.01,0.2
5.039,-0.03,1.58,-1.85,-0.98,0.01,0.2
5.04,-0.03,1.58,-1.85,-0.98,0.01,0.2
5.047,-0.03,1.58,-1.85,-1,0.04,0.11
5.048,-0.03,1.58,-1.85,-1,0.04,0.11
5.048,0.1,0.75,-1.62,-1,0.04,0.11
5.049,0.1,0.75,-1.62,-1,0.04,0.11
5.057,0.1,0.75,-1.62,-1,0.06,0.03
5.058,0.1,0.75,-1.62,-1,0.06,0.03
5.058,0.08,-1.21,0.32,-1,0.06,0.03
5.058,0.08,-1.21,0.32,-1,0.06,0.03
5.067,0.08,-1.21,0.32,-0.88,0.08,-0.08
5.068,0.08,-1.21,0.32,-0.88,0.08,-0.08
5.069,0.12,-2.81,0.8,-0.88,0.08,-0.08
5.07,0.12,-2.81,0.8,-0.88,0.08,-0.08
5.08,0.12,-2.81,0.8,0.08,0.06,-0.39
5.08,0.12,-2.81,0.8,0.08,0.06,-0.39
5.081,0.44,-3.37,1.43,0.08,0.06,-0.39
5.081,0.44,-3.37,1.43,0.08,0.06,-0.39
5.087,0.44,-3.37,1.43,0.08,0.06,-0.39
5.088,0.44,-3.37,1.43,0.08,0.06,-0.39
5.088,0.44,-3.37,1.43,0.08,0.06,-0.39
5.089,0.44,-3.37,1.43,0.08,0.06,-0.39
5.095,0.44,-3.37,1.43,0.76,0.04,-0.57
5.096,0.44,-3.37,1.43,0.76,0.04,-0.57
5.097,2.92,-3.16,1.73,0.76,0.04,-0.57
5.097,2.92,-3.16,1.73,0.76,0.04,-0.57
5.105,2.92,-3.16,1.73,1.28,0.06,-0.78
5.106,2.92,-3.16,1.73,1.28,0.06,-0.78
5.106,4.53,-1.19,1.5,1.28,0.06,-0.78
5.107,4.53,-1.19,1.5,1.28,0.06,-0.78
5.114,4.53,-1.19,1.5,1.6,0.13,-1.14
5.115,4.53,-1.19,1.5,1.6,0.13,-1.14
5.116,4.58,0.3,1.14,1.6,0.13,-1.14
5.116,4.58,0.3,1.14,1.6,0.13,-1.14
5.124,4.58,0.3,1.14,1.73,0.23,-1.71
5.125,4.58,0.3,1.14,1.73,0.23,-1.71
5.125,4.11,0.53,-0.46,1.73,0.23,-1.71
5.126,4.11,0.53,-0.46,1.73,0.23,-1.71
5.133,4.11,0.53,-0.46,1.68,0.36,-2.36
5.134,4.11,0.53,-0.46,1.68,0.36,-2.36
5.135,2.08,0.53,-0.84,1.68,0.36,-2.36
5.136,2.08,0.53,-0.84,1.68,0.36,-2.36
5.143,2.08,0.53,-0.84,1.42,0.49,-2.83
5.144,2.08,0.53,-0.84,1.42,0.49,-2.83
5.144,0.26,0.22,-2.57,1.42,0.49,-2.83
5.145,0.26,0.22,-2.57,1.42,0.49,-2.83
5.152,0.26,0.22,-2.57,0.9,0.58,-2.84
5.153,0.26,0.22,-2.57,0.9,0.58,-2.84
5.154,-0.36,-0.25,-2.65,0.9,0.58,-2.84
5.154,-0.36,-0.25,-2.65,0.9,0.58,-2.84
5.168,-0.36,-0.25,-2.65,0.16,0.6,-2.31
5.169,-0.36,-0.25,-2.65,0.16,0.6,-2.31
5.17,-0.87,-0.65,-2.5,0.16,0.6,-2.31
5.17,-0.87,-0.65,-2.5,0.16,0.6,-2.31
5.176,-0.87,-0.65,-2.5,-0.64,0.59,-1.4
5.176,-0.87,-0.65,-2.5,-0.64,0.59,-1.4
5.177,-1.06,-0.8,-0.85,-0.64,0.59,-1.4
5.177,-1.06,-0.8,-0.85,-0.64,0.59,-1.4
5.195,-1.06,-0.8,-0.85,-1.53,0.59,0.47
5.197,-1.06,-0.8,-0.85,-1.53,0.59,0.47
5.197,-1.06,-0.8,-0.85,-1.53,0.59,0.47
5.198,-1.06,-0.8,-0.85,-1.53,0.59,0.47
5.199,-0.79,-0.66,-0.32,-1.53,0.59,0.47
5.199,-0.79,-0.66,-0.32,-1.53,0.59,0.47
5.2,-0.79,-0.66,-0.32,-1.53,0.59,0.47
5.2,-0.79,-0.66,-0.32,-1.53,0.59,0.47
5.201,-0.79,-0.66,-0.32,-1.4,0.59,1.07
5.201,-0.79,-0.66,-0.32,-1.4,0.59,1.07
5.202,1.22,0.01,1.88,-1.4,0.59,1.07
5.203,1.22,0.01,1.88,-1.4,0.59,1.07
5.209,1.22,0.01,1.88,-1,0.56,1.37
5.21,1.22,0.01,1.88,-1,0.56,1.37
5.211,1.52,0.21,2.36,-1,0.56,1.37
5.211,1.52,0.21,2.36,-1,0.56,1.37
5.219,1.52,0.21,2.36,-0.41,0.49,1.32
5.221,1.52,0.21,2.36,-0.41,0.49,1.32
5.222,1.72,0.23,2.64,-0.41,0.49,1.32
5.223,1.72,0.23,2.64,-0.41,0.49,1.32
5.231,1.72,0.23,2.64,0.29,0.37,0.99
5.233,1.72,0.23,2.64,0.29,0.37,0.99
5.233,1.75,0.1,2.7,0.29,0.37,0.99
5.234,1.75,0.1,2.7,0.29,0.37,0.99
5.238,1.75,0.1,2.7,0.29,0.37,0.99
5.239,1.75,0.1,2.7,0.29,0.37,0.99
5.239,1.75,0.1,2.7,0.29,0.37,0.99
5.239,1.75,0.1,2.7,0.29,0.37,0.99
5.247,1.75,0.1,2.7,1.02,0.25,0.5
5.248,1.75,0.1,2.7,1.02,0.25,0.5
5.248,1.51,-0.45,2.48,1.02,0.25,0.5
5.249,1.51,-0.45,2.48,1.02,0.25,0.5
5.257,1.51,-0.45,2.48,1.61,0.15,0.06
5.257,1.51,-0.45,2.48,1.61,0.15,0.06
5.258,1.37,-0.7,2.31,1.61,0.15,0.06
5.258,1.37,-0.7,2.31,1.61,0.15,0.06
5.268,1.37,-0.7,2.31,1.94,0.09,-0.25
5.268,1.37,-0.7,2.31,1.94,0.09,-0.25
5.269,1.29,-0.89,2.08,1.94,0.09,-0.25
5.269,1.29,-0.89,2.08,1.94,0.09,-0.25
5.277,1.29,-0.89,2.08,2.04,0.06,-0.42
5.278,1.29,-0.89,2.08,2.04,0.06,-0.42
5.278,1.26,-0.93,1.78,2.04,0.06,-0.42
5.278,1.26,-0.93,1.78,2.04,0.06,-0.42
5.286,1.26,-0.93,1.78,1.94,0.06,-0.47
5.288,1.26,-0.93,1.78,1.94,0.06,-0.47
5.289,1.26,-0.83,1.5,1.94,0.06,-0.47
5.289,1.26,-0.83,1.5,1.94,0.06,-0.47
5.296,1.26,-0.83,1.5,1.7,0.07,-0.47
5.297,1.26,-0.83,1.5,1.7,0.07,-0.47
5.298,1.2,-0.63,1.31,1.7,0.07,-0.47
5.298,1.2,-0.63,1.31,1.7,0.07,-0.47
5.304,1.2,-0.63,1.31,1.39,0.09,-0.44
5.305,1.2,-0.63,1.31,1.39,0.09,-0.44
5.305,1.11,-0.36,1.25,1.39,0.09,-0.44
5.306,1.11,-0.36,1.25,1.39,0.09,-0.44
5.314,1.11,-0.36,1.25,1.06,0.1,-0.4
5.315,1.11,-0.36,1.25,1.06,0.1,-0.4
5.315,0.97,-0.13,1.3,1.06,0.1,-0.4
5.316,0.97,-0.13,1.3,1.06,0.1,-0.4
5.323,0.97,-0.13,1.3,0.77,0.08,-0.35
5.324,0.97,-0.13,1.3,0.77,0.08,-0.35
5.325,0.8,0.02,1.4,0.77,0.08,-0.35
5.325,0.8,0.02,1.4,0.77,0.08,-0.35
5.333,0.8,0.02,1.4,0.55,0.06,-0.28
5.334,0.8,0.02,1.4,0.55,0.06,-0.28
5.335,0.66,0.11,1.53,0.55,0.06,-0.28
5.336,0.66,0.11,1.53,0.55,0.06,-0.28
5.343,0.66,0.11,1.53,0.42,0.03,-0.19
5.344,0.66,0.11,1.53,0.42,0.03,-0.19
5.345,0.55,0.12,1.64,0.42,0.03,-0.19
5.346,0.55,0.12,1.64,0.42,0.03,-0.19
5.352,0.55,0.12,1.64,0.36,-0.01,-0.09
5.352,0.55,0.12,1.64,0.36,-0.01,-0.09
5.353,0.48,0.13,1.73,0.36,-0.01,-0.09
5.353,0.48,0.13,1.73,0.36,-0.01,-0.09
5.362,0.48,0.13,1.73,0.38,-0.05,0.01
5.363,0.48,0.13,1.73,0.38,-0.05,0.01
5.363,0.45,0.19,1.73,0.38,-0.05,0.01
5.364,0.45,0.19,1.73,0.38,-0.05,0.01
5.371,0.45,0.19,1.73,0.42,-0.1,0.11
5.372,0.45,0.19,1.73,0.42,-0.1,0.11
5.373,0.48,0.26,1.59,0.42,-0.1,0.11
5.373,0.48,0.26,1.59,0.42,-0.1,0.11
5.383,0.48,0.26,1.59,0.48,-0.17,0.18
5.384,0.48,0.26,1.59,0.48,-0.17,0.18
5.384,0.49,0.37,1.38,0.48,-0.17,0.18
5.384,0.49,0.37,1.38,0.48,-0.17,0.18
5.391,0.49,0.37,1.38,0.51,-0.22,0.22
5.391,0.49,0.37,1.38,0.51,-0.22,0.22
5.392,0.51,0.49,1.12,0.51,-0.22,0.22
5.392,0.51,0.49,1.12,0.51,-0.22,0.22
5.4,0.51,0.49,1.12,0.5,-0.26,0.23
5.401,0.51,0.49,1.12,0.5,-0.26,0.23
5.401,0.53,0.55,0.86,0.5,-0.26,0.23
5.402,0.53,0.55,0.86,0.5,-0.26,0.23
5.409,0.53,0.55,0.86,0.44,-0.29,0.21
5.41,0.53,0.55,0.86,0.44,-0.29,0.21
5.411,0.55,0.58,0.68,0.44,-0.29,0.21
5.411,0.55,0.58,0.68,0.44,-0.29,0.21
5.421,0.55,0.58,0.68,0.33,-0.32,0.17
5.423,0.55,0.58,0.68,0.33,-0.32,0.17
5.423,0.58,0.57,0.57,0.33,-0.32,0.17
5.424,0.58,0.57,0.57,0.33,-0.32,0.17
5.43,0.58,0.57,0.57,0.18,-0.34,0.12
5.431,0.58,0.57,0.57,0.18,-0.34,0.12
5.432,0.62,0.58,0.49,0.18,-0.34,0.12
5.432,0.62,0.58,0.49,0.18,-0.34,0.12
5.439,0.62,0.58,0.49,0.18,-0.34,0.12
5.44,0.62,0.58,0.49,0.18,-0.34,0.12
5.441,0.62,0.58,0.49,0.18,-0.34,0.12
5.442,0.62,0.58,0.49,0.18,-0.34,0.12
5.448,0.62,0.58,0.49,0.03,-0.35,0.06
5.45,0.62,0.58,0.49,0.03,-0.35,0.06
5.451,0.75,0.77,0.38,0.03,-0.35,0.06
5.452,0.75,0.77,0.38,0.03,-0.35,0.06
5.457,0.75,0.77,0.38,-0.1,-0.34,0
5.459,0.75,0.77,0.38,-0.1,-0.34,0
5.46,0.75,0.89,0.17,-0.1,-0.34,0
5.461,0.75,0.89,0.17,-0.1,-0.34,0
5.472,0.75,0.89,0.17,-0.2,-0.33,-0.08
5.474,0.75,0.89,0.17,-0.2,-0.33,-0.08
5.475,0.74,0.97,-0.16,-0.2,-0.33,-0.08
5.476,0.74,0.97,-0.16,-0.2,-0.33,-0.08
5.477,0.74,0.97,-0.16,-0.28,-0.32,-0.16
5.477,0.74,0.97,-0.16,-0.28,-0.32,-0.16
5.478,0.68,1.03,-0.67,-0.28,-0.32,-0.16
5.479,0.68,1.03,-0.67,-0.28,-0.32,-0.16
5.486,0.68,1.03,-0.67,-0.39,-0.32,-0.23
5.487,0.68,1.03,-0.67,-0.39,-0.32,-0.23
5.488,0.57,1.07,-1.2,-0.39,-0.32,-0.23
5.488,0.57,1.07,-1.2,-0.39,-0.32,-0.23
5.495,0.57,1.07,-1.2,-0.56,-0.33,-0.28
5.496,0.57,1.07,-1.2,-0.56,-0.33,-0.28
5.496,0.45,1.16,-1.7,-0.56,-0.33,-0.28
5.497,0.45,1.16,-1.7,-0.56,-0.33,-0.28
5.505,0.45,1.16,-1.7,-0.8,-0.32,-0.29
5.506,0.45,1.16,-1.7,-0.8,-0.32,-0.29
5.506,0.32,1.27,-2.13,-0.8,-0.32,-0.29
5.507,0.32,1.27,-2.13,-0.8,-0.32,-0.29
5.515,0.32,1.27,-2.13,-1.11,-0.31,-0.27
5.516,0.32,1.27,-2.13,-1.11,-0.31,-0.27
5.516,0.22,1.37,-2.45,-1.11,-0.31,-0.27
5.517,0.22,1.37,-2.45,-1.11,-0.31,-0.27
5.524,0.22,1.37,-2.45,-1.44,-0.31,-0.22
5.525,0.22,1.37,-2.45,-1.44,-0.31,-0.22
5.525,0.18,1.48,-2.72,-1.44,-0.31,-0.22
5.525,0.18,1.48,-2.72,-1.44,-0.31,-0.22
5.533,0.18,1.48,-2.72,-1.76,-0.32,-0.15
5.534,0.18,1.48,-2.72,-1.76,-0.32,-0.15
5.535,0.2,1.53,-2.99,-1.76,-0.32,-0.15
5.535,0.2,1.53,-2.99,-1.76,-0.32,-0.15
5.543,0.2,1.53,-2.99,-2.04,-0.32,-0.08
5.544,0.2,1.53,-2.99,-2.04,-0.32,-0.08
5.545,0.29,1.55,-3.26,-2.04,-0.32,-0.08
5.545,0.29,1.55,-3.26,-2.04,-0.32,-0.08
5.552,0.29,1.55,-3.26,-2.26,-0.3,-0.03
5.553,0.29,1.55,-3.26,-2.26,-0.3,-0.03
5.554,0.39,1.56,-3.43,-2.26,-0.3,-0.03
5.554,0.39,1.56,-3.43,-2.26,-0.3,-0.03
5.562,0.39,1.56,-3.43,-2.42,-0.24,-0.02
5.563,0.39,1.56,-3.43,-2.42,-0.24,-0.02
5.563,0.42,1.57,-3.53,-2.42,-0.24,-0.02
5.564,0.42,1.57,-3.53,-2.42,-0.24,-0.02
5.572,0.42,1.57,-3.53,-2.52,-0.15,-0.05
5.573,0.42,1.57,-3.53,-2.52,-0.15,-0.05
5.573,0.3,1.61,-3.45,-2.52,-0.15,-0.05
5.574,0.3,1.61,-3.45,-2.52,-0.15,-0.05
5.585,0.3,1.61,-3.45,-2.55,-0.04,-0.09
5.586,0.3,1.61,-3.45,-2.55,-0.04,-0.09
5.586,0.02,1.68,-3.18,-2.55,-0.04,-0.09
5.586,0.02,1.68,-3.18,-2.55,-0.04,-0.09
5.59,0.02,1.68,-3.18,-2.48,0.08,-0.11
5.591,0.02,1.68,-3.18,-2.48,0.08,-0.11
5.591,-0.41,1.79,-2.79,-2.48,0.08,-0.11
5.591,-0.41,1.79,-2.79,-2.48,0.08,-0.11
5.6,-0.41,1.79,-2.79,-2.3,0.2,-0.07
5.601,-0.41,1.79,-2.79,-2.3,0.2,-0.07
5.601,-0.83,2,-2.32,-2.3,0.2,-0.07
5.601,-0.83,2,-2.32,-2.3,0.2,-0.07
5.61,-0.83,2,-2.32,-2.01,0.32,0.08
5.611,-0.83,2,-2.32,-2.01,0.32,0.08
5.612,-1.15,2.32,-1.83,-2.01,0.32,0.08
5.613,-1.15,2.32,-1.83,-2.01,0.32,0.08
5.621,-1.15,2.32,-1.83,-1.61,0.45,0.33
5.622,-1.15,2.32,-1.83,-1.61,0.45,0.33
5.623,-1.31,2.64,-1.32,-1.61,0.45,0.33
5.623,-1.31,2.64,-1.32,-1.61,0.45,0.33
5.628,-1.31,2.64,-1.32,-1.61,0.45,0.33
5.629,-1.31,2.64,-1.32,-1.61,0.45,0.33
5.629,-1.31,2.64,-1.32,-1.61,0.45,0.33
5.63,-1.31,2.64,-1.32,-1.61,0.45,0.33
5.638,-1.31,2.64,-1.32,-1.11,0.57,0.66
5.639,-1.31,2.64,-1.32,-1.11,0.57,0.66
5.64,-1.22,2.7,-0.68,-1.11,0.57,0.66
5.641,-1.22,2.7,-0.68,-1.11,0.57,0.66
5.648,-1.22,2.7,-0.68,-0.55,0.67,0.99
5.65,-1.22,2.7,-0.68,-0.55,0.67,0.99
5.651,-1.08,2.31,-0.68,-0.55,0.67,0.99
5.651,-1.08,2.31,-0.68,-0.55,0.67,0.99
5.657,-1.08,2.31,-0.68,0.05,0.74,0.94
5.658,-1.08,2.31,-0.68,0.05,0.74,0.94
5.659,-0.92,1.79,-0.89,0.05,0.74,0.94
5.66,-0.92,1.79,-0.89,0.05,0.74,0.94
5.666,-0.92,1.79,-0.89,0.62,0.76,0.82
5.667,-0.92,1.79,-0.89,0.62,0.76,0.82
5.668,-0.68,1.32,-1.1,0.62,0.76,0.82
5.668,-0.68,1.32,-1.1,0.62,0.76,0.82
5.676,-0.68,1.32,-1.1,1.03,0.75,0.89
5.677,-0.68,1.32,-1.1,1.03,0.75,0.89
5.678,-0.33,0.97,-1.18,1.03,0.75,0.89
5.678,-0.33,0.97,-1.18,1.03,0.75,0.89
5.686,-0.33,0.97,-1.18,1.23,0.71,0.81
5.687,-0.33,0.97,-1.18,1.23,0.71,0.81
5.688,0.12,0.8,-1.09,1.23,0.71,0.81
5.688,0.12,0.8,-1.09,1.23,0.71,0.81
5.7,0.12,0.8,-1.09,1.25,0.67,0.58
5.701,0.12,0.8,-1.09,1.25,0.67,0.58
5.702,0.59,0.72,-0.81,1.25,0.67,0.58
5.702,0.59,0.72,-0.81,1.25,0.67,0.58
5.706,0.59,0.72,-0.81,1.08,0.64,0.25
5.707,0.59,0.72,-0.81,1.08,0.64,0.25
5.707,0.99,0.65,-0.39,1.08,0.64,0.25
5.707,0.99,0.65,-0.39,1.08,0.64,0.25
5.714,0.99,0.65,-0.39,0.94,0.6,-0.16
5.715,0.99,0.65,-0.39,0.94,0.6,-0.16
5.716,1.28,0.56,0.15,0.94,0.6,-0.16
5.717,1.28,0.56,0.15,0.94,0.6,-0.16
5.724,1.28,0.56,0.15,0.77,0.52,-0.6
5.724,1.28,0.56,0.15,0.77,0.52,-0.6
5.725,1.51,0.36,0.71,0.77,0.52,-0.6
5.726,1.51,0.36,0.71,0.77,0.52,-0.6
5.734,1.51,0.36,0.71,0.45,0.4,-1.02
5.735,1.51,0.36,0.71,0.45,0.4,-1.02
5.736,1.73,0.07,1.09,0.45,0.4,-1.02
5.736,1.73,0.07,1.09,0.45,0.4,-1.02
5.743,1.73,0.07,1.09,0.15,0.3,-1.38
5.744,1.73,0.07,1.09,0.15,0.3,-1.38
5.744,1.96,-0.27,1.05,0.15,0.3,-1.38
5.745,1.96,-0.27,1.05,0.15,0.3,-1.38
5.752,1.96,-0.27,1.05,0.24,0.25,-1.65
5.753,1.96,-0.27,1.05,0.24,0.25,-1.65
5.754,2.11,-0.59,0.66,0.24,0.25,-1.65
5.754,2.11,-0.59,0.66,0.24,0.25,-1.65
5.762,2.11,-0.59,0.66,0.63,0.26,-1.85
5.763,2.11,-0.59,0.66,0.63,0.26,-1.85
5.763,2.12,-0.84,0.16,0.63,0.26,-1.85
5.764,2.12,-0.84,0.16,0.63,0.26,-1.85
5.772,2.12,-0.84,0.16,0.81,0.27,-1.96
5.773,2.12,-0.84,0.16,0.81,0.27,-1.96
5.773,1.96,-0.92,-0.33,0.81,0.27,-1.96
5.774,1.96,-0.92,-0.33,0.81,0.27,-1.96
5.785,1.96,-0.92,-0.33,0.76,0.26,-1.98
5.785,1.96,-0.92,-0.33,0.76,0.26,-1.98
5.786,1.64,-0.86,-0.77,0.76,0.26,-1.98
5.786,1.64,-0.86,-0.77,0.76,0.26,-1.98
5.79,1.64,-0.86,-0.77,0.52,0.23,-1.9
5.791,1.64,-0.86,-0.77,0.52,0.23,-1.9
5.791,1.25,-0.64,-1.14,0.52,0.23,-1.9
5.791,1.25,-0.64,-1.14,0.52,0.23,-1.9
5.801,1.25,-0.64,-1.14,0.16,0.18,-1.72
5.802,1.25,-0.64,-1.14,0.16,0.18,-1.72
5.803,0.84,-0.25,-1.42,0.16,0.18,-1.72
5.803,0.84,-0.25,-1.42,0.16,0.18,-1.72
5.81,0.84,-0.25,-1.42,-0.25,0.1,-1.43
5.811,0.84,-0.25,-1.42,-0.25,0.1,-1.43
5.812,0.44,0.18,-1.48,-0.25,0.1,-1.43
5.812,0.44,0.18,-1.48,-0.25,0.1,-1.43
5.82,0.44,0.18,-1.48,-0.63,-0.01,-1.08
5.821,0.44,0.18,-1.48,-0.63,-0.01,-1.08
5.821,0.1,0.54,-1.32,-0.63,-0.01,-1.08
5.822,0.1,0.54,-1.32,-0.63,-0.01,-1.08
5.831,0.1,0.54,-1.32,-0.63,-0.01,-1.08
5.833,0.1,0.54,-1.32,-0.63,-0.01,-1.08
5.834,0.1,0.54,-1.32,-0.63,-0.01,-1.08
5.835,0.1,0.54,-1.32,-0.63,-0.01,-1.08
5.838,0.1,0.54,-1.32,-0.94,-0.12,-0.68
5.839,0.1,0.54,-1.32,-0.94,-0.12,-0.68
5.84,-0.18,0.25,-0.9,-0.94,-0.12,-0.68
5.841,-0.18,0.25,-0.9,-0.94,-0.12,-0.68
5.848,-0.18,0.25,-0.9,-1.14,-0.24,-0.29
5.849,-0.18,0.25,-0.9,-1.14,-0.24,-0.29
5.849,-0.04,-1.46,-0.83,-1.14,-0.24,-0.29
5.85,-0.04,-1.46,-0.83,-1.14,-0.24,-0.29
5.857,-0.04,-1.46,-0.83,-1.21,-0.34,0.08
5.858,-0.04,-1.46,-0.83,-1.21,-0.34,0.08
5.859,0.28,-1.76,-0.86,-1.21,-0.34,0.08
5.86,0.28,-1.76,-0.86,-1.21,-0.34,0.08
5.866,0.28,-1.76,-0.86,-1.16,-0.41,0.38
5.868,0.28,-1.76,-0.86,-1.16,-0.41,0.38
5.869,0.67,-2.16,-1,-1.16,-0.41,0.38
5.87,0.67,-2.16,-1,-1.16,-0.41,0.38
5.876,0.67,-2.16,-1,-1.06,-0.46,0.54
5.877,0.67,-2.16,-1,-1.06,-0.46,0.54
5.878,1,-2.47,-1.23,-1.06,-0.46,0.54
5.879,1,-2.47,-1.23,-1.06,-0.46,0.54
5.891,1,-2.47,-1.23,-0.95,-0.47,0.56
5.892,1,-2.47,-1.23,-0.95,-0.47,0.56
5.892,1.14,-2.75,-1.65,-0.95,-0.47,0.56
5.893,1.14,-2.75,-1.65,-0.95,-0.47,0.56
5.895,1.14,-2.75,-1.65,-0.9,-0.45,0.45
5.895,1.14,-2.75,-1.65,-0.9,-0.45,0.45
5.896,1.06,-3.12,-3.4,-0.9,-0.45,0.45
5.896,1.06,-3.12,-3.4,-0.9,-0.45,0.45
5.908,1.06,-3.12,-3.4,-0.95,-0.41,0.28
5.908,1.06,-3.12,-3.4,-0.95,-0.41,0.28
5.909,0.77,-3.63,-3.62,-0.95,-0.41,0.28
5.909,0.77,-3.63,-3.62,-0.95,-0.41,0.28
5.915,0.77,-3.63,-3.62,-1.15,-0.37,0.13
5.916,0.77,-3.63,-3.62,-1.15,-0.37,0.13
5.916,0.37,-4.26,-3.92,-1.15,-0.37,0.13
5.917,0.37,-4.26,-3.92,-1.15,-0.37,0.13
5.923,0.37,-4.26,-3.92,-1.46,-0.34,0.04
5.924,0.37,-4.26,-3.92,-1.46,-0.34,0.04
5.925,-0.11,-5.7,-4.03,-1.46,-0.34,0.04
5.925,-0.11,-5.7,-4.03,-1.46,-0.34,0.04
5.933,-0.11,-5.7,-4.03,-1.76,-0.32,0.06
5.935,-0.11,-5.7,-4.03,-1.76,-0.32,0.06
5.935,-0.65,-5.9,-3.77,-1.76,-0.32,0.06
5.936,-0.65,-5.9,-3.77,-1.76,-0.32,0.06
5.944,-0.65,-5.9,-3.77,-1.91,-0.32,0.17
5.945,-0.65,-5.9,-3.77,-1.91,-0.32,0.17
5.946,-1.21,-5.93,-2.01,-1.91,-0.32,0.17
5.947,-1.21,-5.93,-2.01,-1.91,-0.32,0.17
5.953,-1.21,-5.93,-2.01,-1.85,-0.34,0.36
5.954,-1.21,-5.93,-2.01,-1.85,-0.34,0.36
5.955,-1.78,-5.71,-1.58,-1.85,-0.34,0.36
5.956,-1.78,-5.71,-1.58,-1.85,-0.34,0.36
5.961,-1.78,-5.71,-1.58,-1.58,-0.39,0.57
5.962,-1.78,-5.71,-1.58,-1.58,-0.39,0.57
5.963,-2.28,-5.15,0.22,-1.58,-0.39,0.57
5.963,-2.28,-5.15,0.22,-1.58,-0.39,0.57
5.971,-2.28,-5.15,0.22,-1.13,-0.45,0.81
5.972,-2.28,-5.15,0.22,-1.13,-0.45,0.81
5.972,-2.63,-3.45,0.44,-1.13,-0.45,0.81
5.973,-2.63,-3.45,0.44,-1.13,-0.45,0.81
5.998,-2.63,-3.45,0.44,-0.56,-0.5,1.04
5.999,-2.63,-3.45,0.44,-0.56,-0.5,1.04
5.999,-2.8,-1.87,0.6,-0.56,-0.5,1.04
5.999,-2.8,-1.87,0.6,-0.56,-0.5,1.04
5.999,-2.8,-1.87,0.6,0.02,-0.51,1.26
6,-2.8,-1.87,0.6,0.02,-0.51,1.26
6,-2.84,-1.48,0.5,0.02,-0.51,1.26
6,-2.84,-1.48,0.5,0.02,-0.51,1.26
6,-2.84,-1.48,0.5,0.5,-0.53,1.41
6.001,-2.84,-1.48,0.5,0.5,-0.53,1.41
6.001,-2.78,-0.87,0.11,0.5,-0.53,1.41
6.001,-2.78,-0.87,0.11,0.5,-0.53,1.41
6.023,-2.78,-0.87,0.11,0.58,-0.53,1.65
6.024,-2.78,-0.87,0.11,0.58,-0.53,1.65
6.025,-2.78,-0.87,0.11,0.58,-0.53,1.65
6.025,-2.78,-0.87,0.11,0.58,-0.53,1.65
6.026,-2.69,-0.26,-0.42,0.58,-0.53,1.65
6.026,-2.69,-0.26,-0.42,0.58,-0.53,1.65
6.026,-2.69,-0.26,-0.42,0.58,-0.53,1.65
6.027,-2.69,-0.26,-0.42,0.58,-0.53,1.65
6.03,-2.69,-0.26,-0.42,0.58,-0.53,1.65
6.03,-2.69,-0.26,-0.42,0.58,-0.53,1.65
6.031,-2.69,-0.26,-0.42,0.58,-0.53,1.65
6.031,-2.69,-0.26,-0.42,0.58,-0.53,1.65
6.038,-2.69,-0.26,-0.42,0.52,-0.47,1.7
6.038,-2.69,-0.26,-0.42,0.52,-0.47,1.7
6.039,-2.2,0.23,-1.79,0.52,-0.47,1.7
6.039,-2.2,0.23,-1.79,0.52,-0.47,1.7
6.047,-2.2,0.23,-1.79,0.42,-0.37,1.68
6.048,-2.2,0.23,-1.79,0.42,-0.37,1.68
6.048,-1.87,-0.07,-1.81,0.42,-0.37,1.68
6.048,-1.87,-0.07,-1.81,0.42,-0.37,1.68
6.057,-1.87,-0.07,-1.81,0.21,-0.24,1.58
6.057,-1.87,-0.07,-1.81,0.21,-0.24,1.58
6.058,-1.41,-0.36,-1.64,0.21,-0.24,1.58
6.058,-1.41,-0.36,-1.64,0.21,-0.24,1.58
6.066,-1.41,-0.36,-1.64,-0.1,-0.08,1.39
6.067,-1.41,-0.36,-1.64,-0.1,-0.08,1.39
6.068,-0.89,-0.48,-1.41,-0.1,-0.08,1.39
6.068,-0.89,-0.48,-1.41,-0.1,-0.08,1.39
6.077,-0.89,-0.48,-1.41,-0.4,0.08,1.1
6.077,-0.89,-0.48,-1.41,-0.4,0.08,1.1
6.078,-0.47,-0.4,-1.24,-0.4,0.08,1.1
6.079,-0.47,-0.4,-1.24,-0.4,0.08,1.1
6.086,-0.47,-0.4,-1.24,-0.52,0.15,0.73
6.087,-0.47,-0.4,-1.24,-0.52,0.15,0.73
6.087,-0.19,-0.12,-1.11,-0.52,0.15,0.73
6.088,-0.19,-0.12,-1.11,-0.52,0.15,0.73
6.109,-0.19,-0.12,-1.11,-0.53,0.16,0.31
6.11,-0.19,-0.12,-1.11,-0.53,0.16,0.31
6.11,-0.1,0.27,-0.98,-0.53,0.16,0.31
6.111,-0.1,0.27,-0.98,-0.53,0.16,0.31
6.111,-0.1,0.27,-0.98,-0.53,0.2,-0.1
6.111,-0.1,0.27,-0.98,-0.53,0.2,-0.1
6.111,-0.18,0.71,-0.83,-0.53,0.2,-0.1
6.112,-0.18,0.71,-0.83,-0.53,0.2,-0.1
6.117,-0.18,0.71,-0.83,-0.5,0.23,-0.45
6.118,-0.18,0.71,-0.83,-0.5,0.23,-0.45
6.118,-0.32,1.21,-0.62,-0.5,0.23,-0.45
6.118,-0.32,1.21,-0.62,-0.5,0.23,-0.45
6.123,-0.32,1.21,-0.62,-0.44,0.23,-0.69
6.124,-0.32,1.21,-0.62,-0.44,0.23,-0.69
6.124,-0.49,1.67,-0.35,-0.44,0.23,-0.69
6.124,-0.49,1.67,-0.35,-0.44,0.23,-0.69
6.133,-0.49,1.67,-0.35,-0.37,0.19,-0.82
6.134,-0.49,1.67,-0.35,-0.37,0.19,-0.82
6.135,-0.71,2.05,-0.07,-0.37,0.19,-0.82
6.135,-0.71,2.05,-0.07,-0.37,0.19,-0.82
6.143,-0.71,2.05,-0.07,-0.27,0.1,-0.84
6.144,-0.71,2.05,-0.07,-0.27,0.1,-0.84
6.145,-0.96,2.34,0.26,-0.27,0.1,-0.84
6.146,-0.96,2.34,0.26,-0.27,0.1,-0.84
6.152,-0.96,2.34,0.26,-0.14,-0.04,-0.77
6.153,-0.96,2.34,0.26,-0.14,-0.04,-0.77
6.154,-1.24,2.56,0.54,-0.14,-0.04,-0.77
6.155,-1.24,2.56,0.54,-0.14,-0.04,-0.77
6.161,-1.24,2.56,0.54,0.02,-0.22,-0.6
6.162,-1.24,2.56,0.54,0.02,-0.22,-0.6
6.162,-1.51,2.72,0.8,0.02,-0.22,-0.6
6.162,-1.51,2.72,0.8,0.02,-0.22,-0.6
6.172,-1.51,2.72,0.8,0.22,-0.44,-0.37
6.172,-1.51,2.72,0.8,0.22,-0.44,-0.37
6.172,-1.68,2.85,0.98,0.22,-0.44,-0.37
6.173,-1.68,2.85,0.98,0.22,-0.44,-0.37
6.182,-1.68,2.85,0.98,0.44,-0.67,-0.08
6.183,-1.68,2.85,0.98,0.44,-0.67,-0.08
6.183,-1.78,2.98,1.09,0.44,-0.67,-0.08
6.184,-1.78,2.98,1.09,0.44,-0.67,-0.08
6.19,-1.78,2.98,1.09,0.65,-0.89,0.24
6.19,-1.78,2.98,1.09,0.65,-0.89,0.24
6.191,-1.81,3.06,1.18,0.65,-0.89,0.24
6.191,-1.81,3.06,1.18,0.65,-0.89,0.24
6.202,-1.81,3.06,1.18,0.83,-1.07,0.56
6.203,-1.81,3.06,1.18,0.83,-1.07,0.56
6.203,-1.74,3.1,1.19,0.83,-1.07,0.56
6.204,-1.74,3.1,1.19,0.83,-1.07,0.56
6.21,-1.74,3.1,1.19,0.75,-1.05,0.84
6.21,-1.74,3.1,1.19,0.75,-1.05,0.84
6.21,-1.65,3.09,1.2,0.75,-1.05,0.84
6.211,-1.65,3.09,1.2,0.75,-1.05,0.84
6.219,-1.65,3.09,1.2,0.75,-1.05,0.84
6.22,-1.65,3.09,1.2,0.75,-1.05,0.84
6.22,-1.65,3.09,1.2,0.75,-1.05,0.84
6.221,-1.65,3.09,1.2,0.75,-1.05,0.84
6.228,-1.65,3.09,1.2,0.66,-0.73,1.05
6.229,-1.65,3.09,1.2,0.66,-0.73,1.05
6.229,-1.61,3.04,1.21,0.66,-0.73,1.05
6.229,-1.61,3.04,1.21,0.66,-0.73,1.05
6.237,-1.61,3.04,1.21,0.6,-0.34,1.19
6.238,-1.61,3.04,1.21,0.6,-0.34,1.19
6.238,-1.61,3.04,1.15,0.6,-0.34,1.19
6.239,-1.61,3.04,1.15,0.6,-0.34,1.19
6.247,-1.61,3.04,1.15,0.52,-0.26,1.25
6.248,-1.61,3.04,1.15,0.52,-0.26,1.25
6.248,-1.64,3.06,1.05,0.52,-0.26,1.25
6.248,-1.64,3.06,1.05,0.52,-0.26,1.25
6.256,-1.64,3.06,1.05,0.47,-0.27,1.26
6.257,-1.64,3.06,1.05,0.47,-0.27,1.26
6.257,-1.62,3.1,0.85,0.47,-0.27,1.26
6.258,-1.62,3.1,0.85,0.47,-0.27,1.26
6.267,-1.62,3.1,0.85,0.38,-0.22,1.26
6.267,-1.62,3.1,0.85,0.38,-0.22,1.26
6.268,-1.52,3.16,0.59,0.38,-0.22,1.26
6.268,-1.52,3.16,0.59,0.38,-0.22,1.26
6.275,-1.52,3.16,0.59,0.32,-0.24,1.24
6.276,-1.52,3.16,0.59,0.32,-0.24,1.24
6.277,-1.31,3.19,0.28,0.32,-0.24,1.24
6.277,-1.31,3.19,0.28,0.32,-0.24,1.24
6.285,-1.31,3.19,0.28,0.18,-0.19,1.21
6.286,-1.31,3.19,0.28,0.18,-0.19,1.21
6.287,-0.97,3.12,-0.07,0.18,-0.19,1.21
6.287,-0.97,3.12,-0.07,0.18,-0.19,1.21
6.294,-0.97,3.12,-0.07,-0.02,-0.08,1.13
6.295,-0.97,3.12,-0.07,-0.02,-0.08,1.13
6.295,-0.47,2.88,-0.41,-0.02,-0.08,1.13
6.296,-0.47,2.88,-0.41,-0.02,-0.08,1.13
6.304,-0.47,2.88,-0.41,-0.29,0.09,0.97
6.305,-0.47,2.88,-0.41,-0.29,0.09,0.97
6.305,0.16,2.45,-0.77,-0.29,0.09,0.97
6.305,0.16,2.45,-0.77,-0.29,0.09,0.97
6.313,0.16,2.45,-0.77,-0.61,0.31,0.68
6.314,0.16,2.45,-0.77,-0.61,0.31,0.68
6.314,1.93,1.84,-1.13,-0.61,0.31,0.68
6.314,1.93,1.84,-1.13,-0.61,0.31,0.68
6.323,1.93,1.84,-1.13,-0.95,0.57,0.2
6.324,1.93,1.84,-1.13,-0.95,0.57,0.2
6.324,2.26,0.38,-1.44,-0.95,0.57,0.2
6.325,2.26,0.38,-1.44,-0.95,0.57,0.2
6.332,2.26,0.38,-1.44,-1.28,0.87,-0.53
6.333,2.26,0.38,-1.44,-1.28,0.87,-0.53
6.333,2.73,0.02,-1.65,-1.28,0.87,-0.53
6.334,2.73,0.02,-1.65,-1.28,0.87,-0.53
6.342,2.73,0.02,-1.65,-1.55,1.17,-1.42
6.343,2.73,0.02,-1.65,-1.55,1.17,-1.42
6.344,3.11,-0.39,-1.71,-1.55,1.17,-1.42
6.344,3.11,-0.39,-1.71,-1.55,1.17,-1.42
6.351,3.11,-0.39,-1.71,-1.73,1.4,-2.25
6.352,3.11,-0.39,-1.71,-1.73,1.4,-2.25
6.353,3.28,-0.63,-1.58,-1.73,1.4,-2.25
6.354,3.28,-0.63,-1.58,-1.73,1.4,-2.25
6.361,3.28,-0.63,-1.58,-1.66,1.32,-2.84
6.361,3.28,-0.63,-1.58,-1.66,1.32,-2.84
6.362,3.19,-0.67,-1.34,-1.66,1.32,-2.84
6.362,3.19,-0.67,-1.34,-1.66,1.32,-2.84
6.37,3.19,-0.67,-1.34,-1.49,1.15,-3.15
6.371,3.19,-0.67,-1.34,-1.49,1.15,-3.15
6.372,2.87,-0.47,-1.13,-1.49,1.15,-3.15
6.372,2.87,-0.47,-1.13,-1.49,1.15,-3.15
6.383,2.87,-0.47,-1.13,-1.36,1.09,-3.22
6.384,2.87,-0.47,-1.13,-1.36,1.09,-3.22
6.384,2.42,-0.08,-1.13,-1.36,1.09,-3.22
6.385,2.42,-0.08,-1.13,-1.36,1.09,-3.22
6.389,2.42,-0.08,-1.13,-1.17,0.95,-3.07
6.39,2.42,-0.08,-1.13,-1.17,0.95,-3.07
6.391,1.91,0.42,-1.41,-1.17,0.95,-3.07
6.391,1.91,0.42,-1.41,-1.17,0.95,-3.07
6.399,1.91,0.42,-1.41,-0.96,0.75,-2.76
6.4,1.91,0.42,-1.41,-0.96,0.75,-2.76
6.401,1.39,0.94,-1.85,-0.96,0.75,-2.76
6.401,1.39,0.94,-1.85,-0.96,0.75,-2.76
6.409,1.39,0.94,-1.85,-0.83,0.51,-2.32
6.41,1.39,0.94,-1.85,-0.83,0.51,-2.32
6.41,0.94,1.45,-2.27,-0.83,0.51,-2.32
6.411,0.94,1.45,-2.27,-0.83,0.51,-2.32
6.42,0.94,1.45,-2.27,-0.83,0.51,-2.32
6.421,0.94,1.45,-2.27,-0.83,0.51,-2.32
6.422,0.94,1.45,-2.27,-0.83,0.51,-2.32
6.423,0.94,1.45,-2.27,-0.83,0.51,-2.32
6.427,0.94,1.45,-2.27,-0.82,0.23,-1.78
6.428,0.94,1.45,-2.27,-0.82,0.23,-1.78
6.429,0.47,2.3,-2.39,-0.82,0.23,-1.78
6.429,0.47,2.3,-2.39,-0.82,0.23,-1.78
6.437,0.47,2.3,-2.39,-0.95,-0.05,-1.2
6.438,0.47,2.3,-2.39,-0.95,-0.05,-1.2
6.439,0.41,2.58,-2.19,-0.95,-0.05,-1.2
6.439,0.41,2.58,-2.19,-0.95,-0.05,-1.2
6.446,0.41,2.58,-2.19,-1.16,-0.33,-0.62
6.447,0.41,2.58,-2.19,-1.16,-0.33,-0.62
6.447,0.36,2.7,-2.01,-1.16,-0.33,-0.62
6.447,0.36,2.7,-2.01,-1.16,-0.33,-0.62
6.456,0.36,2.7,-2.01,-1.37,-0.56,-0.08
6.457,0.36,2.7,-2.01,-1.37,-0.56,-0.08
6.458,0.31,2.63,-1.9,-1.37,-0.56,-0.08
6.458,0.31,2.63,-1.9,-1.37,-0.56,-0.08
6.466,0.31,2.63,-1.9,-1.5,-0.75,0.37
6.467,0.31,2.63,-1.9,-1.5,-0.75,0.37
6.467,0.26,2.37,-1.78,-1.5,-0.75,0.37
6.468,0.26,2.37,-1.78,-1.5,-0.75,0.37
6.476,0.26,2.37,-1.78,-1.54,-0.87,0.72
6.477,0.26,2.37,-1.78,-1.54,-0.87,0.72
6.477,0.27,1.97,-1.57,-1.54,-0.87,0.72
6.478,0.27,1.97,-1.57,-1.54,-0.87,0.72
6.485,0.27,1.97,-1.57,-1.47,-0.94,0.98
6.486,0.27,1.97,-1.57,-1.47,-0.94,0.98
6.487,0.38,1.55,-1.27,-1.47,-0.94,0.98
6.487,0.38,1.55,-1.27,-1.47,-0.94,0.98
6.494,0.38,1.55,-1.27,-1.3,-0.95,1.14
6.495,0.38,1.55,-1.27,-1.3,-0.95,1.14
6.496,0.55,1.2,-0.94,-1.3,-0.95,1.14
6.496,0.55,1.2,-0.94,-1.3,-0.95,1.14
6.507,0.55,1.2,-0.94,-1.02,-0.93,1.2
6.508,0.55,1.2,-0.94,-1.02,-0.93,1.2
6.508,0.76,1.07,-0.7,-1.02,-0.93,1.2
6.508,0.76,1.07,-0.7,-1.02,-0.93,1.2
6.514,0.76,1.07,-0.7,-0.67,-0.9,1.15
6.515,0.76,1.07,-0.7,-0.67,-0.9,1.15
6.516,1.03,1.09,-0.56,-0.67,-0.9,1.15
6.516,1.03,1.09,-0.56,-0.67,-0.9,1.15
6.523,1.03,1.09,-0.56,-0.3,-0.88,0.99
6.524,1.03,1.09,-0.56,-0.3,-0.88,0.99
6.524,1.33,1.19,-0.47,-0.3,-0.88,0.99
6.525,1.33,1.19,-0.47,-0.3,-0.88,0.99
6.533,1.33,1.19,-0.47,0.04,-0.88,0.73
6.534,1.33,1.19,-0.47,0.04,-0.88,0.73
6.534,1.61,1.24,-0.3,0.04,-0.88,0.73
6.535,1.61,1.24,-0.3,0.04,-0.88,0.73
6.542,1.61,1.24,-0.3,0.29,-0.88,0.42
6.543,1.61,1.24,-0.3,0.29,-0.88,0.42
6.543,1.77,1.11,0.02,0.29,-0.88,0.42
6.544,1.77,1.11,0.02,0.29,-0.88,0.42
6.552,1.77,1.11,0.02,0.47,-0.87,0.06
6.553,1.77,0.86,0.45,0.47,-0.87,0.06
6.554,1.77,0.86,0.45,0.47,-0.87,0.06
6.554,1.77,0.86,0.45,0.47,-0.87,0.06
6.563,1.77,0.86,0.45,0.62,-0.84,-0.28
6.564,1.77,0.86,0.45,0.62,-0.84,-0.28
6.565,1.51,0.5,0.95,0.62,-0.84,-0.28
6.565,1.51,0.5,0.95,0.62,-0.84,-0.28
6.571,1.51,0.5,0.95,0.79,-0.8,-0.57
6.572,1.51,0.5,0.95,0.79,-0.8,-0.57
6.572,0.97,-0.02,1.41,0.79,-0.8,-0.57
6.573,0.97,-0.02,1.41,0.79,-0.8,-0.57
6.58,0.97,-0.02,1.41,1.03,-0.76,-0.74
6.581,0.97,-0.02,1.41,1.03,-0.76,-0.74
6.581,-0.97,-1.81,1.79,1.03,-0.76,-0.74
6.582,-0.97,-1.81,1.79,1.03,-0.76,-0.74
6.59,-0.97,-1.81,1.79,1.33,-0.74,-0.7
6.591,-0.97,-1.81,1.79,1.33,-0.74,-0.7
6.592,-1.48,-2.3,2.08,1.33,-0.74,-0.7
6.592,-1.48,-2.3,2.08,1.33,-0.74,-0.7
6.602,-1.48,-2.3,2.08,1.67,-0.75,-0.37
6.603,-1.48,-2.3,2.08,1.67,-0.75,-0.37
6.603,-3.22,-4.05,2.3,1.67,-0.75,-0.37
6.604,-3.22,-4.05,2.3,1.67,-0.75,-0.37
6.611,-3.22,-4.05,2.3,1.98,-0.79,0.21
6.612,-3.22,-4.05,2.3,1.98,-0.79,0.21
6.612,-3.81,-4.47,2.46,1.98,-0.79,0.21
6.612,-3.81,-4.47,2.46,1.98,-0.79,0.21
6.621,-3.81,-4.47,2.46,1.98,-0.79,0.21
6.622,-3.81,-4.47,2.46,1.98,-0.79,0.21
6.622,-3.81,-4.47,2.46,1.98,-0.79,0.21
6.623,-3.81,-4.47,2.46,1.98,-0.79,0.21
6.629,-3.81,-4.47,2.46,1.9,-0.78,0.92
6.63,-3.81,-4.47,2.46,1.9,-0.78,0.92
6.63,-4.44,-4.47,2.3,1.9,-0.78,0.92
6.631,-4.44,-4.47,2.3,1.9,-0.78,0.92
6.637,-4.44,-4.47,2.3,1.5,-0.69,1.58
6.638,-4.44,-4.47,2.3,1.5,-0.69,1.58
6.639,-4.15,-2.6,2.03,1.5,-0.69,1.58
6.639,-4.15,-2.6,2.03,1.5,-0.69,1.58
6.647,-4.15,-2.6,2.03,1.36,-0.62,2.08
6.648,-4.15,-2.6,2.03,1.36,-0.62,2.08
6.649,-2.12,-2.17,1.85,1.36,-0.62,2.08
6.649,-2.12,-2.17,1.85,1.36,-0.62,2.08
6.656,-2.12,-2.17,1.85,1.22,-0.52,2.35
6.657,-2.12,-2.17,1.85,1.22,-0.52,2.35
6.657,-1.67,-1.52,2,1.22,-0.52,2.35
6.658,-1.67,-1.52,2,1.22,-0.52,2.35
6.665,-1.67,-1.52,2,1,-0.39,2.33
6.666,-1.67,-1.52,2,1,-0.39,2.33
6.667,0.02,-1.04,2.54,1,-0.39,2.33
6.667,0.02,-1.04,2.54,1,-0.39,2.33
6.676,0.02,-1.04,2.54,0.9,-0.27,2.02
6.676,0.02,-1.04,2.54,0.9,-0.27,2.02
6.677,0.38,-1.23,3.99,0.9,-0.27,2.02
6.677,0.38,-1.23,3.99,0.9,-0.27,2.02
6.685,0.38,-1.23,3.99,0.72,-0.19,1.46
6.687,0.38,-1.23,3.99,0.72,-0.19,1.46
6.688,0.5,-4.76,4.21,0.72,-0.19,1.46
6.689,0.5,-4.76,4.21,0.72,-0.19,1.46
6.694,0.5,-4.76,4.21,0.49,-0.16,0.77
6.695,0.5,-4.76,4.21,0.49,-0.16,0.77
6.695,0.21,-8.28,4.05,0.49,-0.16,0.77
6.695,0.21,-8.28,4.05,0.49,-0.16,0.77
6.703,0.21,-8.28,4.05,0.31,-0.12,0.04
6.705,0.21,-8.28,4.05,0.31,-0.12,0.04
6.705,-0.29,-9.97,0.94,0.31,-0.12,0.04
6.706,-0.29,-9.97,0.94,0.31,-0.12,0.04
6.713,-0.29,-9.97,0.94,0.34,-0.07,-0.58
6.714,-0.29,-9.97,0.94,0.34,-0.07,-0.58
6.714,-0.49,-10.03,-0.82,0.34,-0.07,-0.58
6.714,-0.49,-10.03,-0.82,0.34,-0.07,-0.58
6.723,-0.49,-10.03,-0.82,0.29,0,-0.99
6.724,-0.49,-10.03,-0.82,0.29,0,-0.99
6.725,-0.26,-6.98,-2.33,0.29,0,-0.99
6.725,-0.26,-6.98,-2.33,0.29,0,-0.99
6.732,-0.26,-6.98,-2.33,-0.15,0.13,-1.17
6.733,-0.26,-6.98,-2.33,-0.15,0.13,-1.17
6.734,0.31,-3.08,-2.04,-0.15,0.13,-1.17
6.734,0.31,-3.08,-2.04,-0.15,0.13,-1.17
6.742,0.31,-3.08,-2.04,-0.8,0.27,-1.18
6.743,0.31,-3.08,-2.04,-0.8,0.27,-1.18
6.743,1.75,0.19,1.8,-0.8,0.27,-1.18
6.744,1.75,0.19,1.8,-0.8,0.27,-1.18
6.752,1.75,0.19,1.8,-1.37,0.37,-1.14
6.753,1.75,0.19,1.8,-1.37,0.37,-1.14
6.754,1.85,0.74,4.85,-1.37,0.37,-1.14
6.754,1.85,0.74,4.85,-1.37,0.37,-1.14
6.76,1.85,0.74,4.85,-1.55,0.43,-1.15
6.761,1.85,0.74,4.85,-1.55,0.43,-1.15
6.761,1.96,2.17,6.39,-1.55,0.43,-1.15
6.762,1.96,2.17,6.39,-1.55,0.43,-1.15
6.77,1.96,2.17,6.39,-1.15,0.45,-1.25
6.771,1.96,2.17,6.39,-1.15,0.45,-1.25
6.771,2.09,2.38,6.59,-1.15,0.45,-1.25
6.772,2.09,2.38,6.59,-1.15,0.45,-1.25
6.783,2.09,2.38,6.59,-0.19,0.47,-1.41
6.784,2.09,2.38,6.59,-0.19,0.47,-1.41
6.784,2.12,2.45,6.98,-0.19,0.47,-1.41
6.785,2.12,2.45,6.98,-0.19,0.47,-1.41
6.79,2.12,2.45,6.98,1.06,0.48,-1.59
6.791,2.12,2.45,6.98,1.06,0.48,-1.59
6.791,2.03,2.32,7.51,1.06,0.48,-1.59
6.791,2.03,2.32,7.51,1.06,0.48,-1.59
6.8,2.03,2.32,7.51,1.06,0.48,-1.59
6.8,2.03,2.32,7.51,1.06,0.48,-1.59
6.801,2.03,2.32,7.51,1.06,0.48,-1.59
6.801,2.03,2.32,7.51,1.06,0.48,-1.59
6.808,2.03,2.32,7.51,2.31,0.46,-1.74
6.809,2.03,2.32,7.51,2.31,0.46,-1.74
6.809,1.29,0.02,8.03,2.31,0.46,-1.74
6.809,1.29,0.02,8.03,2.31,0.46,-1.74
6.818,1.29,0.02,8.03,3.38,0.41,-1.82
6.819,1.29,0.02,8.03,3.38,0.41,-1.82
6.819,0.87,-0.25,6.36,3.38,0.41,-1.82
6.82,0.87,-0.25,6.36,3.38,0.41,-1.82
6.827,0.87,-0.25,6.36,4.11,0.34,-1.75
6.828,0.87,-0.25,6.36,4.11,0.34,-1.75
6.828,0.6,-0.68,4.33,4.11,0.34,-1.75
6.829,0.6,-0.68,4.33,4.11,0.34,-1.75
6.837,0.6,-0.68,4.33,4.32,0.3,-1.5
6.839,0.6,-0.68,4.33,4.32,0.3,-1.5
6.839,0.54,-0.97,2.03,4.32,0.3,-1.5
6.84,0.54,-0.97,2.03,4.32,0.3,-1.5
6.847,0.54,-0.97,2.03,3.9,0.31,-1.16
6.848,0.54,-0.97,2.03,3.9,0.31,-1.16
6.849,0.54,-1.05,-0.21,3.9,0.31,-1.16
6.849,0.54,-1.05,-0.21,3.9,0.31,-1.16
6.855,0.54,-1.05,-0.21,2.88,0.39,-0.83
6.856,0.54,-1.05,-0.21,2.88,0.39,-0.83
6.857,0.38,-0.95,-1.87,2.88,0.39,-0.83
6.857,0.38,-0.95,-1.87,2.88,0.39,-0.83
6.866,0.38,-0.95,-1.87,1.42,0.49,-0.55
6.867,0.38,-0.95,-1.87,1.42,0.49,-0.55
6.867,-0.01,-0.74,-2.09,1.42,0.49,-0.55
6.868,-0.01,-0.74,-2.09,1.42,0.49,-0.55
6.875,-0.01,-0.74,-2.09,-0.21,0.49,-0.32
6.876,-0.01,-0.74,-2.09,-0.21,0.49,-0.32
6.877,-0.51,-0.5,-1.96,-0.21,0.49,-0.32
6.877,-0.51,-0.5,-1.96,-0.21,0.49,-0.32
6.884,-0.51,-0.5,-1.96,-1.71,0.4,-0.07
6.886,-0.51,-0.5,-1.96,-1.71,0.4,-0.07
6.886,-0.9,-0.25,-0.43,-1.71,0.4,-0.07
6.887,-0.9,-0.25,-0.43,-1.71,0.4,-0.07
6.895,-0.9,-0.25,-0.43,-2.77,0.36,0.22
6.896,-0.9,-0.25,-0.43,-2.77,0.36,0.22
6.897,-1.03,0,1.13,-2.77,0.36,0.22
6.898,-1.03,0,1.13,-2.77,0.36,0.22
6.904,-1.03,0,1.13,-3.21,0.34,0.54
6.905,-1.03,0,1.13,-3.21,0.34,0.54
6.905,-0.92,0.25,1.51,-3.21,0.34,0.54
6.906,-0.92,0.25,1.51,-3.21,0.34,0.54
6.913,-0.92,0.25,1.51,-3.02,0.31,0.84
6.914,-0.92,0.25,1.51,-3.02,0.31,0.84
6.915,-0.66,0.43,1.72,-3.02,0.31,0.84
6.915,-0.66,0.43,1.72,-3.02,0.31,0.84
6.922,-0.66,0.43,1.72,-2.4,0.29,1.06
6.924,-0.66,0.43,1.72,-2.4,0.29,1.06
6.924,-0.35,0.52,1.6,-2.4,0.29,1.06
6.925,-0.35,0.52,1.6,-2.4,0.29,1.06
6.932,-0.35,0.52,1.6,-1.64,0.25,1.17
6.933,-0.35,0.52,1.6,-1.64,0.25,1.17
6.934,-0.03,0.51,1.24,-1.64,0.25,1.17
6.934,-0.03,0.51,1.24,-1.64,0.25,1.17
6.941,-0.03,0.51,1.24,-0.96,0.21,1.13
6.942,-0.03,0.51,1.24,-0.96,0.21,1.13
6.943,0.34,0.38,0.81,-0.96,0.21,1.13
6.943,0.34,0.38,0.81,-0.96,0.21,1.13
6.951,0.34,0.38,0.81,-0.46,0.16,0.98
6.952,0.34,0.38,0.81,-0.46,0.16,0.98
6.953,0.76,0.18,0.4,-0.46,0.16,0.98
6.953,0.76,0.18,0.4,-0.46,0.16,0.98
6.96,0.76,0.18,0.4,-0.19,0.12,0.71
6.961,0.76,0.18,0.4,-0.19,0.12,0.71
6.961,1.22,-0.01,0.09,-0.19,0.12,0.71
6.962,1.22,-0.01,0.09,-0.19,0.12,0.71
6.97,1.22,-0.01,0.09,-0.1,0.09,0.37
6.971,1.22,-0.01,0.09,-0.1,0.09,0.37
6.972,1.68,-0.16,-0.07,-0.1,0.09,0.37
6.972,1.68,-0.16,-0.07,-0.1,0.09,0.37
6.983,1.68,-0.16,-0.07,-0.15,0.06,-0.04
6.984,1.68,-0.16,-0.07,-0.15,0.06,-0.04
6.984,2.04,-0.21,-0.06,-0.15,0.06,-0.04
6.985,2.04,-0.21,-0.06,-0.15,0.06,-0.04
6.99,2.04,-0.21,-0.06,-0.24,0.03,-0.47
6.991,2.04,-0.21,-0.06,-0.24,0.03,-0.47
6.991,2.27,-0.1,0.04,-0.24,0.03,-0.47
6.991,2.27,-0.1,0.04,-0.24,0.03,-0.47
7.004,2.27,-0.1,0.04,-0.32,-0.01,-0.91
7.005,2.27,-0.1,0.04,-0.32,-0.01,-0.91
7.005,2.37,0.08,0.14,-0.32,-0.01,-0.91
7.005,2.37,0.08,0.14,-0.32,-0.01,-0.91
7.021,2.37,0.08,0.14,-0.32,-0.01,-0.91
7.023,2.37,0.08,0.14,-0.32,-0.01,-0.91
7.023,2.37,0.08,0.14,-0.32,-0.01,-0.91
7.024,2.37,0.08,0.14,-0.32,-0.01,-0.91
7.024,2.37,0.08,0.14,-0.33,-0.08,-1.57
7.025,2.37,0.08,0.14,-0.33,-0.08,-1.57
7.026,2.16,0.43,0.02,-0.33,-0.08,-1.57
7.026,2.16,0.43,0.02,-0.33,-0.08,-1.57
7.027,2.16,0.43,0.02,-0.33,-0.08,-1.57
7.027,2.16,0.43,0.02,-0.33,-0.08,-1.57
7.028,2.16,0.43,0.02,-0.33,-0.08,-1.57
7.028,2.16,0.43,0.02,-0.33,-0.08,-1.57
7.037,2.16,0.43,0.02,-0.22,-0.11,-1.94
7.038,2.16,0.43,0.02,-0.22,-0.11,-1.94
7.038,1.48,0.57,-0.48,-0.22,-0.11,-1.94
7.039,1.48,0.57,-0.48,-0.22,-0.11,-1.94
7.047,1.48,0.57,-0.48,-0.22,-0.11,-1.94
7.048,1.48,0.57,-0.48,-0.22,-0.11,-1.94
7.048,1.48,0.57,-0.48,-0.22,-0.11,-1.94
7.048,1.48,0.57,-0.48,-0.22,-0.11,-1.94
7.056,1.48,0.57,-0.48,-0.31,-0.12,-1.68
7.057,1.48,0.57,-0.48,-0.31,-0.12,-1.68
7.057,0.75,0.57,-1.13,-0.31,-0.12,-1.68
7.058,0.75,0.57,-1.13,-0.31,-0.12,-1.68
7.065,0.75,0.57,-1.13,-0.45,-0.12,-1.35
7.066,0.75,0.57,-1.13,-0.45,-0.12,-1.35
7.067,0.59,0.61,-1.48,-0.45,-0.12,-1.35
7.067,0.59,0.61,-1.48,-0.45,-0.12,-1.35
7.076,0.59,0.61,-1.48,-0.61,-0.12,-0.97
7.076,0.59,0.61,-1.48,-0.61,-0.12,-0.97
7.077,0.59,0.69,-1.81,-0.61,-0.12,-0.97
7.078,0.59,0.69,-1.81,-0.61,-0.12,-0.97
7.085,0.59,0.69,-1.81,-0.8,-0.13,-0.61
7.087,0.59,0.69,-1.81,-0.8,-0.13,-0.61
7.088,0.67,0.85,-2.09,-0.8,-0.13,-0.61
7.088,0.67,0.85,-2.09,-0.8,-0.13,-0.61
7.093,0.67,0.85,-2.09,-1,-0.12,-0.32
7.094,0.67,0.85,-2.09,-1,-0.12,-0.32
7.094,0.7,1.04,-2.36,-1,-0.12,-0.32
7.094,0.7,1.04,-2.36,-1,-0.12,-0.32
7.103,0.7,1.04,-2.36,-1.21,-0.12,-0.13
7.104,0.7,1.04,-2.36,-1.21,-0.12,-0.13
7.104,0.61,1.24,-2.55,-1.21,-0.12,-0.13
7.105,0.61,1.24,-2.55,-1.21,-0.12,-0.13
7.113,0.61,1.24,-2.55,-1.42,-0.12,0
7.114,0.61,1.24,-2.55,-1.42,-0.12,0
7.114,0.36,1.47,-2.58,-1.42,-0.12,0
7.115,0.36,1.47,-2.58,-1.42,-0.12,0
7.122,0.36,1.47,-2.58,-1.61,-0.12,0.07
7.123,0.36,1.47,-2.58,-1.61,-0.12,0.07
7.124,-0.03,1.72,-2.39,-1.61,-0.12,0.07
7.124,-0.03,1.72,-2.39,-1.61,-0.12,0.07
7.133,-0.03,1.72,-2.39,-1.75,-0.13,0.15
7.135,-0.03,1.72,-2.39,-1.75,-0.13,0.15
7.135,-0.34,2.05,-1.95,-1.75,-0.13,0.15
7.136,-0.34,2.05,-1.95,-1.75,-0.13,0.15
7.141,-0.34,2.05,-1.95,-1.8,-0.13,0.27
7.142,-0.34,2.05,-1.95,-1.8,-0.13,0.27
7.142,-0.51,2.44,-0.29,-1.8,-0.13,0.27
7.142,-0.51,2.44,-0.29,-1.8,-0.13,0.27
7.151,-0.51,2.44,-0.29,-1.69,-0.08,0.45
7.152,-0.51,2.44,-0.29,-1.69,-0.08,0.45
7.152,-0.49,2.83,0.05,-1.69,-0.08,0.45
7.153,-0.49,2.83,0.05,-1.69,-0.08,0.45
7.16,-0.49,2.83,0.05,-1.34,0.01,0.66
7.16,-0.49,2.83,0.05,-1.34,0.01,0.66
7.161,-0.29,3.07,0.53,-1.34,0.01,0.66
7.162,-0.29,3.07,0.53,-1.34,0.01,0.66
7.17,-0.29,3.07,0.53,-0.76,0.14,0.84
7.17,-0.29,3.07,0.53,-0.76,0.14,0.84
7.171,-0.09,3.03,0.78,-0.76,0.14,0.84
7.171,-0.09,3.03,0.78,-0.76,0.14,0.84
7.181,-0.09,3.03,0.78,-0.06,0.26,0.94
7.182,-0.09,3.03,0.78,-0.06,0.26,0.94
7.182,0,2.67,0.59,-0.06,0.26,0.94
7.182,0,2.67,0.59,-0.06,0.26,0.94
7.189,0,2.67,0.59,0.6,0.37,0.92
7.189,0,2.67,0.59,0.6,0.37,0.92
7.19,-0.14,2.1,-1.22,0.6,0.37,0.92
7.19,-0.14,2.1,-1.22,0.6,0.37,0.92
7.202,-0.14,2.1,-1.22,0.6,0.37,0.92
7.203,-0.14,2.1,-1.22,0.6,0.37,0.92
7.203,-0.14,2.1,-1.22,0.6,0.37,0.92
7.204,-0.14,2.1,-1.22,0.6,0.37,0.92
7.208,-0.14,2.1,-1.22,1.04,0.45,0.81
7.208,-0.14,2.1,-1.22,1.04,0.45,0.81
7.208,-1.09,1.07,-1.66,1.04,0.45,0.81
7.209,-1.09,1.07,-1.66,1.04,0.45,0.81
7.218,-1.09,1.07,-1.66,1.12,0.51,0.71
7.219,-1.09,1.07,-1.66,1.12,0.51,0.71
7.219,-1.69,0.96,-1.41,1.12,0.51,0.71
7.22,-1.69,0.96,-1.41,1.12,0.51,0.71
7.229,-1.69,0.96,-1.41,0.84,0.56,0.73
7.229,-1.69,0.96,-1.41,0.84,0.56,0.73
7.23,-2.09,1.1,0.31,0.84,0.56,0.73
7.23,-2.09,1.1,0.31,0.84,0.56,0.73
7.237,-2.09,1.1,0.31,0.46,0.61,0.93
7.238,-2.09,1.1,0.31,0.46,0.61,0.93
7.239,-2.09,1.33,0.62,0.46,0.61,0.93
7.239,-2.09,1.33,0.62,0.46,0.61,0.93
7.246,-2.09,1.33,0.62,0.33,0.67,1.25
7.247,-2.09,1.33,0.62,0.33,0.67,1.25
7.247,-1.66,1.5,1.04,0.33,0.67,1.25
7.248,-1.66,1.5,1.04,0.33,0.67,1.25
7.256,-1.66,1.5,1.04,0.52,0.71,1.53
7.256,-1.66,1.5,1.04,0.52,0.71,1.53
7.257,-0.14,1.51,1.38,0.52,0.71,1.53
7.258,-0.14,1.51,1.38,0.52,0.71,1.53
7.265,-0.14,1.51,1.38,0.91,0.7,1.6
7.266,-0.14,1.51,1.38,0.91,0.7,1.6
7.267,0.36,1.3,1.61,0.91,0.7,1.6
7.268,0.36,1.3,1.61,0.91,0.7,1.6
7.275,0.36,1.3,1.61,1.31,0.63,1.35
7.276,0.36,1.3,1.61,1.31,0.63,1.35
7.277,0.94,1.01,1.71,1.31,0.63,1.35
7.277,0.94,1.01,1.71,1.31,0.63,1.35
7.285,0.94,1.01,1.71,1.63,0.54,0.85
7.286,0.94,1.01,1.71,1.63,0.54,0.85
7.287,1.42,0.67,1.67,1.63,0.54,0.85
7.287,1.42,0.67,1.67,1.63,0.54,0.85
7.294,1.42,0.67,1.67,1.86,0.45,0.16
7.295,1.42,0.67,1.67,1.86,0.45,0.16
7.296,1.67,0.32,1.55,1.86,0.45,0.16
7.296,1.67,0.32,1.55,1.86,0.45,0.16
7.31,1.67,0.32,1.55,1.96,0.38,-0.61
7.31,1.67,0.32,1.55,1.96,0.38,-0.61
7.311,1.68,0.07,1.31,1.96,0.38,-0.61
7.311,1.68,0.07,1.31,1.96,0.38,-0.61
7.313,1.68,0.07,1.31,1.92,0.36,-1.26
7.313,1.68,0.07,1.31,1.92,0.36,-1.26
7.313,1.55,-0.11,1,1.92,0.36,-1.26
7.314,1.55,-0.11,1,1.92,0.36,-1.26
7.322,1.55,-0.11,1,1.74,0.36,-1.73
7.322,1.55,-0.11,1,1.74,0.36,-1.73
7.323,1.37,-0.21,0.59,1.74,0.36,-1.73
7.323,1.37,-0.21,0.59,1.74,0.36,-1.73
7.332,1.37,-0.21,0.59,1.45,0.38,-1.97
7.332,1.37,-0.21,0.59,1.45,0.38,-1.97
7.333,1.29,-0.26,0.14,1.45,0.38,-1.97
7.333,1.29,-0.26,0.14,1.45,0.38,-1.97
7.341,1.29,-0.26,0.14,1.07,0.37,-2.01
7.342,1.29,-0.26,0.14,1.07,0.37,-2.01
7.342,1.36,-0.34,-0.27,1.07,0.37,-2.01
7.343,1.36,-0.34,-0.27,1.07,0.37,-2.01
7.35,1.36,-0.34,-0.27,0.63,0.34,-1.91
7.351,1.36,-0.34,-0.27,0.63,0.34,-1.91
7.352,1.54,-0.42,-0.56,0.63,0.34,-1.91
7.352,1.54,-0.42,-0.56,0.63,0.34,-1.91
7.36,1.54,-0.42,-0.56,0.17,0.3,-1.75
7.361,1.54,-0.42,-0.56,0.17,0.3,-1.75
7.362,1.72,-0.54,-0.69,0.17,0.3,-1.75
7.362,1.72,-0.54,-0.69,0.17,0.3,-1.75
7.371,1.72,-0.54,-0.69,-0.27,0.25,-1.59
7.372,1.72,-0.54,-0.69,-0.27,0.25,-1.59
7.373,1.79,-0.75,-0.71,-0.27,0.25,-1.59
7.373,1.79,-0.75,-0.71,-0.27,0.25,-1.59
7.379,1.79,-0.75,-0.71,-0.64,0.2,-1.45
7.38,1.79,-0.75,-0.71,-0.64,0.2,-1.45
7.381,1.65,-1.09,-0.79,-0.64,0.2,-1.45
7.381,1.65,-1.09,-0.79,-0.64,0.2,-1.45
7.389,1.65,-1.09,-0.79,-0.91,0.14,-1.33
7.389,1.65,-1.09,-0.79,-0.91,0.14,-1.33
7.39,1.27,-1.57,-0.91,-0.91,0.14,-1.33
7.39,1.27,-1.57,-0.91,-0.91,0.14,-1.33
7.398,1.27,-1.57,-0.91,-0.91,0.14,-1.33
7.398,1.27,-1.57,-0.91,-0.91,0.14,-1.33
7.399,1.27,-1.57,-0.91,-0.91,0.14,-1.33
7.399,1.27,-1.57,-0.91,-0.91,0.14,-1.33
7.408,1.27,-1.57,-0.91,-1.08,0.08,-1.19
7.409,1.27,-1.57,-0.91,-1.08,0.08,-1.19
7.41,0.24,-2.29,-1.11,-1.08,0.08,-1.19
7.41,0.24,-2.29,-1.11,-1.08,0.08,-1.19
7.418,0.24,-2.29,-1.11,-1.16,0.02,-0.98
7.42,0.24,-2.29,-1.11,-1.16,0.02,-0.98
7.42,-0.23,-2.21,-1.26,-1.16,0.02,-0.98
7.421,-0.23,-2.21,-1.26,-1.16,0.02,-0.98
7.431,-0.23,-2.21,-1.26,-1.19,-0.05,-0.63
7.432,-0.23,-2.21,-1.26,-1.19,-0.05,-0.63
7.433,-0.53,-1.82,-1.53,-1.19,-0.05,-0.63
7.433,-0.53,-1.82,-1.53,-1.19,-0.05,-0.63
7.436,-0.53,-1.82,-1.53,-1.21,-0.11,-0.18
7.436,-0.53,-1.82,-1.53,-1.21,-0.11,-0.18
7.436,-0.71,-1.37,-2.02,-1.21,-0.11,-0.18
7.437,-0.71,-1.37,-2.02,-1.21,-0.11,-0.18
7.445,-0.71,-1.37,-2.02,-1.24,-0.16,0.29
7.446,-0.71,-1.37,-2.02,-1.24,-0.16,0.29
7.446,-0.76,-1.02,-2.61,-1.24,-0.16,0.29
7.447,-0.76,-1.02,-2.61,-1.24,-0.16,0.29
7.455,-0.76,-1.02,-2.61,-1.31,-0.2,0.68
7.456,-0.76,-1.02,-2.61,-1.31,-0.2,0.68
7.456,-0.72,-0.93,-3.16,-1.31,-0.2,0.68
7.457,-0.72,-0.93,-3.16,-1.31,-0.2,0.68
7.464,-0.72,-0.93,-3.16,-1.45,-0.23,0.96
7.465,-0.72,-0.93,-3.16,-1.45,-0.23,0.96
7.466,-0.68,-1.13,-3.61,-1.45,-0.23,0.96
7.467,-0.68,-1.13,-3.61,-1.45,-0.23,0.96
7.474,-0.68,-1.13,-3.61,-1.66,-0.26,1.12
7.475,-0.68,-1.13,-3.61,-1.66,-0.26,1.12
7.475,-0.69,-1.69,-3.97,-1.66,-0.26,1.12
7.476,-0.69,-1.69,-3.97,-1.66,-0.26,1.12
7.484,-0.69,-1.69,-3.97,-1.9,-0.27,1.19
7.485,-0.69,-1.69,-3.97,-1.9,-0.27,1.19
7.486,-0.73,-3.54,-4.23,-1.9,-0.27,1.19
7.486,-0.73,-3.54,-4.23,-1.9,-0.27,1.19
7.493,-0.73,-3.54,-4.23,-2.12,-0.28,1.19
7.494,-0.73,-3.54,-4.23,-2.12,-0.28,1.19
7.494,-0.78,-5.36,-4.38,-2.12,-0.28,1.19
7.494,-0.78,-5.36,-4.38,-2.12,-0.28,1.19
7.503,-0.78,-5.36,-4.38,-2.23,-0.28,1.14
7.504,-0.78,-5.36,-4.38,-2.23,-0.28,1.14
7.504,-0.82,-5.68,-4.32,-2.23,-0.28,1.14
7.505,-0.82,-5.68,-4.32,-2.23,-0.28,1.14
7.512,-0.82,-5.68,-4.32,-2.19,-0.29,1.07
7.513,-0.82,-5.68,-4.32,-2.19,-0.29,1.07
7.513,-0.8,-5.96,-3.93,-2.19,-0.29,1.07
7.513,-0.8,-5.96,-3.93,-2.19,-0.29,1.07
7.523,-0.8,-5.96,-3.93,-2.01,-0.31,0.97
7.524,-0.8,-5.96,-3.93,-2.01,-0.31,0.97
7.525,-0.83,-5.84,-2.25,-2.01,-0.31,0.97
7.525,-0.83,-5.84,-2.25,-2.01,-0.31,0.97
7.531,-0.83,-5.84,-2.25,-1.71,-0.34,0.86
7.533,-0.83,-5.84,-2.25,-1.71,-0.34,0.86
7.533,-0.93,-5.29,-1.94,-1.71,-0.34,0.86
7.534,-0.93,-5.29,-1.94,-1.71,-0.34,0.86
7.541,-0.93,-5.29,-1.94,-1.29,-0.38,0.75
7.542,-0.93,-5.29,-1.94,-1.29,-0.38,0.75
7.543,-1.08,-3.51,-1.52,-1.29,-0.38,0.75
7.543,-1.08,-3.51,-1.52,-1.29,-0.38,0.75
7.553,-1.08,-3.51,-1.52,-0.8,-0.42,0.66
7.555,-1.08,-3.51,-1.52,-0.8,-0.42,0.66
7.556,-1.34,-1.86,-1.23,-0.8,-0.42,0.66
7.557,-1.34,-1.86,-1.23,-0.8,-0.42,0.66
7.559,-1.34,-1.86,-1.23,-0.35,-0.45,0.6
7.56,-1.34,-1.86,-1.23,-0.35,-0.45,0.6
7.561,-1.64,-1.57,-1.09,-0.35,-0.45,0.6
7.561,-1.64,-1.57,-1.09,-0.35,-0.45,0.6
7.569,-1.64,-1.57,-1.09,0,-0.48,0.58
7.57,-1.64,-1.57,-1.09,0,-0.48,0.58
7.571,-2,-1.14,-1.02,0,-0.48,0.58
7.571,-2,-1.14,-1.02,0,-0.48,0.58
7.582,-2,-1.14,-1.02,0.23,-0.51,0.63
7.583,-2,-1.14,-1.02,0.23,-0.51,0.63
7.583,-2.31,-0.73,-0.94,0.23,-0.51,0.63
7.584,-2.31,-0.73,-0.94,0.23,-0.51,0.63
7.592,-2.31,-0.73,-0.94,0.38,-0.55,0.73
7.593,-2.31,-0.73,-0.94,0.38,-0.55,0.73
7.593,-2.45,-0.42,-0.86,0.38,-0.55,0.73
7.593,-2.45,-0.42,-0.86,0.38,-0.55,0.73
7.597,-2.45,-0.42,-0.86,0.38,-0.55,0.73
7.598,-2.45,-0.42,-0.86,0.38,-0.55,0.73
7.598,-2.45,-0.42,-0.86,0.38,-0.55,0.73
7.599,-2.45,-0.42,-0.86,0.38,-0.55,0.73
7.607,-2.45,-0.42,-0.86,0.47,-0.58,0.88
7.608,-2.45,-0.42,-0.86,0.47,-0.58,0.88
7.608,-1.93,0.06,-0.9,0.47,-0.58,0.88
7.608,-1.93,0.06,-0.9,0.47,-0.58,0.88
7.616,-1.93,0.06,-0.9,0.5,-0.62,1.02
7.617,-1.93,0.06,-0.9,0.5,-0.62,1.02
7.618,-1.3,0.25,-1.06,0.5,-0.62,1.02
7.618,-1.3,0.25,-1.06,0.5,-0.62,1.02
7.626,-1.3,0.25,-1.06,0.49,-0.61,1.1
7.627,-1.3,0.25,-1.06,0.49,-0.61,1.1
7.628,0.15,0.44,-1.23,0.49,-0.61,1.1
7.628,0.15,0.44,-1.23,0.49,-0.61,1.1
7.636,0.15,0.44,-1.23,0.43,-0.55,1.04
7.637,0.15,0.44,-1.23,0.43,-0.55,1.04
7.637,0.47,0.57,-1.37,0.43,-0.55,1.04
7.638,0.47,0.57,-1.37,0.43,-0.55,1.04
7.645,0.47,0.57,-1.37,0.32,-0.41,0.77
7.646,0.47,0.57,-1.37,0.32,-0.41,0.77
7.646,0.77,0.74,-1.46,0.32,-0.41,0.77
7.647,0.77,0.74,-1.46,0.32,-0.41,0.77
7.655,0.77,0.74,-1.46,0.17,-0.21,0.34
7.656,0.77,0.74,-1.46,0.17,-0.21,0.34
7.656,0.98,1,-1.44,0.17,-0.21,0.34
7.657,0.98,1,-1.44,0.17,-0.21,0.34
7.664,0.98,1,-1.44,-0.01,0.01,-0.16
7.665,0.98,1,-1.44,-0.01,0.01,-0.16
7.665,1.03,1.33,-1.34,-0.01,0.01,-0.16
7.666,1.03,1.33,-1.34,-0.01,0.01,-0.16
7.674,1.03,1.33,-1.34,-0.18,0.2,-0.6
7.675,1.03,1.33,-1.34,-0.18,0.2,-0.6
7.675,0.91,1.76,-1.12,-0.18,0.2,-0.6
7.676,0.91,1.76,-1.12,-0.18,0.2,-0.6
7.683,0.91,1.76,-1.12,-0.33,0.33,-0.94
7.684,0.91,1.76,-1.12,-0.33,0.33,-0.94
7.685,0.68,2.2,-0.89,-0.33,0.33,-0.94
7.686,0.68,2.2,-0.89,-0.33,0.33,-0.94
7.693,0.68,2.2,-0.89,-0.43,0.38,-1.16
7.694,0.68,2.2,-0.89,-0.43,0.38,-1.16
7.694,0.34,2.57,-0.6,-0.43,0.38,-1.16
7.694,0.34,2.57,-0.6,-0.43,0.38,-1.16
7.702,0.34,2.57,-0.6,-0.48,0.37,-1.25
7.703,0.34,2.57,-0.6,-0.48,0.37,-1.25
7.703,0.01,2.8,-0.34,-0.48,0.37,-1.25
7.703,0.01,2.8,-0.34,-0.48,0.37,-1.25
7.712,0.01,2.8,-0.34,-0.47,0.31,-1.2
7.713,0.01,2.8,-0.34,-0.47,0.31,-1.2
7.713,-0.26,2.86,-0.19,-0.47,0.31,-1.2
7.713,-0.26,2.86,-0.19,-0.47,0.31,-1.2
7.721,-0.26,2.86,-0.19,-0.4,0.19,-1.02
7.722,-0.48,2.8,-0.04,-0.4,0.19,-1.02
7.723,-0.48,2.8,-0.04,-0.4,0.19,-1.02
7.723,-0.48,2.8,-0.04,-0.4,0.19,-1.02
7.731,-0.48,2.8,-0.04,-0.29,0.02,-0.75
7.732,-0.48,2.8,-0.04,-0.29,0.02,-0.75
7.733,-0.58,2.69,-0.01,-0.29,0.02,-0.75
7.733,-0.58,2.69,-0.01,-0.29,0.02,-0.75
7.741,-0.58,2.69,-0.01,-0.16,-0.16,-0.43
7.742,-0.58,2.69,-0.01,-0.16,-0.16,-0.43
7.743,-0.62,2.6,-0.02,-0.16,-0.16,-0.43
7.744,-0.62,2.6,-0.02,-0.16,-0.16,-0.43
7.75,-0.62,2.6,-0.02,-0.05,-0.33,-0.1
7.751,-0.62,2.6,-0.02,-0.05,-0.33,-0.1
7.752,-0.63,2.6,-0.04,-0.05,-0.33,-0.1
7.753,-0.63,2.6,-0.04,-0.05,-0.33,-0.1
7.759,-0.63,2.6,-0.04,0.04,-0.47,0.18
7.76,-0.63,2.6,-0.04,0.04,-0.47,0.18
7.76,-0.59,2.66,-0.1,0.04,-0.47,0.18
7.761,-0.59,2.66,-0.1,0.04,-0.47,0.18
7.769,-0.59,2.66,-0.1,0.08,-0.58,0.41
7.77,-0.59,2.66,-0.1,0.08,-0.58,0.41
7.771,-0.59,2.76,-0.18,0.08,-0.58,0.41
7.771,-0.59,2.76,-0.18,0.08,-0.58,0.41
7.783,-0.59,2.76,-0.18,0.07,-0.64,0.56
7.784,-0.59,2.76,-0.18,0.07,-0.64,0.56
7.784,-0.6,2.85,-0.24,0.07,-0.64,0.56
7.785,-0.6,2.85,-0.24,0.07,-0.64,0.56
7.788,-0.6,2.85,-0.24,0.07,-0.64,0.56
7.789,-0.6,2.85,-0.24,0.07,-0.64,0.56
7.789,-0.6,2.85,-0.24,0.07,-0.64,0.56
7.79,-0.6,2.85,-0.24,0.07,-0.64,0.56
7.802,-0.6,2.85,-0.24,0.01,-0.66,0.66
7.803,-0.6,2.85,-0.24,0.01,-0.66,0.66
7.804,-0.71,2.92,-0.39,0.01,-0.66,0.66
7.804,-0.71,2.92,-0.39,0.01,-0.66,0.66
7.808,-0.71,2.92,-0.39,-0.09,-0.65,0.72
7.808,-0.71,2.92,-0.39,-0.09,-0.65,0.72
7.809,-0.72,2.87,-0.43,-0.09,-0.65,0.72
7.809,-0.72,2.87,-0.43,-0.09,-0.65,0.72
7.816,-0.72,2.87,-0.43,-0.21,-0.61,0.76
7.817,-0.72,2.87,-0.43,-0.21,-0.61,0.76
7.818,-0.74,2.8,-0.48,-0.21,-0.61,0.76
7.818,-0.74,2.8,-0.48,-0.21,-0.61,0.76
7.827,-0.74,2.8,-0.48,-0.34,-0.56,0.81
7.827,-0.74,2.8,-0.48,-0.34,-0.56,0.81
7.828,-0.76,2.71,-0.49,-0.34,-0.56,0.81
7.828,-0.76,2.71,-0.49,-0.34,-0.56,0.81
7.836,-0.76,2.71,-0.49,-0.46,-0.49,0.85
7.837,-0.76,2.71,-0.49,-0.46,-0.49,0.85
7.838,-0.74,2.64,-0.44,-0.46,-0.49,0.85
7.839,-0.74,2.64,-0.44,-0.46,-0.49,0.85
7.846,-0.74,2.64,-0.44,-0.55,-0.41,0.87
7.847,-0.74,2.64,-0.44,-0.55,-0.41,0.87
7.847,-0.67,2.58,-0.4,-0.55,-0.41,0.87
7.848,-0.67,2.58,-0.4,-0.55,-0.41,0.87
7.855,-0.67,2.58,-0.4,-0.6,-0.33,0.87
7.856,-0.67,2.58,-0.4,-0.6,-0.33,0.87
7.857,-0.53,2.5,-0.33,-0.6,-0.33,0.87
7.858,-0.53,2.5,-0.33,-0.6,-0.33,0.87
7.864,-0.53,2.5,-0.33,-0.6,-0.24,0.85
7.865,-0.53,2.5,-0.33,-0.6,-0.24,0.85
7.865,-0.27,2.4,-0.26,-0.6,-0.24,0.85
7.865,-0.27,2.4,-0.26,-0.6,-0.24,0.85
7.875,-0.27,2.4,-0.26,-0.56,-0.14,0.78
7.875,-0.27,2.4,-0.26,-0.56,-0.14,0.78
7.876,0.09,2.24,-0.17,-0.56,-0.14,0.78
7.876,0.09,2.24,-0.17,-0.56,-0.14,0.78
7.885,0.09,2.24,-0.17,-0.48,-0.03,0.66
7.886,0.09,2.24,-0.17,-0.48,-0.03,0.66
7.886,0.55,1.94,-0.09,-0.48,-0.03,0.66
7.886,0.55,1.94,-0.09,-0.48,-0.03,0.66
7.913,0.55,1.94,-0.09,-0.38,0.09,0.45
7.913,0.55,1.94,-0.09,-0.38,0.09,0.45
7.914,1.05,1.58,-0.06,-0.38,0.09,0.45
7.914,1.05,1.58,-0.06,-0.38,0.09,0.45
7.914,1.05,1.58,-0.06,-0.26,0.23,0.14
7.914,1.05,1.58,-0.06,-0.26,0.23,0.14
7.915,1.49,1.14,-0.1,-0.26,0.23,0.14
7.915,1.49,1.14,-0.1,-0.26,0.23,0.14
7.915,1.49,1.14,-0.1,-0.12,0.4,-0.25
7.915,1.49,1.14,-0.1,-0.12,0.4,-0.25
7.916,1.81,0.64,-0.26,-0.12,0.4,-0.25
7.916,1.81,0.64,-0.26,-0.12,0.4,-0.25
7.921,1.81,0.64,-0.26,0.01,0.58,-0.69
7.921,1.81,0.64,-0.26,0.01,0.58,-0.69
7.922,2,0.23,-0.49,0.01,0.58,-0.69
7.922,2,0.23,-0.49,0.01,0.58,-0.69
7.931,2,0.23,-0.49,0.09,0.75,-1.11
7.932,2,0.23,-0.49,0.09,0.75,-1.11
7.932,2.03,-0.03,-0.74,0.09,0.75,-1.11
7.933,2.03,-0.03,-0.74,0.09,0.75,-1.11
7.941,2.03,-0.03,-0.74,0.1,0.88,-1.45
7.942,2.03,-0.03,-0.74,0.1,0.88,-1.45
7.942,2.01,-0.13,-0.96,0.1,0.88,-1.45
7.942,2.01,-0.13,-0.96,0.1,0.88,-1.45
7.95,2.01,-0.13,-0.96,0.05,0.93,-1.66
7.951,2.01,-0.13,-0.96,0.05,0.93,-1.66
7.952,1.93,-0.04,-1.15,0.05,0.93,-1.66
7.952,1.93,-0.04,-1.15,0.05,0.93,-1.66
7.96,1.93,-0.04,-1.15,-0.07,0.86,-1.74
7.96,1.93,-0.04,-1.15,-0.07,0.86,-1.74
7.961,1.77,0.14,-1.27,-0.07,0.86,-1.74
7.961,1.77,0.14,-1.27,-0.07,0.86,-1.74
7.971,1.77,0.14,-1.27,-0.23,0.71,-1.71
7.971,1.77,0.14,-1.27,-0.23,0.71,-1.71
7.972,1.6,0.37,-1.33,-0.23,0.71,-1.71
7.973,1.6,0.37,-1.33,-0.23,0.71,-1.71
7.983,1.6,0.37,-1.33,-0.23,0.71,-1.71
7.984,1.6,0.37,-1.33,-0.23,0.71,-1.71
7.984,1.6,0.37,-1.33,-0.23,0.71,-1.71
7.985,1.6,0.37,-1.33,-0.23,0.71,-1.71
7.988,1.6,0.37,-1.33,-0.4,0.57,-1.59
7.989,1.6,0.37,-1.33,-0.4,0.57,-1.59
7.989,1.17,0.85,-1.6,-0.4,0.57,-1.59
7.99,1.17,0.85,-1.6,-0.4,0.57,-1.59
8.005,1.17,0.85,-1.6,-0.56,0.43,-1.39
8.006,1.17,0.85,-1.6,-0.56,0.43,-1.39
8.007,0.99,1.14,-1.71,-0.56,0.43,-1.39
8.007,0.99,1.14,-1.71,-0.56,0.43,-1.39
8.02,0.99,1.14,-1.71,-0.74,0.32,-1.15
8.021,0.83,1.42,-1.74,-0.74,0.32,-1.15
8.021,0.83,1.42,-1.74,-0.74,0.32,-1.15
8.021,0.83,1.42,-1.74,-0.74,0.32,-1.15
8.021,0.83,1.42,-1.74,-1.09,-0.07,-0.61
8.022,0.83,1.42,-1.74,-1.09,-0.07,-0.61
8.022,0.67,1.68,-1.6,-1.09,-0.07,-0.61
8.022,0.67,1.68,-1.6,-1.09,-0.07,-0.61
8.027,0.67,1.68,-1.6,-1.09,-0.07,-0.61
8.027,0.67,1.68,-1.6,-1.09,-0.07,-0.61
8.027,0.67,1.68,-1.6,-1.09,-0.07,-0.61
8.028,0.67,1.68,-1.6,-1.09,-0.07,-0.61
8.036,0.67,1.68,-1.6,-1.4,-0.63,-0.1
8.037,0.67,1.68,-1.6,-1.4,-0.63,-0.1
8.038,0.24,1.91,-0.77,-1.4,-0.63,-0.1
8.038,0.24,1.91,-0.77,-1.4,-0.63,-0.1
8.045,0.24,1.91,-0.77,-1.4,-0.63,-0.1
8.046,0.24,1.91,-0.77,-1.4,-0.63,-0.1
8.046,0.24,1.91,-0.77,-1.4,-0.63,-0.1
8.047,0.24,1.91,-0.77,-1.4,-0.63,-0.1
8.055,0.24,1.91,-0.77,-1.18,-0.97,0.41
8.056,0.24,1.91,-0.77,-1.18,-0.97,0.41
8.056,-0.45,1.63,0.23,-1.18,-0.97,0.41
8.057,-0.45,1.63,0.23,-1.18,-0.97,0.41
8.064,-0.45,1.63,0.23,-0.82,-1.04,0.67
8.065,-0.45,1.63,0.23,-0.82,-1.04,0.67
8.065,-0.79,1.4,0.55,-0.82,-1.04,0.67
8.066,-0.79,1.4,0.55,-0.82,-1.04,0.67
8.074,-0.79,1.4,0.55,-0.4,-1.09,0.89
8.075,-0.79,1.4,0.55,-0.4,-1.09,0.89
8.075,-0.98,1.23,0.64,-0.4,-1.09,0.89
8.076,-0.98,1.23,0.64,-0.4,-1.09,0.89
8.088,-0.98,1.23,0.64,0.04,-1.14,1.12
8.089,-0.98,1.23,0.64,0.04,-1.14,1.12
8.089,-0.97,1.17,0.6,0.04,-1.14,1.12
8.089,-0.97,1.17,0.6,0.04,-1.14,1.12
8.093,-0.97,1.17,0.6,0.42,-1.17,1.3
8.093,-0.97,1.17,0.6,0.42,-1.17,1.3
8.093,-0.83,1.2,0.54,0.42,-1.17,1.3
8.094,-0.83,1.2,0.54,0.42,-1.17,1.3
8.105,-0.83,1.2,0.54,0.69,-1.18,1.43
8.106,-0.83,1.2,0.54,0.69,-1.18,1.43
8.106,-0.56,1.25,0.52,0.69,-1.18,1.43
8.107,-0.56,1.25,0.52,0.69,-1.18,1.43
8.113,-0.56,1.25,0.52,0.85,-1.18,1.44
8.114,-0.56,1.25,0.52,0.85,-1.18,1.44
8.114,-0.28,1.27,0.59,0.85,-1.18,1.44
8.114,-0.28,1.27,0.59,0.85,-1.18,1.44
8.12,-0.28,1.27,0.59,0.9,-1.16,1.34
8.121,-0.28,1.27,0.59,0.9,-1.16,1.34
8.121,-0.04,1.19,0.79,0.9,-1.16,1.34
8.122,-0.04,1.19,0.79,0.9,-1.16,1.34
8.13,-0.04,1.19,0.79,0.89,-1.13,1.11
8.131,-0.04,1.19,0.79,0.89,-1.13,1.11
8.131,0.1,1.03,1.07,0.89,-1.13,1.11
8.132,0.1,1.03,1.07,0.89,-1.13,1.11
8.14,0.1,1.03,1.07,0.88,-1.09,0.8
8.141,0.1,1.03,1.07,0.88,-1.09,0.8
8.141,0.11,0.85,1.37,0.88,-1.09,0.8
8.142,0.11,0.85,1.37,0.88,-1.09,0.8
8.15,0.11,0.85,1.37,0.91,-1.05,0.46
8.151,0.11,0.85,1.37,0.91,-1.05,0.46
8.152,0.02,0.73,1.64,0.91,-1.05,0.46
8.152,0.02,0.73,1.64,0.91,-1.05,0.46
8.163,0.02,0.73,1.64,1,-1,0.15
8.164,0.02,0.73,1.64,1,-1,0.15
8.164,-0.15,0.73,1.79,1,-1,0.15
8.165,-0.15,0.73,1.79,1,-1,0.15
8.17,-0.15,0.73,1.79,1.15,-0.96,-0.08
8.172,-0.15,0.73,1.79,1.15,-0.96,-0.08
8.173,-0.36,0.86,1.83,1.15,-0.96,-0.08
8.173,-0.36,0.86,1.83,1.15,-0.96,-0.08
8.181,-0.36,0.86,1.83,1.15,-0.96,-0.08
8.182,-0.36,0.86,1.83,1.15,-0.96,-0.08
8.183,-0.36,0.86,1.83,1.15,-0.96,-0.08
8.183,-0.36,0.86,1.83,1.15,-0.96,-0.08
8.187,-0.36,0.86,1.83,1.3,-0.92,-0.21
8.188,-0.36,0.86,1.83,1.3,-0.92,-0.21
8.189,-0.96,1.18,1.72,1.3,-0.92,-0.21
8.189,-0.96,1.18,1.72,1.3,-0.92,-0.21
8.202,-0.96,1.18,1.72,1.4,-0.9,-0.23
8.203,-0.96,1.18,1.72,1.4,-0.9,-0.23
8.203,-1.36,1.14,1.6,1.4,-0.9,-0.23
8.203,-1.36,1.14,1.6,1.4,-0.9,-0.23
8.207,-1.36,1.14,1.6,1.42,-0.87,-0.11
8.208,-1.36,1.14,1.6,1.42,-0.87,-0.11
8.208,-1.88,0.74,1.51,1.42,-0.87,-0.11
8.208,-1.88,0.74,1.51,1.42,-0.87,-0.11
8.216,-1.88,0.74,1.51,1.36,-0.84,0.14
8.217,-1.88,0.74,1.51,1.36,-0.84,0.14
8.218,-2.46,-1.05,1.41,1.36,-0.84,0.14
8.218,-2.46,-1.05,1.41,1.36,-0.84,0.14
8.226,-2.46,-1.05,1.41,1.25,-0.8,0.49
8.226,-2.46,-1.05,1.41,1.25,-0.8,0.49
8.227,-2.96,-3.07,1.29,1.25,-0.8,0.49
8.227,-2.96,-3.07,1.29,1.25,-0.8,0.49
8.236,-2.96,-3.07,1.29,1.13,-0.75,0.86
8.237,-2.96,-3.07,1.29,1.13,-0.75,0.86
8.237,-3.22,-4.93,1.22,1.13,-0.75,0.86
8.238,-3.22,-4.93,1.22,1.13,-0.75,0.86
8.245,-3.22,-4.93,1.22,1.04,-0.7,1.15
8.246,-3.22,-4.93,1.22,1.04,-0.7,1.15
8.247,-3.13,-5.49,1.2,1.04,-0.7,1.15
8.247,-3.13,-5.49,1.2,1.04,-0.7,1.15
8.254,-3.13,-5.49,1.2,0.99,-0.64,1.3
8.255,-3.13,-5.49,1.2,0.99,-0.64,1.3
8.255,-2.77,-5.87,1.31,0.99,-0.64,1.3
8.256,-2.77,-5.87,1.31,0.99,-0.64,1.3
8.264,-2.77,-5.87,1.31,0.94,-0.56,1.29
8.265,-2.77,-5.87,1.31,0.94,-0.56,1.29
8.265,-2.41,-5.91,1.58,0.94,-0.56,1.29
8.266,-2.41,-5.91,1.58,0.94,-0.56,1.29
8.273,-2.41,-5.91,1.58,0.91,-0.48,1.14
8.274,-2.27,-5.7,1.91,0.91,-0.48,1.14
8.275,-2.27,-5.7,1.91,0.91,-0.48,1.14
8.276,-2.27,-5.7,1.91,0.91,-0.48,1.14
8.284,-2.27,-5.7,1.91,0.89,-0.39,0.92
8.285,-2.27,-5.7,1.91,0.89,-0.39,0.92
8.286,-2.43,-5.41,2.2,0.89,-0.39,0.92
8.286,-2.43,-5.41,2.2,0.89,-0.39,0.92
8.307,-2.43,-5.41,2.2,0.91,-0.29,0.69
8.308,-2.43,-5.41,2.2,0.91,-0.29,0.69
8.308,-2.7,-5,2.36,0.91,-0.29,0.69
8.308,-2.7,-5,2.36,0.91,-0.29,0.69
8.309,-2.7,-5,2.36,0.97,-0.18,0.51
8.309,-2.7,-5,2.36,0.97,-0.18,0.51
8.31,-2.82,-4.4,2.32,0.97,-0.18,0.51
8.31,-2.82,-4.4,2.32,0.97,-0.18,0.51
8.315,-2.82,-4.4,2.32,1.03,-0.06,0.41
8.316,-2.82,-4.4,2.32,1.03,-0.06,0.41
8.316,-2.5,-2.82,2.2,1.03,-0.06,0.41
8.316,-2.5,-2.82,2.2,1.03,-0.06,0.41
8.321,-2.5,-2.82,2.2,1.08,0.07,0.39
8.322,-2.5,-2.82,2.2,1.08,0.07,0.39
8.323,-0.42,-2.36,2.07,1.08,0.07,0.39
8.323,-0.42,-2.36,2.07,1.08,0.07,0.39
8.33,-0.42,-2.36,2.07,1.09,0.22,0.38
8.332,-0.42,-2.36,2.07,1.09,0.22,0.38
8.332,0.14,-1.88,2.08,1.09,0.22,0.38
8.333,0.14,-1.88,2.08,1.09,0.22,0.38
8.34,0.14,-1.88,2.08,1.06,0.37,0.26
8.341,0.14,-1.88,2.08,1.06,0.37,0.26
8.342,1.91,-1.58,2.42,1.06,0.37,0.26
8.343,1.91,-1.58,2.42,1.06,0.37,0.26
8.349,1.91,-1.58,2.42,1,0.49,-0.05
8.351,1.91,-1.58,2.42,1,0.49,-0.05
8.351,2.39,-1.53,4.24,1,0.49,-0.05
8.352,2.39,-1.53,4.24,1,0.49,-0.05
8.361,2.39,-1.53,4.24,0.97,0.55,-0.55
8.361,2.39,-1.53,4.24,0.97,0.55,-0.55
8.362,2.84,-1.64,4.63,0.97,0.55,-0.55
8.362,2.84,-1.64,4.63,0.97,0.55,-0.55
8.369,2.84,-1.64,4.63,1.09,0.54,-1.16
8.37,2.84,-1.64,4.63,1.09,0.54,-1.16
8.37,3.13,-1.82,6,1.09,0.54,-1.16
8.371,3.13,-1.82,6,1.09,0.54,-1.16
8.379,3.13,-1.82,6,1.09,0.54,-1.16
8.38,3.13,-1.82,6,1.09,0.54,-1.16
8.38,3.13,-1.82,6,1.09,0.54,-1.16
8.38,3.13,-1.82,6,1.09,0.54,-1.16
8.388,3.13,-1.82,6,1.44,0.48,-1.77
8.389,3.13,-1.82,6,1.44,0.48,-1.77
8.389,3.04,-1.75,6.01,1.44,0.48,-1.77
8.39,3.04,-1.75,6.01,1.44,0.48,-1.77
8.399,3.04,-1.75,6.01,1.93,0.4,-2.26
8.4,3.04,-1.75,6.01,1.93,0.4,-2.26
8.4,2.76,-1.35,5.5,1.93,0.4,-2.26
8.401,2.76,-1.35,5.5,1.93,0.4,-2.26
8.407,2.76,-1.35,5.5,2.41,0.32,-2.57
8.408,2.76,-1.35,5.5,2.41,0.32,-2.57
8.408,2.34,-0.82,3.71,2.41,0.32,-2.57
8.409,2.34,-0.82,3.71,2.41,0.32,-2.57
8.42,2.34,-0.82,3.71,2.7,0.26,-2.68
8.421,2.34,-0.82,3.71,2.7,0.26,-2.68
8.422,1.88,-0.29,3.4,2.7,0.26,-2.68
8.422,1.88,-0.29,3.4,2.7,0.26,-2.68
8.426,1.88,-0.29,3.4,2.68,0.21,-2.59
8.426,1.88,-0.29,3.4,2.68,0.21,-2.59
8.427,1.32,0.1,3.01,2.68,0.21,-2.59
8.427,1.32,0.1,3.01,2.68,0.21,-2.59
8.436,1.32,0.1,3.01,2.37,0.17,-2.34
8.437,1.32,0.1,3.01,2.37,0.17,-2.34
8.437,0.72,0.33,2.67,2.37,0.17,-2.34
8.438,0.72,0.33,2.67,2.37,0.17,-2.34
8.445,0.72,0.33,2.67,1.92,0.14,-1.95
8.446,0.72,0.33,2.67,1.92,0.14,-1.95
8.446,0.14,0.42,2.38,1.92,0.14,-1.95
8.447,0.14,0.42,2.38,1.92,0.14,-1.95
8.455,0.14,0.42,2.38,1.45,0.13,-1.46
8.455,0.14,0.42,2.38,1.45,0.13,-1.46
8.456,-0.39,0.42,2.11,1.45,0.13,-1.46
8.457,-0.39,0.42,2.11,1.45,0.13,-1.46
8.463,-0.39,0.42,2.11,1.01,0.16,-0.88
8.464,-0.39,0.42,2.11,1.01,0.16,-0.88
8.464,-0.77,0.41,1.83,1.01,0.16,-0.88
8.465,-0.77,0.41,1.83,1.01,0.16,-0.88
8.474,-0.77,0.41,1.83,0.62,0.2,-0.27
8.475,-0.77,0.41,1.83,0.62,0.2,-0.27
8.476,-1,0.41,1.59,0.62,0.2,-0.27
8.477,-1,0.41,1.59,0.62,0.2,-0.27
8.488,-1,0.41,1.59,0.26,0.26,0.34
8.489,-1,0.41,1.59,0.26,0.26,0.34
8.489,-1.07,0.39,1.47,0.26,0.26,0.34
8.489,-1.07,0.39,1.47,0.26,0.26,0.34
8.513,-1.07,0.39,1.47,-0.06,0.33,0.89
8.514,-1.07,0.39,1.47,-0.06,0.33,0.89
8.514,-1,0.31,1.43,-0.06,0.33,0.89
8.514,-1,0.31,1.43,-0.06,0.33,0.89
8.514,-1,0.31,1.43,-0.31,0.39,1.32
8.515,-1,0.31,1.43,-0.31,0.39,1.32
8.515,-0.71,0.13,1.42,-0.31,0.39,1.32
8.515,-0.71,0.13,1.42,-0.31,0.39,1.32
8.515,-0.71,0.13,1.42,-0.4,0.36,1.6
8.516,-0.71,0.13,1.42,-0.4,0.36,1.6
8.516,-0.3,-0.12,1.36,-0.4,0.36,1.6
8.516,-0.3,-0.12,1.36,-0.4,0.36,1.6
8.521,-0.3,-0.12,1.36,-0.41,0.25,1.7
8.521,-0.3,-0.12,1.36,-0.41,0.25,1.7
8.521,0.19,-0.31,1.22,-0.41,0.25,1.7
8.522,0.19,-0.31,1.22,-0.41,0.25,1.7
8.53,0.19,-0.31,1.22,-0.45,0.23,1.62
8.531,0.19,-0.31,1.22,-0.45,0.23,1.62
8.531,0.77,-0.44,1.06,-0.45,0.23,1.62
8.531,0.77,-0.44,1.06,-0.45,0.23,1.62
8.54,0.77,-0.44,1.06,-0.48,0.27,1.37
8.541,0.77,-0.44,1.06,-0.48,0.27,1.37
8.541,1.29,-0.44,0.94,-0.48,0.27,1.37
8.541,1.29,-0.44,0.94,-0.48,0.27,1.37
8.549,1.29,-0.44,0.94,-0.49,0.28,0.98
8.55,1.29,-0.44,0.94,-0.49,0.28,0.98
8.551,1.74,-0.3,0.88,-0.49,0.28,0.98
8.551,1.74,-0.3,0.88,-0.49,0.28,0.98
8.559,1.74,-0.3,0.88,-0.5,0.25,0.5
8.56,1.74,-0.3,0.88,-0.5,0.25,0.5
8.561,2.09,-0.07,0.88,-0.5,0.25,0.5
8.561,2.09,-0.07,0.88,-0.5,0.25,0.5
8.569,2.09,-0.07,0.88,-0.5,0.25,0.5
8.57,2.09,-0.07,0.88,-0.5,0.25,0.5
8.571,2.09,-0.07,0.88,-0.5,0.25,0.5
8.572,2.09,-0.07,0.88,-0.5,0.25,0.5
8.582,2.09,-0.07,0.88,-0.5,0.21,-0.01
8.583,2.09,-0.07,0.88,-0.5,0.21,-0.01
8.584,2.55,0.52,0.98,-0.5,0.21,-0.01
8.584,2.55,0.52,0.98,-0.5,0.21,-0.01
8.587,2.55,0.52,0.98,-0.47,0.16,-0.5
8.588,2.55,0.52,0.98,-0.47,0.16,-0.5
8.589,2.63,0.8,0.96,-0.47,0.16,-0.5
8.589,2.63,0.8,0.96,-0.47,0.16,-0.5
8.599,2.63,0.8,0.96,-0.4,0.1,-0.96
8.6,2.63,0.8,0.96,-0.4,0.1,-0.96
8.6,2.59,0.97,0.87,-0.4,0.1,-0.96
8.6,2.59,0.97,0.87,-0.4,0.1,-0.96
8.606,2.59,0.97,0.87,-0.31,0.05,-1.34
8.607,2.59,0.97,0.87,-0.31,0.05,-1.34
8.607,2.42,1.03,0.7,-0.31,0.05,-1.34
8.608,2.42,1.03,0.7,-0.31,0.05,-1.34
8.616,2.42,1.03,0.7,-0.22,0,-1.62
8.617,2.42,1.03,0.7,-0.22,0,-1.62
8.618,2.09,0.97,0.47,-0.22,0,-1.62
8.619,2.09,0.97,0.47,-0.22,0,-1.62
8.625,2.09,0.97,0.47,-0.15,-0.05,-1.76
8.626,2.09,0.97,0.47,-0.15,-0.05,-1.76
8.626,1.73,0.82,0.16,-0.15,-0.05,-1.76
8.627,1.73,0.82,0.16,-0.15,-0.05,-1.76
8.635,1.73,0.82,0.16,-0.14,-0.1,-1.76
8.636,1.73,0.82,0.16,-0.14,-0.1,-1.76
8.637,1.41,0.71,-0.29,-0.14,-0.1,-1.76
8.637,1.41,0.71,-0.29,-0.14,-0.1,-1.76
8.644,1.41,0.71,-0.29,-0.2,-0.12,-1.61
8.645,1.41,0.71,-0.29,-0.2,-0.12,-1.61
8.646,1.25,0.66,-0.86,-0.2,-0.12,-1.61
8.646,1.25,0.66,-0.86,-0.2,-0.12,-1.61
8.654,1.25,0.66,-0.86,-0.35,-0.12,-1.37
8.655,1.25,0.66,-0.86,-0.35,-0.12,-1.37
8.656,1.29,0.66,-2.59,-0.35,-0.12,-1.37
8.656,1.29,0.66,-2.59,-0.35,-0.12,-1.37
8.663,1.29,0.66,-2.59,-0.62,-0.14,-1.09
8.665,1.29,0.66,-2.59,-0.62,-0.14,-1.09
8.665,1.5,0.7,-2.96,-0.62,-0.14,-1.09
8.666,1.5,0.7,-2.96,-0.62,-0.14,-1.09
8.673,1.5,0.7,-2.96,-1.07,-0.19,-0.83
8.673,1.5,0.7,-2.96,-1.07,-0.19,-0.83
8.674,1.88,0.72,-3.56,-1.07,-0.19,-0.83
8.674,1.88,0.72,-3.56,-1.07,-0.19,-0.83
8.683,1.88,0.72,-3.56,-1.66,-0.27,-0.67
8.685,1.88,0.72,-3.56,-1.66,-0.27,-0.67
8.686,2.36,0.69,-5.34,-1.66,-0.27,-0.67
8.687,2.36,0.69,-5.34,-1.66,-0.27,-0.67
8.692,2.36,0.69,-5.34,-2.31,-0.41,-0.65
8.692,2.36,0.69,-5.34,-2.31,-0.41,-0.65
8.692,2.85,0.69,-5.69,-2.31,-0.41,-0.65
8.693,2.85,0.69,-5.69,-2.31,-0.41,-0.65
8.702,2.85,0.69,-5.69,-2.97,-0.59,-0.78
8.702,2.85,0.69,-5.69,-2.97,-0.59,-0.78
8.703,3.16,0.72,-6.2,-2.97,-0.59,-0.78
8.703,3.16,0.72,-6.2,-2.97,-0.59,-0.78
8.711,3.16,0.72,-6.2,-3.59,-0.8,-1.04
8.712,3.16,0.72,-6.2,-3.59,-0.8,-1.04
8.712,2.98,0.77,-6.42,-3.59,-0.8,-1.04
8.712,2.98,0.77,-6.42,-3.59,-0.8,-1.04
8.721,2.98,0.77,-6.42,-4.08,-1,-1.35
8.721,2.98,0.77,-6.42,-4.08,-1,-1.35
8.722,1,0.88,-5.98,-4.08,-1,-1.35
8.723,1,0.88,-5.98,-4.08,-1,-1.35
8.73,1,0.88,-5.98,-4.34,-1.13,-1.55
8.731,1,0.88,-5.98,-4.34,-1.13,-1.55
8.732,0.45,1.1,-3.78,-4.34,-1.13,-1.55
8.732,0.45,1.1,-3.78,-4.34,-1.13,-1.55
8.74,0.45,1.1,-3.78,-4.3,-1.14,-1.45
8.741,0.45,1.1,-3.78,-4.3,-1.14,-1.45
8.741,-1.22,1.45,-1.53,-4.3,-1.14,-1.45
8.742,-1.22,1.45,-1.53,-4.3,-1.14,-1.45
8.751,-1.22,1.45,-1.53,-3.89,-0.95,-0.95
8.752,-1.22,1.45,-1.53,-3.89,-0.95,-0.95
8.752,-1.48,1.91,0.64,-3.89,-0.95,-0.95
8.753,-1.48,1.91,0.64,-3.89,-0.95,-0.95
8.76,-1.48,1.91,0.64,-3.89,-0.95,-0.95
8.76,-1.48,1.91,0.64,-3.89,-0.95,-0.95
8.761,-1.48,1.91,0.64,-3.89,-0.95,-0.95
8.761,-1.48,1.91,0.64,-3.89,-0.95,-0.95
8.768,-1.48,1.91,0.64,-3.27,-0.78,-0.09
8.769,-1.48,1.91,0.64,-3.27,-0.78,-0.09
8.769,-1.42,2.76,2.6,-3.27,-0.78,-0.09
8.77,-1.42,2.76,2.6,-3.27,-0.78,-0.09
8.777,-1.42,2.76,2.6,-2.14,-0.38,0.91
8.778,-1.42,2.76,2.6,-2.14,-0.38,0.91
8.779,-1.31,2.87,3.03,-2.14,-0.38,0.91
8.779,-1.31,2.87,3.03,-2.14,-0.38,0.91
8.788,-1.31,2.87,3.03,-0.36,0.3,1.79
8.788,-1.31,2.87,3.03,-0.36,0.3,1.79
8.789,-1.28,2.74,3.15,-0.36,0.3,1.79
8.79,-1.28,2.74,3.15,-0.36,0.3,1.79
8.797,-1.28,2.74,3.15,1.53,0.82,2.38
8.799,-1.28,2.74,3.15,1.53,0.82,2.38
8.8,-1.45,2.53,2.97,1.53,0.82,2.38
8.8,-1.45,2.53,2.97,1.53,0.82,2.38
8.806,-1.45,2.53,2.97,3.22,1.07,2.65
8.807,-1.45,2.53,2.97,3.22,1.07,2.65
8.807,-1.74,2.38,2.62,3.22,1.07,2.65
8.808,-1.74,2.38,2.62,3.22,1.07,2.65
8.815,-1.74,2.38,2.62,4.43,1.1,2.7
8.819,-1.74,2.38,2.62,4.43,1.1,2.7
8.819,-2.01,2.35,2.27,4.43,1.1,2.7
8.82,-2.01,2.35,2.27,4.43,1.1,2.7
8.825,-2.01,2.35,2.27,5.07,1.01,2.32
8.825,-2.01,2.35,2.27,5.07,1.01,2.32
8.826,-2.09,2.37,2,5.07,1.01,2.32
8.826,-2.09,2.37,2,5.07,1.01,2.32
8.838,-2.09,2.37,2,5.2,0.88,1.6
8.839,-2.09,2.37,2,5.2,0.88,1.6
8.839,-1.88,2.33,1.71,5.2,0.88,1.6
8.839,-1.88,2.33,1.71,5.2,0.88,1.6
8.846,-1.88,2.33,1.71,4.96,0.74,1.29
8.847,-1.88,2.33,1.71,4.96,0.74,1.29
8.847,-1.47,2.08,1.4,4.96,0.74,1.29
8.848,-1.47,2.08,1.4,4.96,0.74,1.29
8.854,-1.47,2.08,1.4,4.48,0.63,1.32
8.854,-1.47,2.08,1.4,4.48,0.63,1.32
8.855,-1.02,1.61,1.04,4.48,0.63,1.32
8.855,-1.02,1.61,1.04,4.48,0.63,1.32
8.864,-1.02,1.61,1.04,3.86,0.52,1.18
8.865,-0.66,1.04,0.67,3.86,0.52,1.18
8.865,-0.66,1.04,0.67,3.86,0.52,1.18
8.865,-0.66,1.04,0.67,3.86,0.52,1.18
8.874,-0.66,1.04,0.67,3.15,0.43,0.86
8.874,-0.66,1.04,0.67,3.15,0.43,0.86
8.875,-0.48,0.46,0.49,3.15,0.43,0.86
8.876,-0.48,0.46,0.49,3.15,0.43,0.86
8.883,-0.48,0.46,0.49,2.39,0.36,0.41
8.884,-0.48,0.46,0.49,2.39,0.36,0.41
8.885,-0.45,-0.04,0.56,2.39,0.36,0.41
8.885,-0.45,-0.04,0.56,2.39,0.36,0.41
8.892,-0.45,-0.04,0.56,1.66,0.3,-0.09
8.893,-0.45,-0.04,0.56,1.66,0.3,-0.09
8.893,-0.54,-0.39,0.72,1.66,0.3,-0.09
8.893,-0.54,-0.39,0.72,1.66,0.3,-0.09
8.908,-0.54,-0.39,0.72,1.02,0.26,-0.51
8.908,-0.54,-0.39,0.72,1.02,0.26,-0.51
8.909,-0.62,-0.56,0.76,1.02,0.26,-0.51
8.909,-0.62,-0.56,0.76,1.02,0.26,-0.51
8.91,-0.62,-0.56,0.76,0.55,0.25,-0.81
8.911,-0.62,-0.56,0.76,0.55,0.25,-0.81
8.911,-0.6,-0.56,0.44,0.55,0.25,-0.81
8.911,-0.6,-0.56,0.44,0.55,0.25,-0.81
8.92,-0.6,-0.56,0.44,0.22,0.22,-0.96
8.921,-0.6,-0.56,0.44,0.22,0.22,-0.96
8.921,-0.38,-0.4,-0.21,0.22,0.22,-0.96
8.922,-0.38,-0.4,-0.21,0.22,0.22,-0.96
8.93,-0.38,-0.4,-0.21,-0.03,0.24,-1.02
8.931,-0.38,-0.4,-0.21,-0.03,0.24,-1.02
8.931,0.07,-0.18,-1.62,-0.03,0.24,-1.02
8.931,0.07,-0.18,-1.62,-0.03,0.24,-1.02
8.94,0.07,-0.18,-1.62,-0.31,0.32,-1.04
8.941,0.07,-0.18,-1.62,-0.31,0.32,-1.04
8.941,0.68,-0.05,-1.65,-0.31,0.32,-1.04
8.942,0.68,-0.05,-1.65,-0.31,0.32,-1.04
8.95,0.68,-0.05,-1.65,-0.7,0.4,-1.09
8.951,0.68,-0.05,-1.65,-0.7,0.4,-1.09
8.952,2.18,-0.21,-1.49,-0.7,0.4,-1.09
8.952,2.18,-0.21,-1.49,-0.7,0.4,-1.09
8.96,2.18,-0.21,-1.49,-1.16,0.44,-1.17
8.961,2.18,-0.21,-1.49,-1.16,0.44,-1.17
8.961,2.49,-0.75,-1.32,-1.16,0.44,-1.17
8.962,2.49,-0.75,-1.32,-1.16,0.44,-1.17
8.969,2.49,-0.75,-1.32,-1.16,0.44,-1.17
8.97,2.49,-0.75,-1.32,-1.16,0.44,-1.17
8.971,2.49,-0.75,-1.32,-1.16,0.44,-1.17
8.972,2.49,-0.75,-1.32,-1.16,0.44,-1.17
8.978,2.49,-0.75,-1.32,-1.31,0.43,-1.42
8.979,2.49,-0.75,-1.32,-1.31,0.43,-1.42
8.979,3.11,-3.04,-1.86,-1.31,0.43,-1.42
8.98,3.11,-3.04,-1.86,-1.31,0.43,-1.42
8.987,3.11,-3.04,-1.86,-1.21,0.38,-1.87
8.988,3.11,-3.04,-1.86,-1.21,0.38,-1.87
8.988,3.15,-3.52,-3.47,-1.21,0.38,-1.87
8.989,3.15,-3.52,-3.47,-1.21,0.38,-1.87
8.999,3.15,-3.52,-3.47,-1.19,0.31,-2.29
9,3.15,-3.52,-3.47,-1.19,0.31,-2.29
9.001,2.87,-3.73,-4.01,-1.19,0.31,-2.29
9.001,2.87,-3.73,-4.01,-1.19,0.31,-2.29
9.023,2.87,-3.73,-4.01,-1.19,0.25,-2.54
9.024,2.87,-3.73,-4.01,-1.19,0.25,-2.54
9.025,2.29,-3.64,-4.62,-1.19,0.25,-2.54
9.025,2.29,-3.64,-4.62,-1.19,0.25,-2.54
9.025,2.29,-3.64,-4.62,-1.84,0.11,-2.24
9.026,2.29,-3.64,-4.62,-1.84,0.11,-2.24
9.026,0.62,-3.38,-5.11,-1.84,0.11,-2.24
9.026,0.62,-3.38,-5.11,-1.84,0.11,-2.24
9.027,0.62,-3.38,-5.11,-1.84,0.11,-2.24
9.027,0.62,-3.38,-5.11,-1.84,0.11,-2.24
9.027,0.62,-3.38,-5.11,-1.84,0.11,-2.24
9.028,0.62,-3.38,-5.11,-1.84,0.11,-2.24
9.035,0.62,-3.38,-5.11,-2.69,-0.14,-1.05
9.036,0.62,-3.38,-5.11,-2.69,-0.14,-1.05
9.036,-1.55,-2.89,-5.45,-2.69,-0.14,-1.05
9.037,-1.55,-2.89,-5.45,-2.69,-0.14,-1.05
9.044,-1.55,-2.89,-5.45,-2.69,-0.14,-1.05
9.045,-1.55,-2.89,-5.45,-2.69,-0.14,-1.05
9.045,-1.55,-2.89,-5.45,-2.69,-0.14,-1.05
9.046,-1.55,-2.89,-5.45,-2.69,-0.14,-1.05
9.054,-1.55,-2.89,-5.45,-3.04,-0.26,0.75
9.055,-1.55,-2.89,-5.45,-3.04,-0.26,0.75
9.055,-2.03,-3.09,-5.07,-3.04,-0.26,0.75
9.056,-2.03,-3.09,-5.07,-3.04,-0.26,0.75
9.063,-2.03,-3.09,-5.07,-2.94,-0.25,1.46
9.065,-2.03,-3.09,-5.07,-2.94,-0.25,1.46
9.066,-2.2,-3.61,-4.66,-2.94,-0.25,1.46
9.067,-2.2,-3.61,-4.66,-2.94,-0.25,1.46
9.073,-2.2,-3.61,-4.66,-2.65,-0.21,1.88
9.074,-2.2,-3.61,-4.66,-2.65,-0.21,1.88
9.074,-2.18,-5.16,-4.07,-2.65,-0.21,1.88
9.075,-2.18,-5.16,-4.07,-2.65,-0.21,1.88
9.083,-2.18,-5.16,-4.07,-2.27,-0.17,2.14
9.083,-2.18,-5.16,-4.07,-2.27,-0.17,2.14
9.084,-1.96,-5.35,-2.47,-2.27,-0.17,2.14
9.085,-1.96,-5.35,-2.47,-2.27,-0.17,2.14
9.091,-1.96,-5.35,-2.47,-1.84,-0.16,2.23
9.092,-1.96,-5.35,-2.47,-1.84,-0.16,2.23
9.093,-1.56,-5.26,-0.74,-1.84,-0.16,2.23
9.093,-1.56,-5.26,-0.74,-1.84,-0.16,2.23
9.101,-1.56,-5.26,-0.74,-1.26,-0.2,2.17
9.103,-1.56,-5.26,-0.74,-1.26,-0.2,2.17
9.103,-1.12,-4.74,-0.41,-1.26,-0.2,2.17
9.104,-1.12,-4.74,-0.41,-1.26,-0.2,2.17
9.121,-1.12,-4.74,-0.41,-0.48,-0.28,1.97
9.121,-1.12,-4.74,-0.41,-0.48,-0.28,1.97
9.122,-0.71,-2.84,-0.01,-0.48,-0.28,1.97
9.122,-0.71,-2.84,-0.01,-0.48,-0.28,1.97
9.122,-0.71,-2.84,-0.01,0.29,-0.38,1.69
9.123,-0.71,-2.84,-0.01,0.29,-0.38,1.69
9.123,-0.41,-2.23,0.22,0.29,-0.38,1.69
9.123,-0.41,-2.23,0.22,0.29,-0.38,1.69
9.129,-0.41,-2.23,0.22,0.93,-0.48,1.35
9.13,-0.41,-2.23,0.22,0.93,-0.48,1.35
9.13,-0.32,-0.8,0.18,0.93,-0.48,1.35
9.131,-0.32,-0.8,0.18,0.93,-0.48,1.35
9.14,-0.32,-0.8,0.18,1.38,-0.54,1.02
9.141,-0.32,-0.8,0.18,1.38,-0.54,1.02
9.141,-0.48,-0.6,-0.03,1.38,-0.54,1.02
9.142,-0.48,-0.6,-0.03,1.38,-0.54,1.02
9.15,-0.48,-0.6,-0.03,1.64,-0.57,0.73
9.151,-0.48,-0.6,-0.03,1.64,-0.57,0.73
9.151,-0.82,-0.46,-0.34,1.64,-0.57,0.73
9.152,-0.82,-0.46,-0.34,1.64,-0.57,0.73
9.158,-0.82,-0.46,-0.34,1.64,-0.57,0.73
9.159,-0.82,-0.46,-0.34,1.64,-0.57,0.73
9.16,-0.82,-0.46,-0.34,1.64,-0.57,0.73
9.16,-0.82,-0.46,-0.34,1.64,-0.57,0.73
9.168,-0.82,-0.46,-0.34,1.75,-0.56,0.52
9.169,-0.82,-0.46,-0.34,1.75,-0.56,0.52
9.169,-1.62,-0.3,-1.27,1.75,-0.56,0.52
9.17,-1.62,-0.3,-1.27,1.75,-0.56,0.52
9.181,-1.62,-0.3,-1.27,1.7,-0.51,0.42
9.182,-1.62,-0.3,-1.27,1.7,-0.51,0.42
9.183,-1.78,-0.24,-1.65,1.7,-0.51,0.42
9.183,-1.78,-0.24,-1.65,1.7,-0.51,0.42
9.187,-1.78,-0.24,-1.65,1.48,-0.42,0.45
9.188,-1.78,-0.24,-1.65,1.48,-0.42,0.45
9.188,-1.63,-0.11,-1.85,1.48,-0.42,0.45
9.189,-1.63,-0.11,-1.85,1.48,-0.42,0.45
9.2,-1.63,-0.11,-1.85,1.11,-0.32,0.59
9.201,-1.63,-0.11,-1.85,1.11,-0.32,0.59
9.201,-1.15,0.01,-1.89,1.11,-0.32,0.59
9.201,-1.15,0.01,-1.89,1.11,-0.32,0.59
9.206,-1.15,0.01,-1.89,0.67,-0.21,0.73
9.206,-1.15,0.01,-1.89,0.67,-0.21,0.73
9.207,-0.51,0.13,-1.79,0.67,-0.21,0.73
9.207,-0.51,0.13,-1.79,0.67,-0.21,0.73
9.216,-0.51,0.13,-1.79,0.25,-0.08,0.79
9.217,-0.51,0.13,-1.79,0.25,-0.08,0.79
9.218,0.14,0.33,-1.66,0.25,-0.08,0.79
9.219,0.14,0.33,-1.66,0.25,-0.08,0.79
9.225,0.14,0.33,-1.66,-0.09,0.05,0.69
9.226,0.14,0.33,-1.66,-0.09,0.05,0.69
9.226,0.66,0.54,-1.63,-0.09,0.05,0.69
9.227,0.66,0.54,-1.63,-0.09,0.05,0.69
9.234,0.66,0.54,-1.63,-0.34,0.17,0.44
9.236,0.66,0.54,-1.63,-0.34,0.17,0.44
9.236,0.94,0.82,-1.67,-0.34,0.17,0.44
9.237,0.94,0.82,-1.67,-0.34,0.17,0.44
9.243,0.94,0.82,-1.67,-0.51,0.27,0.07
9.245,0.94,0.82,-1.67,-0.51,0.27,0.07
9.245,1.01,1.14,-1.73,-0.51,0.27,0.07
9.245,1.01,1.14,-1.73,-0.51,0.27,0.07
9.253,1.01,1.14,-1.73,-0.64,0.34,-0.33
9.254,1.01,1.14,-1.73,-0.64,0.34,-0.33
9.255,0.95,1.41,-1.72,-0.64,0.34,-0.33
9.255,0.95,1.41,-1.72,-0.64,0.34,-0.33
9.263,0.95,1.41,-1.72,-0.76,0.36,-0.69
9.264,0.95,1.41,-1.72,-0.76,0.36,-0.69
9.265,0.78,1.63,-1.56,-0.76,0.36,-0.69
9.265,0.78,1.63,-1.56,-0.76,0.36,-0.69
9.272,0.78,1.63,-1.56,-0.86,0.33,-0.94
9.273,0.78,1.63,-1.56,-0.86,0.33,-0.94
9.274,0.55,1.76,-1.24,-0.86,0.33,-0.94
9.275,0.55,1.76,-1.24,-0.86,0.33,-0.94
9.283,0.55,1.76,-1.24,-0.93,0.26,-1.08
9.284,0.55,1.76,-1.24,-0.93,0.26,-1.08
9.285,0.31,1.85,-0.89,-0.93,0.26,-1.08
9.286,0.31,1.85,-0.89,-0.93,0.26,-1.08
9.291,0.31,1.85,-0.89,-0.93,0.16,-1.09
9.292,0.31,1.85,-0.89,-0.93,0.16,-1.09
9.292,0.06,1.95,-0.59,-0.93,0.16,-1.09
9.293,0.06,1.95,-0.59,-0.93,0.16,-1.09
9.301,0.06,1.95,-0.59,-0.85,0.05,-0.99
9.302,0.06,1.95,-0.59,-0.85,0.05,-0.99
9.303,-0.15,2.07,-0.28,-0.85,0.05,-0.99
9.303,-0.15,2.07,-0.28,-0.85,0.05,-0.99
9.332,-0.15,2.07,-0.28,-0.69,-0.1,-0.8
9.333,-0.15,2.07,-0.28,-0.69,-0.1,-0.8
9.333,-0.34,2.24,-0.02,-0.69,-0.1,-0.8
9.334,-0.34,2.24,-0.02,-0.69,-0.1,-0.8
9.334,-0.34,2.24,-0.02,-0.48,-0.26,-0.56
9.334,-0.34,2.24,-0.02,-0.48,-0.26,-0.56
9.335,-0.51,2.44,0.23,-0.48,-0.26,-0.56
9.335,-0.51,2.44,0.23,-0.48,-0.26,-0.56
9.335,-0.51,2.44,0.23,-0.24,-0.44,-0.29
9.335,-0.51,2.44,0.23,-0.24,-0.44,-0.29
9.336,-0.63,2.68,0.51,-0.24,-0.44,-0.29
9.336,-0.63,2.68,0.51,-0.24,-0.44,-0.29
9.339,-0.63,2.68,0.51,0,-0.62,-0.01
9.34,-0.63,2.68,0.51,0,-0.62,-0.01
9.34,-0.74,2.94,0.7,0,-0.62,-0.01
9.341,-0.74,2.94,0.7,0,-0.62,-0.01
9.349,-0.74,2.94,0.7,0.23,-0.78,0.25
9.35,-0.74,2.94,0.7,0.23,-0.78,0.25
9.35,-0.83,3.14,0.83,0.23,-0.78,0.25
9.35,-0.83,3.14,0.83,0.23,-0.78,0.25
9.358,-0.83,3.14,0.83,0.23,-0.78,0.25
9.359,-0.83,3.14,0.83,0.23,-0.78,0.25
9.359,-0.83,3.14,0.83,0.23,-0.78,0.25
9.36,-0.83,3.14,0.83,0.23,-0.78,0.25
9.367,-0.83,3.14,0.83,0.43,-0.92,0.49
9.368,-0.83,3.14,0.83,0.43,-0.92,0.49
9.368,-0.98,3.29,0.87,0.43,-0.92,0.49
9.369,-0.98,3.29,0.87,0.43,-0.92,0.49
9.379,-0.98,3.29,0.87,0.44,-0.93,0.71
9.38,-0.98,3.29,0.87,0.44,-0.93,0.71
9.38,-1.06,3.26,0.82,0.44,-0.93,0.71
9.38,-1.06,3.26,0.82,0.44,-0.93,0.71
9.386,-1.06,3.26,0.82,0.28,-0.84,0.91
9.387,-1.06,3.26,0.82,0.28,-0.84,0.91
9.387,-1.13,3.23,0.7,0.28,-0.84,0.91
9.388,-1.13,3.23,0.7,0.28,-0.84,0.91
9.403,-1.13,3.23,0.7,0.17,-0.77,1.09
9.404,-1.13,3.23,0.7,0.17,-0.77,1.09
9.404,-1.2,3.22,0.54,0.17,-0.77,1.09
9.404,-1.2,3.22,0.54,0.17,-0.77,1.09
9.405,-1.2,3.22,0.54,0.14,-0.77,1.24
9.406,-1.2,3.22,0.54,0.14,-0.77,1.24
9.406,-1.22,3.2,0.41,0.14,-0.77,1.24
9.406,-1.22,3.2,0.41,0.14,-0.77,1.24
9.415,-1.22,3.2,0.41,0.15,-0.81,1.35
9.416,-1.22,3.2,0.41,0.15,-0.81,1.35
9.417,-1.12,3.19,0.3,0.15,-0.81,1.35
9.417,-1.12,3.19,0.3,0.15,-0.81,1.35
9.427,-1.12,3.19,0.3,0.08,-0.79,1.4
9.428,-1.12,3.19,0.3,0.08,-0.79,1.4
9.428,-0.86,3.16,0.26,0.08,-0.79,1.4
9.429,-0.86,3.16,0.26,0.08,-0.79,1.4
9.435,-0.86,3.16,0.26,-0.03,-0.72,1.4
9.435,-0.86,3.16,0.26,-0.03,-0.72,1.4
9.436,-0.48,3.12,0.29,-0.03,-0.72,1.4
9.437,-0.48,3.12,0.29,-0.03,-0.72,1.4
9.444,-0.48,3.12,0.29,-0.15,-0.61,1.3
9.445,-0.48,3.12,0.29,-0.15,-0.61,1.3
9.445,0,3.04,0.35,-0.15,-0.61,1.3
9.445,0,3.04,0.35,-0.15,-0.61,1.3
9.454,0,3.04,0.35,-0.24,-0.48,1.08
9.454,0,3.04,0.35,-0.24,-0.48,1.08
9.455,0.53,2.86,0.41,-0.24,-0.48,1.08
9.456,0.53,2.86,0.41,-0.24,-0.48,1.08
9.463,0.53,2.86,0.41,-0.3,-0.35,0.73
9.465,0.53,2.86,0.41,-0.3,-0.35,0.73
9.465,1.03,2.52,0.39,-0.3,-0.35,0.73
9.466,1.03,2.52,0.39,-0.3,-0.35,0.73
9.472,1.03,2.52,0.39,-0.31,-0.22,0.25
9.473,1.03,2.52,0.39,-0.31,-0.22,0.25
9.474,1.53,2.02,0.22,-0.31,-0.22,0.25
9.474,1.53,2.02,0.22,-0.31,-0.22,0.25
9.481,1.53,2.02,0.22,-0.3,-0.08,-0.33
9.482,1.53,2.02,0.22,-0.3,-0.08,-0.33
9.483,2.01,1.41,-0.17,-0.3,-0.08,-0.33
9.484,2.01,1.41,-0.17,-0.3,-0.08,-0.33
9.491,2.01,1.41,-0.17,-0.3,-0.01,-0.96
9.492,2.01,1.41,-0.17,-0.3,-0.01,-0.96
9.493,2.42,0.76,-0.69,-0.3,-0.01,-0.96
9.493,2.42,0.76,-0.69,-0.3,-0.01,-0.96
9.501,2.42,0.76,-0.69,-0.36,0.07,-1.58
9.503,2.42,0.76,-0.69,-0.36,0.07,-1.58
9.505,2.72,0.26,-1.15,-0.36,0.07,-1.58
9.506,2.72,0.26,-1.15,-0.36,0.07,-1.58
9.511,2.72,0.26,-1.15,-0.51,0.22,-2.11
9.511,2.72,0.26,-1.15,-0.51,0.22,-2.11
9.512,2.82,-0.02,-1.42,-0.51,0.22,-2.11
9.512,2.82,-0.02,-1.42,-0.51,0.22,-2.11
9.523,2.82,-0.02,-1.42,-0.75,0.32,-2.52
9.524,2.82,-0.02,-1.42,-0.75,0.32,-2.52
9.524,2.68,-0.04,-1.45,-0.75,0.32,-2.52
9.524,2.68,-0.04,-1.45,-0.75,0.32,-2.52
9.531,2.68,-0.04,-1.45,-0.67,0.32,-2.74
9.532,2.68,-0.04,-1.45,-0.67,0.32,-2.74
9.532,2.32,0.24,-1.42,-0.67,0.32,-2.74
9.533,2.32,0.24,-1.42,-0.67,0.32,-2.74
9.539,2.32,0.24,-1.42,-0.28,0.26,-2.76
9.54,2.32,0.24,-1.42,-0.28,0.26,-2.76
9.541,1.86,0.7,-1.54,-0.28,0.26,-2.76
9.541,1.86,0.7,-1.54,-0.28,0.26,-2.76
9.548,1.86,0.7,-1.54,-0.28,0.26,-2.76
9.549,1.86,0.7,-1.54,-0.28,0.26,-2.76
9.55,1.86,0.7,-1.54,-0.28,0.26,-2.76
9.55,1.86,0.7,-1.54,-0.28,0.26,-2.76
9.558,1.86,0.7,-1.54,-0.23,0.21,-2.36
9.558,1.86,0.7,-1.54,-0.23,0.21,-2.36
9.559,1.06,1.84,-2.48,-0.23,0.21,-2.36
9.559,1.06,1.84,-2.48,-0.23,0.21,-2.36
9.568,1.06,1.84,-2.48,-0.49,0.11,-1.85
9.568,1.06,1.84,-2.48,-0.49,0.11,-1.85
9.569,0.78,2.31,-2.94,-0.49,0.11,-1.85
9.569,0.78,2.31,-2.94,-0.49,0.11,-1.85
9.581,0.78,2.31,-2.94,-0.8,0.07,-1.5
9.582,0.78,2.31,-2.94,-0.8,0.07,-1.5
9.582,0.56,2.59,-3.08,-0.8,0.07,-1.5
9.583,0.56,2.59,-3.08,-0.8,0.07,-1.5
9.586,0.56,2.59,-3.08,-1.21,0.16,-1.06
9.587,0.56,2.59,-3.08,-1.21,0.16,-1.06
9.587,0.33,2.61,-2.78,-1.21,0.16,-1.06
9.588,0.33,2.61,-2.78,-1.21,0.16,-1.06
9.604,0.33,2.61,-2.78,-1.65,0.02,-0.62
9.604,0.33,2.61,-2.78,-1.65,0.02,-0.62
9.605,0.09,2.36,-1.08,-1.65,0.02,-0.62
9.605,0.09,2.36,-1.08,-1.65,0.02,-0.62
9.605,0.09,2.36,-1.08,-1.93,-0.3,-0.21
9.605,0.09,2.36,-1.08,-1.93,-0.3,-0.21
9.606,-0.07,1.93,-0.83,-1.93,-0.3,-0.21
9.606,-0.07,1.93,-0.83,-1.93,-0.3,-0.21
9.616,-0.07,1.93,-0.83,-1.89,-0.45,0.17
9.617,-0.07,1.93,-0.83,-1.89,-0.45,0.17
9.617,-0.17,1.48,-0.54,-1.89,-0.45,0.17
9.617,-0.17,1.48,-0.54,-1.89,-0.45,0.17
9.624,-0.17,1.48,-0.54,-1.49,-0.51,0.52
9.625,-0.17,1.48,-0.54,-1.49,-0.51,0.52
9.626,-0.2,1.22,-0.45,-1.49,-0.51,0.52
9.626,-0.2,1.22,-0.45,-1.49,-0.51,0.52
9.634,-0.2,1.22,-0.45,-0.88,-0.57,0.82
9.635,-0.2,1.22,-0.45,-0.88,-0.57,0.82
9.636,-0.19,1.26,-0.58,-0.88,-0.57,0.82
9.636,-0.19,1.26,-0.58,-0.88,-0.57,0.82
9.644,-0.19,1.26,-0.58,-0.27,-0.59,1.04
9.644,-0.19,1.26,-0.58,-0.27,-0.59,1.04
9.645,-0.16,1.54,-0.86,-0.27,-0.59,1.04
9.645,-0.16,1.54,-0.86,-0.27,-0.59,1.04
9.653,-0.16,1.54,-0.86,0.19,-0.58,1.17
9.653,-0.16,1.54,-0.86,0.19,-0.58,1.17
9.654,-0.09,1.97,-1.06,0.19,-0.58,1.17
9.654,-0.09,1.97,-1.06,0.19,-0.58,1.17
9.662,-0.09,1.97,-1.06,0.45,-0.58,1.2
9.663,-0.09,1.97,-1.06,0.45,-0.58,1.2
9.664,0.03,2.34,-1.04,0.45,-0.58,1.2
9.664,0.03,2.34,-1.04,0.45,-0.58,1.2
9.672,0.03,2.34,-1.04,0.5,-0.6,1.16
9.673,0.03,2.34,-1.04,0.5,-0.6,1.16
9.673,0.18,2.45,-0.77,0.5,-0.6,1.16
9.674,0.18,2.45,-0.77,0.5,-0.6,1.16
9.682,0.18,2.45,-0.77,0.41,-0.64,1.05
9.683,0.18,2.45,-0.77,0.41,-0.64,1.05
9.684,0.33,2.03,-0.31,0.41,-0.64,1.05
9.685,0.33,2.03,-0.31,0.41,-0.64,1.05
9.69,0.33,2.03,-0.31,0.31,-0.66,0.9
9.691,0.33,2.03,-0.31,0.31,-0.66,0.9
9.692,0.34,-1.45,0.16,0.31,-0.66,0.9
9.692,0.34,-1.45,0.16,0.31,-0.66,0.9
9.7,0.34,-1.45,0.16,0.33,-0.67,0.7
9.701,0.34,-1.45,0.16,0.33,-0.67,0.7
9.702,0.11,-4.62,0.63,0.33,-0.67,0.7
9.703,0.11,-4.62,0.63,0.33,-0.67,0.7
9.738,0.11,-4.62,0.63,0.6,-0.66,0.47
9.739,0.11,-4.62,0.63,0.6,-0.66,0.47
9.739,-0.38,-6.29,1.07,0.6,-0.66,0.47
9.739,-0.38,-6.29,1.07,0.6,-0.66,0.47
9.739,-0.38,-6.29,1.07,1.12,-0.61,0.26
9.74,-0.38,-6.29,1.07,1.12,-0.61,0.26
9.74,-1,-6.8,1.44,1.12,-0.61,0.26
9.74,-1,-6.8,1.44,1.12,-0.61,0.26
9.74,-1,-6.8,1.44,1.69,-0.54,0.15
9.741,-1,-6.8,1.44,1.69,-0.54,0.15
9.741,-1.5,-6.52,1.79,1.69,-0.54,0.15
9.741,-1.5,-6.52,1.79,1.69,-0.54,0.15
9.742,-1.5,-6.52,1.79,2.13,-0.44,0.18
9.742,-1.5,-6.52,1.79,2.13,-0.44,0.18
9.742,-1.73,-2.99,2.12,2.13,-0.44,0.18
9.742,-1.73,-2.99,2.12,2.13,-0.44,0.18
9.749,-1.73,-2.99,2.12,2.13,-0.44,0.18
9.752,-1.73,-2.99,2.12,2.13,-0.44,0.18
9.752,-1.73,-2.99,2.12,2.13,-0.44,0.18
9.753,-1.73,-2.99,2.12,2.13,-0.44,0.18
9.757,-1.73,-2.99,2.12,2.37,-0.32,0.33
9.758,-1.73,-2.99,2.12,2.37,-0.32,0.33
9.758,-1.68,-0.81,2.73,2.37,-0.32,0.33
9.759,-1.68,-0.81,2.73,2.37,-0.32,0.33
9.766,-1.68,-0.81,2.73,2.46,-0.27,0.53
9.767,-1.68,-0.81,2.73,2.46,-0.27,0.53
9.767,-1.85,-0.94,4.44,2.46,-0.27,0.53
9.768,-1.85,-0.94,4.44,2.46,-0.27,0.53
9.776,-1.85,-0.94,4.44,2.51,-0.26,0.75
9.777,-1.85,-0.94,4.44,2.51,-0.26,0.75
9.777,-2.35,-4.28,4.81,2.51,-0.26,0.75
9.777,-2.35,-4.28,4.81,2.51,-0.26,0.75
9.786,-2.35,-4.28,4.81,2.66,-0.19,0.96
9.787,-2.35,-4.28,4.81,2.66,-0.19,0.96
9.787,-3.89,-7.79,5.27,2.66,-0.19,0.96
9.787,-3.89,-7.79,5.27,2.66,-0.19,0.96
9.797,-3.89,-7.79,5.27,2.91,-0.06,1.13
9.798,-3.89,-7.79,5.27,2.91,-0.06,1.13
9.798,-4.27,-9.52,5.4,2.91,-0.06,1.13
9.798,-4.27,-9.52,5.4,2.91,-0.06,1.13
9.805,-4.27,-9.52,5.4,3.15,0.13,1.26
9.806,-4.27,-9.52,5.4,3.15,0.13,1.26
9.806,-4.39,-9.98,4.95,3.15,0.13,1.26
9.807,-4.39,-9.98,4.95,3.15,0.13,1.26
9.823,-4.39,-9.98,4.95,3.22,0.12,1.35
9.824,-4.39,-9.98,4.95,3.22,0.12,1.35
9.824,-2.7,-8.53,0.99,3.22,0.12,1.35
9.825,-2.7,-8.53,0.99,3.22,0.12,1.35
9.825,-2.7,-8.53,0.99,2.99,0.13,1.35
9.825,-2.7,-8.53,0.99,2.99,0.13,1.35
9.825,-0.44,-5.28,-0.7,2.99,0.13,1.35
9.826,-0.44,-5.28,-0.7,2.99,0.13,1.35
9.834,-0.44,-5.28,-0.7,2.43,0.33,1.18
9.834,-0.44,-5.28,-0.7,2.43,0.33,1.18
9.835,1.47,-2.07,-2.13,2.43,0.33,1.18
9.835,1.47,-2.07,-2.13,2.43,0.33,1.18
9.843,1.47,-2.07,-2.13,1.57,0.35,0.82
9.844,1.47,-2.07,-2.13,1.57,0.35,0.82
9.844,2.01,0.03,-1.91,1.57,0.35,0.82
9.844,2.01,0.03,-1.91,1.57,0.35,0.82
9.853,2.01,0.03,-1.91,0.54,0.32,0.3
9.854,2.01,0.03,-1.91,0.54,0.32,0.3
9.854,3.69,0.46,1.71,0.54,0.32,0.3
9.855,3.69,0.46,1.71,0.54,0.32,0.3
9.862,3.69,0.46,1.71,-0.4,0.34,-0.34
9.863,3.69,0.46,1.71,-0.4,0.34,-0.34
9.864,4.03,1.05,4.87,-0.4,0.34,-0.34
9.864,4.03,1.05,4.87,-0.4,0.34,-0.34
9.872,4.03,1.05,4.87,-0.9,0.26,-1.06
9.873,4.03,1.05,4.87,-0.9,0.26,-1.06
9.874,4.4,1.57,6.98,-0.9,0.26,-1.06
9.874,4.4,1.57,6.98,-0.9,0.26,-1.06
9.881,4.4,1.57,6.98,-0.7,0.14,-1.82
9.883,4.4,1.57,6.98,-0.7,0.14,-1.82
9.884,4.56,1.87,7.35,-0.7,0.14,-1.82
9.884,4.56,1.87,7.35,-0.7,0.14,-1.82
9.89,4.56,1.87,7.35,0.21,0.05,-2.56
9.891,4.56,1.87,7.35,0.21,0.05,-2.56
9.892,4.3,1.82,7.75,0.21,0.05,-2.56
9.892,4.3,1.82,7.75,0.21,0.05,-2.56
9.9,4.3,1.82,7.75,1.5,0.04,-3.17
9.901,4.3,1.82,7.75,1.5,0.04,-3.17
9.901,2.58,1.44,7.87,1.5,0.04,-3.17
9.902,2.58,1.44,7.87,1.5,0.04,-3.17
9.921,2.58,1.44,7.87,2.76,0.07,-3.55
9.922,2.58,1.44,7.87,2.76,0.07,-3.55
9.922,2.24,-0.23,7.54,2.76,0.07,-3.55
9.922,2.24,-0.23,7.54,2.76,0.07,-3.55
9.922,2.24,-0.23,7.54,3.71,0.14,-3.56
9.923,2.24,-0.23,7.54,3.71,0.14,-3.56
9.923,1.64,-0.44,5.86,3.71,0.14,-3.56
9.923,1.64,-0.44,5.86,3.71,0.14,-3.56
9.929,1.64,-0.44,5.86,4.19,0.2,-3.18
9.93,1.64,-0.44,5.86,4.19,0.2,-3.18
9.93,0.13,-0.7,3.96,4.19,0.2,-3.18
9.931,0.13,-0.7,3.96,4.19,0.2,-3.18
9.938,0.13,-0.7,3.96,4.19,0.2,-3.18
9.939,0.13,-0.7,3.96,4.19,0.2,-3.18
9.94,0.13,-0.7,3.96,4.19,0.2,-3.18
9.94,0.13,-0.7,3.96,4.19,0.2,-3.18
9.948,0.13,-0.7,3.96,4.12,0.25,-2.49
9.949,0.13,-0.7,3.96,4.12,0.25,-2.49
9.949,-0.92,-0.84,1.89,4.12,0.25,-2.49
9.95,-0.92,-0.84,1.89,4.12,0.25,-2.49
9.957,-0.92,-0.84,1.89,3.47,0.3,-1.63
9.958,-0.92,-0.84,1.89,3.47,0.3,-1.63
9.959,-1.53,-0.69,1.57,3.47,0.3,-1.63
9.959,-1.53,-0.69,1.57,3.47,0.3,-1.63
9.967,-1.53,-0.69,1.57,2.39,0.36,-0.67
9.969,-1.53,-0.69,1.57,2.39,0.36,-0.67
9.969,-1.99,-0.46,1.57,2.39,0.36,-0.67
9.97,-1.99,-0.46,1.57,2.39,0.36,-0.67
9.976,-1.99,-0.46,1.57,1.16,0.46,0.31
9.977,-1.99,-0.46,1.57,1.16,0.46,0.31
9.977,-2.14,-0.19,1.76,1.16,0.46,0.31
9.978,-2.14,-0.19,1.76,1.16,0.46,0.31
9.985,-2.14,-0.19,1.76,0.08,0.6,1.17
9.986,-2.14,-0.19,1.76,0.08,0.6,1.17
9.987,-1.96,0.06,1.78,0.08,0.6,1.17
9.987,-1.96,0.06,1.78,0.08,0.6,1.17
9.995,-1.96,0.06,1.78,-0.67,0.72,1.84
9.996,-1.96,0.06,1.78,-0.67,0.72,1.84
9.996,-1.57,0.3,1.48,-0.67,0.72,1.84
9.997,-1.57,0.3,1.48,-0.67,0.72,1.84
10.005,-1.57,0.3,1.48,-1.1,0.81,2.27
10.005,-1.57,0.3,1.48,-1.1,0.81,2.27
10.006,-1.03,0.41,0.93,-1.1,0.81,2.27
10.007,-1.03,0.41,0.93,-1.1,0.81,2.27
10.028,-1.03,0.41,0.93,-1.33,0.84,2.45
10.029,-1.03,0.41,0.93,-1.33,0.84,2.45
10.029,-1.03,0.41,0.93,-1.33,0.84,2.45
10.03,-1.03,0.41,0.93,-1.33,0.84,2.45
10.03,-0.43,0.35,0.35,-1.33,0.84,2.45
10.03,-0.43,0.35,0.35,-1.33,0.84,2.45
10.031,-0.43,0.35,0.35,-1.33,0.84,2.45
10.031,-0.43,0.35,0.35,-1.33,0.84,2.45
10.033,-0.43,0.35,0.35,-1.65,0.76,2.11
10.034,-0.43,0.35,0.35,-1.65,0.76,2.11
10.034,0.81,-0.01,0.1,-1.65,0.76,2.11
10.035,0.81,-0.01,0.1,-1.65,0.76,2.11
10.043,0.81,-0.01,0.1,-1.82,0.64,1.62
10.044,0.81,-0.01,0.1,-1.82,0.64,1.62
10.044,2.32,-0.16,0.39,-1.82,0.64,1.62
10.045,2.32,-0.16,0.39,-1.82,0.64,1.62
10.053,2.32,-0.16,0.39,-1.94,0.46,0.98
10.053,2.32,-0.16,0.39,-1.94,0.46,0.98
10.054,2.66,-0.18,0.74,-1.94,0.46,0.98
10.054,2.66,-0.18,0.74,-1.94,0.46,0.98
10.062,2.66,-0.18,0.74,-1.94,0.23,0.24
10.063,2.66,-0.18,0.74,-1.94,0.23,0.24
10.063,3.07,-0.13,0.95,-1.94,0.23,0.24
10.064,3.07,-0.13,0.95,-1.94,0.23,0.24
10.072,3.07,-0.13,0.95,-1.77,-0.02,-0.52
10.072,3.07,-0.13,0.95,-1.77,-0.02,-0.52
10.073,3.43,0.02,0.87,-1.77,-0.02,-0.52
10.073,3.43,0.02,0.87,-1.77,-0.02,-0.52
10.081,3.43,0.02,0.87,-1.48,-0.25,-1.23
10.082,3.43,0.02,0.87,-1.48,-0.25,-1.23
10.083,3.75,0.24,0.48,-1.48,-0.25,-1.23
10.083,3.75,0.24,0.48,-1.48,-0.25,-1.23
10.091,3.75,0.24,0.48,-1.15,-0.44,-1.82
10.092,3.75,0.24,0.48,-1.15,-0.44,-1.82
10.093,4,0.5,-1.21,-1.15,-0.44,-1.82
10.093,4,0.5,-1.21,-1.15,-0.44,-1.82
10.101,4,0.5,-1.21,-0.92,-0.58,-2.28
10.102,4,0.5,-1.21,-0.92,-0.58,-2.28
10.103,4.13,0.74,-1.66,-0.92,-0.58,-2.28
10.103,4.13,0.74,-1.66,-0.92,-0.58,-2.28
10.129,4.13,0.74,-1.66,-0.92,-0.71,-2.63
10.129,4.13,0.74,-1.66,-0.92,-0.71,-2.63
10.13,3.98,0.91,-2.32,-0.92,-0.71,-2.63
10.13,3.98,0.91,-2.32,-0.92,-0.71,-2.63
10.13,3.98,0.91,-2.32,-1.15,-0.84,-2.88
10.131,3.98,0.91,-2.32,-1.15,-0.84,-2.88
10.131,3.47,1.09,-2.95,-1.15,-0.84,-2.88
10.131,3.47,1.09,-2.95,-1.15,-0.84,-2.88
10.131,3.47,1.09,-2.95,-1.15,-0.84,-2.88
10.132,3.47,1.09,-2.95,-1.15,-0.84,-2.88
10.132,3.47,1.09,-2.95,-1.15,-0.84,-2.88
10.132,3.47,1.09,-2.95,-1.15,-0.84,-2.88
10.138,3.47,1.09,-2.95,-1.54,-0.97,-2.99
10.138,3.47,1.09,-2.95,-1.54,-0.97,-2.99
10.139,1.22,1.63,-3.36,-1.54,-0.97,-2.99
10.139,1.22,1.63,-3.36,-1.54,-0.97,-2.99
10.148,1.22,1.63,-3.36,-1.95,-1.07,-2.9
10.149,1.22,1.63,-3.36,-1.95,-1.07,-2.9
10.15,0.8,2.03,-3.04,-1.95,-1.07,-2.9
10.15,0.8,2.03,-3.04,-1.95,-1.07,-2.9
10.157,0.8,2.03,-3.04,-2.31,-1.12,-2.5
10.157,0.8,2.03,-3.04,-2.31,-1.12,-2.5
10.158,0.56,2.37,-1.33,-2.31,-1.12,-2.5
10.158,0.56,2.37,-1.33,-2.31,-1.12,-2.5
10.167,0.56,2.37,-1.33,-2.54,-1.08,-1.82
10.168,0.56,2.37,-1.33,-2.54,-1.08,-1.82
10.168,0.54,2.55,-1.01,-2.54,-1.08,-1.82
10.169,0.54,2.55,-1.01,-2.54,-1.08,-1.82
10.176,0.54,2.55,-1.01,-2.5,-0.91,-1.03
10.176,0.54,2.55,-1.01,-2.5,-0.91,-1.03
10.177,0.57,2.55,-0.46,-2.5,-0.91,-1.03
10.177,0.57,2.55,-0.46,-2.5,-0.91,-1.03
10.186,0.57,2.55,-0.46,-2.15,-0.62,-0.32
10.187,0.57,2.55,-0.46,-2.15,-0.62,-0.32
10.187,0.49,2.4,0.07,-2.15,-0.62,-0.32
10.187,0.49,2.4,0.07,-2.15,-0.62,-0.32
10.195,0.49,2.4,0.07,-1.56,-0.24,0.22
10.196,0.49,2.4,0.07,-1.56,-0.24,0.22
10.196,0.19,2.19,0.45,-1.56,-0.24,0.22
10.196,0.19,2.19,0.45,-1.56,-0.24,0.22
10.205,0.19,2.19,0.45,-0.85,-0.02,0.29
10.206,0.19,2.19,0.45,-0.85,-0.02,0.29
10.207,-0.28,2,0.63,-0.85,-0.02,0.29
10.207,-0.28,2,0.63,-0.85,-0.02,0.29
10.215,-0.28,2,0.63,-0.12,0.03,0
10.216,-0.28,2,0.63,-0.12,0.03,0
10.217,-0.78,1.91,0.64,-0.12,0.03,0
10.217,-0.78,1.91,0.64,-0.12,0.03,0
10.225,-0.78,1.91,0.64,0.56,0.26,0.13
10.226,-0.78,1.91,0.64,0.56,0.26,0.13
10.227,-1.15,1.94,0.55,0.56,0.26,0.13
10.228,-1.15,1.94,0.55,0.56,0.26,0.13
10.237,-1.15,1.94,0.55,1.11,0.61,0.63
10.238,-1.15,1.94,0.55,1.11,0.61,0.63
10.239,-1.33,1.99,0.43,1.11,0.61,0.63
10.239,-1.33,1.99,0.43,1.11,0.61,0.63
10.245,-1.33,1.99,0.43,1.47,0.86,1.11
10.246,-1.33,1.99,0.43,1.47,0.86,1.11
10.247,-1.26,1.99,0.35,1.47,0.86,1.11
10.247,-1.26,1.99,0.35,1.47,0.86,1.11
10.252,-1.26,1.99,0.35,1.64,1.03,1.51
10.253,-1.26,1.99,0.35,1.64,1.03,1.51
10.255,-1.05,1.87,0.27,1.64,1.03,1.51
10.255,-1.05,1.87,0.27,1.64,1.03,1.51
10.262,-1.05,1.87,0.27,1.67,1.12,1.77
10.263,-1.05,1.87,0.27,1.67,1.12,1.77
10.263,-0.77,1.72,0.25,1.67,1.12,1.77
10.264,-0.77,1.72,0.25,1.67,1.12,1.77
10.271,-0.77,1.72,0.25,1.59,1.13,1.86
10.272,-0.77,1.72,0.25,1.59,1.13,1.86
10.273,-0.53,1.57,0.37,1.59,1.13,1.86
10.273,-0.53,1.57,0.37,1.59,1.13,1.86
10.281,-0.53,1.57,0.37,1.46,1.09,1.76
10.282,-0.53,1.57,0.37,1.46,1.09,1.76
10.283,-0.38,1.49,0.65,1.46,1.09,1.76
10.284,-0.38,1.49,0.65,1.46,1.09,1.76
10.29,-0.38,1.49,0.65,1.32,1,1.52
10.291,-0.38,1.49,0.65,1.32,1,1.52
10.291,-0.3,1.51,1,1.32,1,1.52
10.292,-0.3,1.51,1,1.32,1,1.52
10.299,-0.3,1.51,1,1.23,0.88,1.18
10.3,-0.3,1.51,1,1.23,0.88,1.18
10.301,-0.23,1.57,1.24,1.23,0.88,1.18
10.301,-0.23,1.57,1.24,1.23,0.88,1.18
10.325,-0.23,1.57,1.24,1.21,0.74,0.83
10.325,-0.23,1.57,1.24,1.21,0.74,0.83
10.326,-0.07,1.58,1.16,1.21,0.74,0.83
10.326,-0.07,1.58,1.16,1.21,0.74,0.83
10.326,-0.07,1.58,1.16,1.26,0.6,0.49
10.327,-0.07,1.58,1.16,1.26,0.6,0.49
10.327,0.17,1.45,0.79,1.26,0.6,0.49
10.327,0.17,1.45,0.79,1.26,0.6,0.49
10.328,0.17,1.45,0.79,1.26,0.6,0.49
10.329,0.17,1.45,0.79,1.26,0.6,0.49
10.329,0.17,1.45,0.79,1.26,0.6,0.49
10.329,0.17,1.45,0.79,1.26,0.6,0.49
10.338,0.17,1.45,0.79,1.29,0.48,0.17
10.339,0.17,1.45,0.79,1.29,0.48,0.17
10.339,0.73,0.84,0.04,1.29,0.48,0.17
10.339,0.73,0.84,0.04,1.29,0.48,0.17
10.347,0.73,0.84,0.04,1.22,0.37,-0.15
10.349,0.73,0.84,0.04,1.22,0.37,-0.15
10.349,0.82,0.51,-0.09,1.22,0.37,-0.15
10.349,0.82,0.51,-0.09,1.22,0.37,-0.15
10.357,0.82,0.51,-0.09,0.99,0.27,-0.5
10.358,0.82,0.51,-0.09,0.99,0.27,-0.5
10.358,0.84,0.28,-0.06,0.99,0.27,-0.5
10.359,0.84,0.28,-0.06,0.99,0.27,-0.5
10.366,0.84,0.28,-0.06,0.63,0.16,-0.85
10.367,0.84,0.28,-0.06,0.63,0.16,-0.85
10.368,0.87,0.14,0.01,0.63,0.16,-0.85
10.368,0.87,0.14,0.01,0.63,0.16,-0.85
10.376,0.87,0.14,0.01,0.27,0.06,-1.15
10.376,0.87,0.14,0.01,0.27,0.06,-1.15
10.377,0.97,0.06,0.08,0.27,0.06,-1.15
10.377,0.97,0.06,0.08,0.27,0.06,-1.15
10.385,0.97,0.06,0.08,-0.01,-0.03,-1.33
10.386,0.97,0.06,0.08,-0.01,-0.03,-1.33
10.386,1.19,0.06,0.12,-0.01,-0.03,-1.33
10.387,1.19,0.06,0.12,-0.01,-0.03,-1.33
10.397,1.19,0.06,0.12,-0.17,-0.11,-1.43
10.397,1.19,0.06,0.12,-0.17,-0.11,-1.43
10.398,1.49,0.03,0.04,-0.17,-0.11,-1.43
10.398,1.49,0.03,0.04,-0.17,-0.11,-1.43
10.404,1.49,0.03,0.04,-0.25,-0.19,-1.48
10.405,1.49,0.03,0.04,-0.25,-0.19,-1.48
10.405,1.88,-0.17,-0.23,-0.25,-0.19,-1.48
10.406,1.88,-0.17,-0.23,-0.25,-0.19,-1.48
10.42,1.88,-0.17,-0.23,-0.29,-0.27,-1.52
10.421,1.88,-0.17,-0.23,-0.29,-0.27,-1.52
10.422,2.35,-0.63,-0.75,-0.29,-0.27,-1.52
10.423,2.35,-0.63,-0.75,-0.29,-0.27,-1.52
10.423,2.35,-0.63,-0.75,-0.35,-0.34,-1.6
10.424,2.35,-0.63,-0.75,-0.35,-0.34,-1.6
10.424,2.91,-2.29,-2.39,-0.35,-0.34,-1.6
10.424,2.91,-2.29,-2.39,-0.35,-0.34,-1.6
10.433,2.91,-2.29,-2.39,-0.5,-0.42,-1.69
10.434,2.91,-2.29,-2.39,-0.5,-0.42,-1.69
10.435,3.4,-2.5,-4.17,-0.5,-0.42,-1.69
10.435,3.4,-2.5,-4.17,-0.5,-0.42,-1.69
10.443,3.4,-2.5,-4.17,-0.85,-0.53,-1.8
10.444,3.4,-2.5,-4.17,-0.85,-0.53,-1.8
10.444,3.63,-2.77,-4.59,-0.85,-0.53,-1.8
10.445,3.63,-2.77,-4.59,-0.85,-0.53,-1.8
10.452,3.63,-2.77,-4.59,-1.42,-0.68,-1.89
10.453,3.63,-2.77,-4.59,-1.42,-0.68,-1.89
10.453,3.48,-3.05,-6.33,-1.42,-0.68,-1.89
10.454,3.48,-3.05,-6.33,-1.42,-0.68,-1.89
10.461,3.48,-3.05,-6.33,-2.1,-0.86,-1.93
10.462,3.48,-3.05,-6.33,-2.1,-0.86,-1.93
10.463,1.74,-3.44,-6.49,-2.1,-0.86,-1.93
10.463,1.74,-3.44,-6.49,-2.1,-0.86,-1.93
10.471,1.74,-3.44,-6.49,-2.74,-1.03,-1.85
10.472,1.74,-3.44,-6.49,-2.74,-1.03,-1.85
10.472,0.12,-4.01,-6.56,-2.74,-1.03,-1.85
10.473,0.12,-4.01,-6.56,-2.74,-1.03,-1.85
10.48,0.12,-4.01,-6.56,-3.22,-1.16,-1.54
10.48,0.12,-4.01,-6.56,-3.22,-1.16,-1.54
10.481,-0.41,-4.66,-6.34,-3.22,-1.16,-1.54
10.481,-0.41,-4.66,-6.34,-3.22,-1.16,-1.54
10.489,-0.41,-4.66,-6.34,-3.49,-1.22,-0.95
10.49,-0.41,-4.66,-6.34,-3.49,-1.22,-0.95
10.491,-2.22,-5.25,-5.8,-3.49,-1.22,-0.95
10.491,-2.22,-5.25,-5.8,-3.49,-1.22,-0.95
10.499,-2.22,-5.25,-5.8,-3.49,-1.19,-0.16
10.5,-2.22,-5.25,-5.8,-3.49,-1.19,-0.16
10.501,-2.69,-5.61,-4.21,-3.49,-1.19,-0.16
10.501,-2.69,-5.61,-4.21,-3.49,-1.19,-0.16
10.522,-2.69,-5.61,-4.21,-3.22,-1.06,0.71
10.523,-2.69,-5.61,-4.21,-3.22,-1.06,0.71
10.523,-3.06,-5.68,-3.78,-3.22,-1.06,0.71
10.524,-3.06,-5.68,-3.78,-3.22,-1.06,0.71
10.524,-3.06,-5.68,-3.78,-3.22,-1.06,0.71
10.524,-3.06,-5.68,-3.78,-3.22,-1.06,0.71
10.525,-3.06,-5.68,-3.78,-3.22,-1.06,0.71
10.525,-3.06,-5.68,-3.78,-3.22,-1.06,0.71
10.53,-3.06,-5.68,-3.78,-2.71,-0.87,1.51
10.531,-3.06,-5.68,-3.78,-2.71,-0.87,1.51
10.531,-2.96,-5.19,-2.6,-2.71,-0.87,1.51
10.531,-2.96,-5.19,-2.6,-2.71,-0.87,1.51
10.537,-2.96,-5.19,-2.6,-2.03,-0.65,2.16
10.538,-2.96,-5.19,-2.6,-2.03,-0.65,2.16
10.538,-2.55,-4.87,-2,-2.03,-0.65,2.16
10.538,-2.55,-4.87,-2,-2.03,-0.65,2.16
10.547,-2.55,-4.87,-2,-1.28,-0.47,2.55
10.549,-2.55,-4.87,-2,-1.28,-0.47,2.55
10.549,-1.99,-4.6,-1.39,-1.28,-0.47,2.55
10.55,-1.99,-4.6,-1.39,-1.28,-0.47,2.55
10.557,-1.99,-4.6,-1.39,-0.56,-0.35,2.68
10.558,-1.99,-4.6,-1.39,-0.56,-0.35,2.68
10.558,-1.4,-4.36,-0.88,-0.56,-0.35,2.68
10.559,-1.4,-4.36,-0.88,-0.56,-0.35,2.68
10.566,-1.4,-4.36,-0.88,0.08,-0.3,2.58
10.567,-1.4,-4.36,-0.88,0.08,-0.3,2.58
10.568,-0.86,-4.09,-0.63,0.08,-0.3,2.58
10.569,-0.86,-4.09,-0.63,0.08,-0.3,2.58
10.576,-0.86,-4.09,-0.63,0.62,-0.29,2.29
10.577,-0.86,-4.09,-0.63,0.62,-0.29,2.29
10.578,-0.45,-3.71,-0.59,0.62,-0.29,2.29
10.578,-0.45,-3.71,-0.59,0.62,-0.29,2.29
10.585,-0.45,-3.71,-0.59,1.03,-0.31,1.88
10.586,-0.45,-3.71,-0.59,1.03,-0.31,1.88
10.586,-0.29,-3.12,-0.71,1.03,-0.31,1.88
10.587,-0.29,-3.12,-0.71,1.03,-0.31,1.88
10.595,-0.29,-3.12,-0.71,1.32,-0.34,1.42
10.596,-0.29,-3.12,-0.71,1.32,-0.34,1.42
10.597,-0.34,-1.49,-0.84,1.32,-0.34,1.42
10.598,-0.34,-1.49,-0.84,1.32,-0.34,1.42
10.604,-0.34,-1.49,-0.84,1.46,-0.36,0.98
10.605,-0.34,-1.49,-0.84,1.46,-0.36,0.98
10.605,-0.62,-0.94,-0.85,1.46,-0.36,0.98
10.606,-0.62,-0.94,-0.85,1.46,-0.36,0.98
10.614,-0.62,-0.94,-0.85,1.47,-0.35,0.62
10.615,-0.62,-0.94,-0.85,1.47,-0.35,0.62
10.616,-1.06,0.65,-0.81,1.47,-0.35,0.62
10.616,-1.06,0.65,-0.81,1.47,-0.35,0.62
10.624,-1.06,0.65,-0.81,1.39,-0.32,0.39
10.625,-1.06,0.65,-0.81,1.39,-0.32,0.39
10.625,-1.52,1,-0.75,1.39,-0.32,0.39
10.625,-1.52,1,-0.75,1.39,-0.32,0.39
10.641,-1.52,1,-0.75,1.24,-0.26,0.3
10.642,-1.52,1,-0.75,1.24,-0.26,0.3
10.643,-1.92,1.37,-0.72,1.24,-0.26,0.3
10.643,-1.92,1.37,-0.72,1.24,-0.26,0.3
10.643,-1.92,1.37,-0.72,1.08,-0.2,0.36
10.643,-1.92,1.37,-0.72,1.08,-0.2,0.36
10.644,-2.12,1.76,-0.65,1.08,-0.2,0.36
10.644,-2.12,1.76,-0.65,1.08,-0.2,0.36
10.652,-2.12,1.76,-0.65,0.92,-0.16,0.53
10.652,-2.12,1.76,-0.65,0.92,-0.16,0.53
10.653,-2.09,2.14,-0.48,0.92,-0.16,0.53
10.653,-2.09,2.14,-0.48,0.92,-0.16,0.53
10.661,-2.09,2.14,-0.48,0.79,-0.15,0.77
10.662,-2.09,2.14,-0.48,0.79,-0.15,0.77
10.662,-1.92,2.58,-0.29,0.79,-0.15,0.77
10.663,-1.92,2.58,-0.29,0.79,-0.15,0.77
10.671,-1.92,2.58,-0.29,0.68,-0.15,1
10.672,-1.92,2.58,-0.29,0.68,-0.15,1
10.672,-1.71,3.09,-0.09,0.68,-0.15,1
10.673,-1.71,3.09,-0.09,0.68,-0.15,1
10.68,-1.71,3.09,-0.09,0.61,-0.16,1.18
10.681,-1.71,3.09,-0.09,0.61,-0.16,1.18
10.681,-1.56,3.64,0.15,0.61,-0.16,1.18
10.682,-1.56,3.64,0.15,0.61,-0.16,1.18
10.69,-1.56,3.64,0.15,0.58,-0.19,1.27
10.691,-1.56,3.64,0.15,0.58,-0.19,1.27
10.692,-1.49,4.22,0.43,0.58,-0.19,1.27
10.692,-1.49,4.22,0.43,0.58,-0.19,1.27
10.704,-1.49,4.22,0.43,0.6,-0.24,1.29
10.705,-1.49,4.22,0.43,0.6,-0.24,1.29
10.705,-1.54,4.71,0.76,0.6,-0.24,1.29
10.706,-1.54,4.71,0.76,0.6,-0.24,1.29
10.728,-1.54,4.71,0.76,0.68,-0.31,1.27
10.729,-1.54,4.71,0.76,0.68,-0.31,1.27
10.729,-1.65,5.05,1.07,0.68,-0.31,1.27
10.729,-1.65,5.05,1.07,0.68,-0.31,1.27
10.729,-1.65,5.05,1.07,0.68,-0.31,1.27
10.73,-1.65,5.05,1.07,0.68,-0.31,1.27
10.73,-1.65,5.05,1.07,0.68,-0.31,1.27
10.73,-1.65,5.05,1.07,0.68,-0.31,1.27
10.73,-1.65,5.05,1.07,0.81,-0.37,1.28
10.731,-1.65,5.05,1.07,0.81,-0.37,1.28
10.731,-1.97,5,1.18,0.81,-0.37,1.28
10.731,-1.97,5,1.18,0.81,-0.37,1.28
10.737,-1.97,5,1.18,1,-0.4,1.33
10.738,-1.97,5,1.18,1,-0.4,1.33
10.738,-2.05,4.74,1.02,1,-0.4,1.33
10.738,-2.05,4.74,1.02,1,-0.4,1.33
10.748,-2.05,4.74,1.02,0.82,-0.35,1.47
10.749,-2.05,4.74,1.02,0.82,-0.35,1.47
10.75,-2.08,4.42,0.8,0.82,-0.35,1.47
10.751,-2.08,4.42,0.8,0.82,-0.35,1.47
10.756,-2.08,4.42,0.8,0.34,-0.18,1.65
10.757,-2.08,4.42,0.8,0.34,-0.18,1.65
10.758,-2.05,4.12,0.6,0.34,-0.18,1.65
10.759,-2.05,4.12,0.6,0.34,-0.18,1.65
10.765,-2.05,4.12,0.6,0.22,-0.13,1.81
10.766,-2.05,4.12,0.6,0.22,-0.13,1.81
10.767,-1.92,3.85,0.46,0.22,-0.13,1.81
10.767,-1.92,3.85,0.46,0.22,-0.13,1.81
10.775,-1.92,3.85,0.46,0.3,-0.2,1.87
10.775,-1.92,3.85,0.46,0.3,-0.2,1.87
10.776,-1.66,3.56,0.35,0.3,-0.2,1.87
10.776,-1.66,3.56,0.35,0.3,-0.2,1.87
10.784,-1.66,3.56,0.35,0.23,-0.22,1.8
10.785,-1.66,3.56,0.35,0.23,-0.22,1.8
10.785,-1.26,3.19,0.27,0.23,-0.22,1.8
10.786,-1.26,3.19,0.27,0.23,-0.22,1.8
10.794,-1.26,3.19,0.27,0.07,-0.2,1.59
10.795,-1.26,3.19,0.27,0.07,-0.2,1.59
10.795,-0.73,2.68,0.13,0.07,-0.2,1.59
10.796,-0.73,2.68,0.13,0.07,-0.2,1.59
10.804,-0.73,2.68,0.13,-0.13,-0.18,1.23
10.805,-0.73,2.68,0.13,-0.13,-0.18,1.23
10.805,1.28,0.85,-0.25,-0.13,-0.18,1.23
10.806,1.28,0.85,-0.25,-0.13,-0.18,1.23
10.813,1.28,0.85,-0.25,-0.3,-0.16,0.63
10.814,1.28,0.85,-0.25,-0.3,-0.16,0.63
10.815,2.92,0.53,-0.86,-0.3,-0.16,0.63
10.815,2.92,0.53,-0.86,-0.3,-0.16,0.63
10.823,2.92,0.53,-0.86,-0.43,-0.18,-0.35
10.824,2.92,0.53,-0.86,-0.43,-0.18,-0.35
10.825,3.42,0.14,-2.35,-0.43,-0.18,-0.35
10.825,3.42,0.14,-2.35,-0.43,-0.18,-0.35
10.84,3.42,0.14,-2.35,-0.74,-0.2,-1.66
10.841,3.42,0.14,-2.35,-0.74,-0.2,-1.66
10.841,4.98,-0.07,-2.48,-0.74,-0.2,-1.66
10.842,4.98,-0.07,-2.48,-0.74,-0.2,-1.66
10.842,4.98,-0.07,-2.48,-1.29,-0.22,-3.06
10.843,4.98,-0.07,-2.48,-1.29,-0.22,-3.06
10.843,5.14,0.01,-2.35,-1.29,-0.22,-3.06
10.843,5.14,0.01,-2.35,-1.29,-0.22,-3.06
10.851,5.14,0.01,-2.35,-1.85,-0.26,-4.25
10.852,5.14,0.01,-2.35,-1.85,-0.26,-4.25
10.852,4.98,0.31,-1.89,-1.85,-0.26,-4.25
10.853,4.98,0.31,-1.89,-1.85,-0.26,-4.25
10.861,4.98,0.31,-1.89,-2.23,-0.33,-5.07
10.862,4.98,0.31,-1.89,-2.23,-0.33,-5.07
10.862,4.47,0.57,-1.26,-2.23,-0.33,-5.07
10.862,4.47,0.57,-1.26,-2.23,-0.33,-5.07
10.87,4.47,0.57,-1.26,-2,-0.38,-5.45
10.871,4.47,0.57,-1.26,-2,-0.38,-5.45
10.872,2.82,0.74,-0.75,-2,-0.38,-5.45
10.872,2.82,0.74,-0.75,-2,-0.38,-5.45
10.88,2.82,0.74,-0.75,-1.54,-0.43,-5.37
10.881,2.82,0.74,-0.75,-1.54,-0.43,-5.37
10.881,1.19,0.77,-0.52,-1.54,-0.43,-5.37
10.882,1.19,0.77,-0.52,-1.54,-0.43,-5.37
10.889,1.19,0.77,-0.52,-1.26,-0.49,-4.81
10.89,1.19,0.77,-0.52,-1.26,-0.49,-4.81
10.891,0.78,0.72,-0.75,-1.26,-0.49,-4.81
10.891,0.78,0.72,-0.75,-1.26,-0.49,-4.81
10.9,0.78,0.72,-0.75,-0.9,-0.51,-3.82
10.901,0.78,0.72,-0.75,-0.9,-0.51,-3.82
10.902,-0.86,0.69,-2.87,-0.9,-0.51,-3.82
10.902,-0.86,0.69,-2.87,-0.9,-0.51,-3.82
10.931,-0.86,0.69,-2.87,-0.9,-0.51,-3.82
10.932,-0.86,0.69,-2.87,-0.9,-0.51,-3.82
10.932,-0.86,0.69,-2.87,-0.9,-0.51,-3.82
10.933,-0.86,0.69,-2.87,-0.9,-0.51,-3.82
10.933,-0.86,0.69,-2.87,-0.66,-0.54,-2.53
10.933,-0.86,0.69,-2.87,-0.66,-0.54,-2.53
10.933,-1.85,0.89,-5.02,-0.66,-0.54,-2.53
10.934,-1.85,0.89,-5.02,-0.66,-0.54,-2.53
10.934,-1.85,0.89,-5.02,-0.75,-0.63,-1.12
10.934,-1.85,0.89,-5.02,-0.75,-0.63,-1.12
10.934,-2.02,1.14,-5.13,-0.75,-0.63,-1.12
10.935,-2.02,1.14,-5.13,-0.75,-0.63,-1.12
10.938,-2.02,1.14,-5.13,-1.27,-0.76,0.29
10.939,-2.02,1.14,-5.13,-1.27,-0.76,0.29
10.939,-1.82,1.36,-4.78,-1.27,-0.76,0.29
10.94,-1.82,1.36,-4.78,-1.27,-0.76,0.29
10.947,-1.82,1.36,-4.78,-2.04,-0.88,1.52
10.948,-1.82,1.36,-4.78,-2.04,-0.88,1.52
10.949,-1.3,1.48,-3.01,-2.04,-0.88,1.52
10.949,-1.3,1.48,-3.01,-2.04,-0.88,1.52
10.956,-1.3,1.48,-3.01,-2.18,-0.93,2.42
10.957,-1.3,1.48,-3.01,-2.18,-0.93,2.42
10.958,-0.6,1.45,-1.27,-2.18,-0.93,2.42
10.958,-0.6,1.45,-1.27,-2.18,-0.93,2.42
10.965,-0.6,1.45,-1.27,-1.71,-0.9,2.92
10.966,-0.6,1.45,-1.27,-1.71,-0.9,2.92
10.967,0.1,1.29,0.48,-1.71,-0.9,2.92
10.967,0.1,1.29,0.48,-1.71,-0.9,2.92
10.975,0.1,1.29,0.48,-1.24,-0.8,3.04
10.976,0.1,1.29,0.48,-1.24,-0.8,3.04
10.976,0.67,1.09,0.72,-1.24,-0.8,3.04
10.976,0.67,1.09,0.72,-1.24,-0.8,3.04
10.985,0.67,1.09,0.72,-0.52,-0.68,2.84
10.986,0.67,1.09,0.72,-0.52,-0.68,2.84
10.986,1.07,0.93,0.97,-0.52,-0.68,2.84
10.987,1.07,0.93,0.97,-0.52,-0.68,2.84
10.994,1.07,0.93,0.97,0.45,-0.55,2.39
10.995,1.07,0.93,0.97,0.45,-0.55,2.39
10.996,1.29,0.91,1.07,0.45,-0.55,2.39
10.996,1.29,0.91,1.07,0.45,-0.55,2.39
11.004,1.29,0.91,1.07,1.38,-0.44,2.04
11.004,1.29,0.91,1.07,1.38,-0.44,2.04
11.005,1.42,1.05,0.98,1.38,-0.44,2.04
11.005,1.42,1.05,0.98,1.38,-0.44,2.04
11.026,1.42,1.05,0.98,2.07,-0.43,1.62
11.027,1.42,1.05,0.98,2.07,-0.43,1.62
11.027,1.51,1.32,0.65,2.07,-0.43,1.62
11.027,1.51,1.32,0.65,2.07,-0.43,1.62
11.028,1.51,1.32,0.65,2.07,-0.43,1.62
11.028,1.51,1.32,0.65,2.07,-0.43,1.62
11.028,1.51,1.32,0.65,2.07,-0.43,1.62
11.029,1.51,1.32,0.65,2.07,-0.43,1.62
11.032,1.51,1.32,0.65,2.54,-0.41,0.5
11.033,1.51,1.32,0.65,2.54,-0.41,0.5
11.033,1.52,1.78,-1.3,2.54,-0.41,0.5
11.034,1.52,1.78,-1.3,2.54,-0.41,0.5
11.044,1.52,1.78,-1.3,2.23,-0.43,0.13
11.045,1.52,1.78,-1.3,2.23,-0.43,0.13
11.045,1.34,1.65,-2.74,2.23,-0.43,0.13
11.046,1.34,1.65,-2.74,2.23,-0.43,0.13
11.052,1.34,1.65,-2.74,1.55,-0.54,-0.15
11.052,1.34,1.65,-2.74,1.55,-0.54,-0.15
11.052,1.03,0.04,-3.03,1.55,-0.54,-0.15
11.053,1.03,0.04,-3.03,1.55,-0.54,-0.15
11.06,1.03,0.04,-3.03,0.66,-0.67,-0.32
11.061,1.03,0.04,-3.03,0.66,-0.67,-0.32
11.061,0.62,-1.99,-3.14,0.66,-0.67,-0.32
11.062,0.62,-1.99,-3.14,0.66,-0.67,-0.32
11.07,0.62,-1.99,-3.14,-0.22,-0.8,-0.41
11.071,0.62,-1.99,-3.14,-0.22,-0.8,-0.41
11.072,0.2,-4.28,-2.89,-0.22,-0.8,-0.41
11.072,0.2,-4.28,-2.89,-0.22,-0.8,-0.41
11.08,0.2,-4.28,-2.89,-0.83,-0.88,-0.4
11.081,0.2,-4.28,-2.89,-0.83,-0.88,-0.4
11.081,-0.17,-5.97,-2.27,-0.83,-0.88,-0.4
11.082,-0.17,-5.97,-2.27,-0.83,-0.88,-0.4
11.098,-0.17,-5.97,-2.27,-1.05,-0.87,-0.3
11.099,-0.17,-5.97,-2.27,-1.05,-0.87,-0.3
11.1,-0.4,-5.98,-0.53,-1.05,-0.87,-0.3
11.1,-0.4,-5.98,-0.53,-1.05,-0.87,-0.3
11.101,-0.4,-5.98,-0.53,-0.87,-0.74,-0.14
11.101,-0.4,-5.98,-0.53,-0.87,-0.74,-0.14
11.102,-0.51,-4.41,0.09,-0.87,-0.74,-0.14
11.102,-0.51,-4.41,0.09,-0.87,-0.74,-0.14
11.119,-0.51,-4.41,0.09,-0.87,-0.74,-0.14
11.12,-0.51,-4.41,0.09,-0.87,-0.74,-0.14
11.12,-0.51,-4.41,0.09,-0.87,-0.74,-0.14
11.121,-0.51,-4.41,0.09,-0.87,-0.74,-0.14
11.121,-0.51,-4.41,0.09,-0.4,-0.53,0.04
11.121,-0.51,-4.41,0.09,-0.4,-0.53,0.04
11.121,-0.47,-0.33,2.05,-0.4,-0.53,0.04
11.122,-0.47,-0.33,2.05,-0.4,-0.53,0.04
11.129,-0.47,-0.33,2.05,0.18,-0.27,0.23
11.129,-0.47,-0.33,2.05,0.18,-0.27,0.23
11.13,-0.52,-0.06,2.49,0.18,-0.27,0.23
11.13,-0.52,-0.06,2.49,0.18,-0.27,0.23
11.137,-0.52,-0.06,2.49,0.8,0,0.41
11.138,-0.52,-0.06,2.49,0.8,0,0.41
11.139,-0.63,0.25,2.78,0.8,0,0.41
11.139,-0.63,0.25,2.78,0.8,0,0.41
11.147,-0.63,0.25,2.78,1.39,0.1,0.59
11.148,-0.63,0.25,2.78,1.39,0.1,0.59
11.148,-0.78,0.45,2.94,1.39,0.1,0.59
11.149,-0.78,0.45,2.94,1.39,0.1,0.59
11.156,-0.78,0.45,2.94,1.94,0.22,0.75
11.157,-0.78,0.45,2.94,1.94,0.22,0.75
11.157,-0.91,0.45,3.06,1.94,0.22,0.75
11.158,-0.91,0.45,3.06,1.94,0.22,0.75
11.166,-0.91,0.45,3.06,2.39,0.17,0.89
11.167,-0.91,0.45,3.06,2.39,0.17,0.89
11.167,-0.93,-1.21,3.18,2.39,0.17,0.89
11.168,-0.93,-1.21,3.18,2.39,0.17,0.89
11.175,-0.93,-1.21,3.18,2.71,0.15,0.97
11.176,-0.93,-1.21,3.18,2.71,0.15,0.97
11.177,-0.78,-4.12,3.24,2.71,0.15,0.97
11.177,-0.78,-4.12,3.24,2.71,0.15,0.97
11.185,-0.78,-4.12,3.24,2.9,0.46,0.99
11.186,-0.78,-4.12,3.24,2.9,0.46,0.99
11.186,-0.31,-7.52,3.08,2.9,0.46,0.99
11.187,-0.31,-7.52,3.08,2.9,0.46,0.99
11.195,-0.31,-7.52,3.08,2.93,0.64,0.85
11.196,-0.31,-7.52,3.08,2.93,0.64,0.85
11.197,2.09,-9.16,0.77,2.93,0.64,0.85
11.197,2.09,-9.16,0.77,2.93,0.64,0.85
11.203,2.09,-9.16,0.77,2.7,0.64,0.51
11.204,2.09,-9.16,0.77,2.7,0.64,0.51
11.204,4.74,-9.49,-1.38,2.7,0.64,0.51
11.205,4.74,-9.49,-1.38,2.7,0.64,0.51
11.223,4.74,-9.49,-1.38,2.36,0.62,-0.1
11.223,4.74,-9.49,-1.38,2.36,0.62,-0.1
11.223,6.73,-7.53,-1.69,2.36,0.62,-0.1
11.224,6.73,-7.53,-1.69,2.36,0.62,-0.1
11.224,6.73,-7.53,-1.69,1.7,0.41,-0.94
11.224,6.73,-7.53,-1.69,1.7,0.41,-0.94
11.224,7.16,-4.37,-1.64,1.7,0.41,-0.94
11.225,7.16,-4.37,-1.64,1.7,0.41,-0.94
11.232,7.16,-4.37,-1.64,0.72,-0.1,-1.9
11.232,7.16,-4.37,-1.64,0.72,-0.1,-1.9
11.232,6.92,-2.65,1.52,0.72,-0.1,-1.9
11.233,6.92,-2.65,1.52,0.72,-0.1,-1.9
11.241,6.92,-2.65,1.52,-0.01,-0.57,-2.78
11.242,6.92,-2.65,1.52,-0.01,-0.57,-2.78
11.242,4.96,-0.68,4.52,-0.01,-0.57,-2.78
11.242,4.96,-0.68,4.52,-0.01,-0.57,-2.78
11.251,4.96,-0.68,4.52,-0.28,-0.84,-3.41
11.252,4.96,-0.68,4.52,-0.28,-0.84,-3.41
11.252,3.22,-0.18,6.39,-0.28,-0.84,-3.41
11.253,3.22,-0.18,6.39,-0.28,-0.84,-3.41
11.261,3.22,-0.18,6.39,0.01,-0.81,-3.68
11.262,3.22,-0.18,6.39,0.01,-0.81,-3.68
11.262,1.43,0.4,6.67,0.01,-0.81,-3.68
11.263,1.43,0.4,6.67,0.01,-0.81,-3.68
11.27,1.43,0.4,6.67,0.77,-0.48,-3.52
11.271,1.43,0.4,6.67,0.77,-0.48,-3.52
11.272,1.03,0.94,7.01,0.77,-0.48,-3.52
11.273,1.03,0.94,7.01,0.77,-0.48,-3.52
11.279,1.03,0.94,7.01,1.75,0.02,-2.96
11.28,1.03,0.94,7.01,1.75,0.02,-2.96
11.28,0.39,1.29,7.29,1.75,0.02,-2.96
11.281,0.39,1.29,7.29,1.75,0.02,-2.96
11.289,0.39,1.29,7.29,2.7,0.51,-2.18
11.29,0.39,1.29,7.29,2.7,0.51,-2.18
11.291,-1.07,1.37,7.42,2.7,0.51,-2.18
11.291,-1.07,1.37,7.42,2.7,0.51,-2.18
11.298,-1.07,1.37,7.42,2.7,0.51,-2.18
11.299,-1.07,1.37,7.42,2.7,0.51,-2.18
11.3,-1.07,1.37,7.42,2.7,0.51,-2.18
11.3,-1.07,1.37,7.42,2.7,0.51,-2.18
11.325,-1.07,1.37,7.42,3.49,0.91,-1.32
11.325,-1.07,1.37,7.42,3.49,0.91,-1.32
11.326,-1.72,0.84,6.67,3.49,0.91,-1.32
11.326,-1.72,0.84,6.67,3.49,0.91,-1.32
11.326,-1.72,0.84,6.67,4.06,1.21,-0.44
11.327,-1.72,0.84,6.67,4.06,1.21,-0.44
11.327,-2,0.47,4.86,4.06,1.21,-0.44
11.327,-2,0.47,4.86,4.06,1.21,-0.44
11.329,-2,0.47,4.86,4.31,1.44,0.46
11.329,-2,0.47,4.86,4.31,1.44,0.46
11.33,-2.17,0.16,4.25,4.31,1.44,0.46
11.33,-2.17,0.16,4.25,4.31,1.44,0.46
11.336,-2.17,0.16,4.25,4.14,1.61,1.28
11.337,-2.17,0.16,4.25,4.14,1.61,1.28
11.337,-2.2,-0.05,3.56,4.14,1.61,1.28
11.338,-2.2,-0.05,3.56,4.14,1.61,1.28
11.346,-2.2,-0.05,3.56,3.57,1.73,1.92
11.348,-2.2,-0.05,3.56,3.57,1.73,1.92
11.348,-2.12,-0.16,2.95,3.57,1.73,1.92
11.348,-2.12,-0.16,2.95,3.57,1.73,1.92
11.356,-2.12,-0.16,2.95,2.78,1.81,2.34
11.357,-2.12,-0.16,2.95,2.78,1.81,2.34
11.357,-1.88,-0.13,2.4,2.78,1.81,2.34
11.358,-1.88,-0.13,2.4,2.78,1.81,2.34
11.365,-1.88,-0.13,2.4,1.94,1.83,2.56
11.366,-1.88,-0.13,2.4,1.94,1.83,2.56
11.367,-1.57,-0.04,1.82,1.94,1.83,2.56
11.367,-1.57,-0.04,1.82,1.94,1.83,2.56
11.375,-1.57,-0.04,1.82,1.14,1.79,2.59
11.375,-1.57,-0.04,1.82,1.14,1.79,2.59
11.376,-1.21,0.06,1.08,1.14,1.79,2.59
11.376,-1.21,0.06,1.08,1.14,1.79,2.59
11.384,-1.21,0.06,1.08,0.41,1.7,2.48
11.385,-1.21,0.06,1.08,0.41,1.7,2.48
11.385,-0.81,0.13,0.33,0.41,1.7,2.48
11.386,-0.81,0.13,0.33,0.41,1.7,2.48
11.393,-0.81,0.13,0.33,-0.25,1.56,2.26
11.394,-0.81,0.13,0.33,-0.25,1.56,2.26
11.395,-0.34,0.11,-0.33,-0.25,1.56,2.26
11.395,-0.34,0.11,-0.33,-0.25,1.56,2.26
11.404,-0.34,0.11,-0.33,-0.87,1.38,1.95
11.404,-0.34,0.11,-0.33,-0.87,1.38,1.95
11.405,0.26,0.06,-0.77,-0.87,1.38,1.95
11.405,0.26,0.06,-0.77,-0.87,1.38,1.95
11.412,0.26,0.06,-0.77,-1.46,1.17,1.56
11.413,0.26,0.06,-0.77,-1.46,1.17,1.56
11.414,1.95,0.03,-0.8,-1.46,1.17,1.56
11.414,1.95,0.03,-0.8,-1.46,1.17,1.56
11.422,1.95,0.03,-0.8,-1.98,0.87,1.09
11.423,1.95,0.03,-0.8,-1.98,0.87,1.09
11.423,2.25,0.05,-0.55,-1.98,0.87,1.09
11.424,2.25,0.05,-0.55,-1.98,0.87,1.09
11.432,2.25,0.05,-0.55,-2.37,0.46,0.48
11.432,2.25,0.05,-0.55,-2.37,0.46,0.48
11.432,2.68,0.15,-0.18,-2.37,0.46,0.48
11.433,2.68,0.15,-0.18,-2.37,0.46,0.48
11.452,2.68,0.15,-0.18,-2.56,-0.04,-0.24
11.453,2.68,0.15,-0.18,-2.56,-0.04,-0.24
11.453,3.06,0.26,0.16,-2.56,-0.04,-0.24
11.454,3.06,0.26,0.16,-2.56,-0.04,-0.24
11.454,3.06,0.26,0.16,-2.29,-0.13,-0.95
11.454,3.06,0.26,0.16,-2.29,-0.13,-0.95
11.455,3.35,0.42,0.32,-2.29,-0.13,-0.95
11.455,3.35,0.42,0.32,-2.29,-0.13,-0.95
11.461,3.35,0.42,0.32,-2.29,-0.13,-0.95
11.462,3.35,0.42,0.32,-2.29,-0.13,-0.95
11.462,3.35,0.42,0.32,-2.29,-0.13,-0.95
11.463,3.35,0.42,0.32,-2.29,-0.13,-0.95
11.469,3.35,0.42,0.32,-1.53,-0.08,-2.05
11.47,3.35,0.42,0.32,-1.53,-0.08,-2.05
11.471,3.42,0.74,-0.16,-1.53,-0.08,-2.05
11.471,3.42,0.74,-0.16,-1.53,-0.08,-2.05
11.48,3.42,0.74,-0.16,-1.53,-0.08,-2.05
11.481,3.42,0.74,-0.16,-1.53,-0.08,-2.05
11.481,3.42,0.74,-0.16,-1.53,-0.08,-2.05
11.482,3.42,0.74,-0.16,-1.53,-0.08,-2.05
11.49,3.42,0.74,-0.16,-0.98,-0.78,-2.61
11.491,3.42,0.74,-0.16,-0.98,-0.78,-2.61
11.491,2.68,0.88,-2.3,-0.98,-0.78,-2.61
11.492,2.68,0.88,-2.3,-0.98,-0.78,-2.61
11.5,2.68,0.88,-2.3,-0.98,-0.78,-2.61
11.502,2.68,0.88,-2.3,-0.98,-0.78,-2.61
11.503,2.68,0.88,-2.3,-0.98,-0.78,-2.61
11.504,2.68,0.88,-2.3,-0.98,-0.78,-2.61
11.532,2.68,0.88,-2.3,-1.24,-1.24,-2.45
11.532,2.68,0.88,-2.3,-1.24,-1.24,-2.45
11.533,1.45,0.98,-3.18,-1.24,-1.24,-2.45
11.533,1.45,0.98,-3.18,-1.24,-1.24,-2.45
11.534,1.45,0.98,-3.18,-1.24,-1.24,-2.45
11.534,1.45,0.98,-3.18,-1.24,-1.24,-2.45
11.535,1.45,0.98,-3.18,-1.24,-1.24,-2.45
11.535,1.45,0.98,-3.18,-1.24,-1.24,-2.45
11.535,1.45,0.98,-3.18,-1.63,-1.38,-2.1
11.535,1.45,0.98,-3.18,-1.63,-1.38,-2.1
11.536,0.49,1.38,-3.13,-1.63,-1.38,-2.1
11.536,0.49,1.38,-3.13,-1.63,-1.38,-2.1
11.536,0.49,1.38,-3.13,-2,-1.44,-1.61
11.536,0.49,1.38,-3.13,-2,-1.44,-1.61
11.537,0.28,1.67,-2.69,-2,-1.44,-1.61
11.537,0.28,1.67,-2.69,-2,-1.44,-1.61
11.546,0.28,1.67,-2.69,-2.25,-1.4,-1.04
11.547,0.28,1.67,-2.69,-2.25,-1.4,-1.04
11.547,0.3,1.99,-2.16,-2.25,-1.4,-1.04
11.547,0.3,1.99,-2.16,-2.25,-1.4,-1.04
11.556,0.3,1.99,-2.16,-2.3,-1.27,-0.45
11.557,0.3,1.99,-2.16,-2.3,-1.27,-0.45
11.557,0.5,2.2,-1.74,-2.3,-1.27,-0.45
11.558,0.5,2.2,-1.74,-2.3,-1.27,-0.45
11.567,0.5,2.2,-1.74,-2.14,-1.03,0.07
11.568,0.5,2.2,-1.74,-2.14,-1.03,0.07
11.569,0.71,2.22,-1.53,-2.14,-1.03,0.07
11.569,0.71,2.22,-1.53,-2.14,-1.03,0.07
11.575,0.71,2.22,-1.53,-1.8,-0.73,0.45
11.576,0.71,2.22,-1.53,-1.8,-0.73,0.45
11.577,0.88,2,-1.44,-1.8,-0.73,0.45
11.577,0.88,2,-1.44,-1.8,-0.73,0.45
11.583,0.88,2,-1.44,-1.36,-0.44,0.65
11.584,0.88,2,-1.44,-1.36,-0.44,0.65
11.585,1.03,1.62,-1.35,-1.36,-0.44,0.65
11.585,1.03,1.62,-1.35,-1.36,-0.44,0.65
11.593,1.03,1.62,-1.35,-0.9,-0.18,0.7
11.594,1.03,1.62,-1.35,-0.9,-0.18,0.7
11.594,1.23,1.33,-1.22,-0.9,-0.18,0.7
11.595,1.23,1.33,-1.22,-0.9,-0.18,0.7
11.603,1.23,1.33,-1.22,-0.49,0.02,0.63
11.604,1.23,1.33,-1.22,-0.49,0.02,0.63
11.604,1.54,1.26,-1.05,-0.49,0.02,0.63
11.605,1.54,1.26,-1.05,-0.49,0.02,0.63
11.613,1.54,1.26,-1.05,-0.14,0.17,0.48
11.615,1.54,1.26,-1.05,-0.14,0.17,0.48
11.615,1.93,1.49,-0.86,-0.14,0.17,0.48
11.616,1.93,1.49,-0.86,-0.14,0.17,0.48
11.622,1.93,1.49,-0.86,0.16,0.26,0.25
11.623,1.93,1.49,-0.86,0.16,0.26,0.25
11.623,2.26,1.92,-0.68,0.16,0.26,0.25
11.624,2.26,1.92,-0.68,0.16,0.26,0.25
11.64,2.26,1.92,-0.68,0.41,0.3,-0.05
11.641,2.26,1.92,-0.68,0.41,0.3,-0.05
11.641,2.36,2.37,-0.54,0.41,0.3,-0.05
11.641,2.36,2.37,-0.54,0.41,0.3,-0.05
11.641,2.36,2.37,-0.54,0.61,0.29,-0.39
11.642,2.36,2.37,-0.54,0.61,0.29,-0.39
11.642,2.17,2.7,-0.41,0.61,0.29,-0.39
11.642,2.17,2.7,-0.41,0.61,0.29,-0.39
11.65,2.17,2.7,-0.41,0.77,0.28,-0.74
11.651,2.17,2.7,-0.41,0.77,0.28,-0.74
11.651,1.72,2.83,-0.3,0.77,0.28,-0.74
11.652,1.72,2.83,-0.3,0.77,0.28,-0.74
11.66,1.72,2.83,-0.3,0.67,0.25,-1.01
11.661,1.72,2.83,-0.3,0.67,0.25,-1.01
11.662,1.21,2.73,-0.28,0.67,0.25,-1.01
11.662,1.21,2.73,-0.28,0.67,0.25,-1.01
11.669,1.21,2.73,-0.28,0.56,0.19,-1.13
11.67,1.21,2.73,-0.28,0.56,0.19,-1.13
11.671,0.79,2.43,-0.33,0.56,0.19,-1.13
11.671,0.79,2.43,-0.33,0.56,0.19,-1.13
11.679,0.79,2.43,-0.33,0.56,0.19,-1.13
11.679,0.79,2.43,-0.33,0.56,0.19,-1.13
11.68,0.79,2.43,-0.33,0.56,0.19,-1.13
11.68,0.79,2.43,-0.33,0.56,0.19,-1.13
11.688,0.79,2.43,-0.33,0.65,0.23,-1.07
11.689,0.79,2.43,-0.33,0.65,0.23,-1.07
11.69,0.73,1.57,-0.51,0.65,0.23,-1.07
11.69,0.73,1.57,-0.51,0.65,0.23,-1.07
11.698,0.73,1.57,-0.51,0.66,0.41,-0.84
11.699,0.73,1.57,-0.51,0.66,0.41,-0.84
11.7,0.86,1.3,-0.38,0.66,0.41,-0.84
11.7,0.86,1.3,-0.38,0.66,0.41,-0.84
11.725,0.86,1.3,-0.38,0.6,0.55,-0.53
11.726,0.86,1.3,-0.38,0.6,0.55,-0.53
11.726,0.87,1.24,-0.16,0.6,0.55,-0.53
11.726,0.87,1.24,-0.16,0.6,0.55,-0.53
11.727,0.87,1.24,-0.16,0.5,0.65,-0.27
11.727,0.87,1.24,-0.16,0.5,0.65,-0.27
11.727,0.65,1.41,0.07,0.5,0.65,-0.27
11.727,0.65,1.41,0.07,0.5,0.65,-0.27
11.728,0.65,1.41,0.07,0.42,0.73,-0.1
11.728,0.65,1.41,0.07,0.42,0.73,-0.1
11.728,0.32,1.71,0.14,0.42,0.73,-0.1
11.728,0.32,1.71,0.14,0.42,0.73,-0.1
11.736,0.32,1.71,0.14,0.38,0.8,0
11.736,0.32,1.71,0.14,0.38,0.8,0
11.737,-0.05,2.01,0.08,0.38,0.8,0
11.737,-0.05,2.01,0.08,0.38,0.8,0
11.746,-0.05,2.01,0.08,0.38,0.87,0.1
11.747,-0.05,2.01,0.08,0.38,0.87,0.1
11.748,-0.29,2.13,0.07,0.38,0.87,0.1
11.748,-0.29,2.13,0.07,0.38,0.87,0.1
11.755,-0.29,2.13,0.07,0.38,0.92,0.23
11.755,-0.29,2.13,0.07,0.38,0.92,0.23
11.756,-0.32,1.77,0.13,0.38,0.92,0.23
11.756,-0.32,1.77,0.13,0.38,0.92,0.23
11.764,-0.32,1.77,0.13,0.35,0.97,0.38
11.765,-0.32,1.77,0.13,0.35,0.97,0.38
11.766,-0.15,-0.27,0.25,0.35,0.97,0.38
11.766,-0.15,-0.27,0.25,0.35,0.97,0.38
11.774,-0.15,-0.27,0.25,0.3,1,0.53
11.775,-0.15,-0.27,0.25,0.3,1,0.53
11.776,0.23,-4.05,0.32,0.3,1,0.53
11.776,0.23,-4.05,0.32,0.3,1,0.53
11.783,0.23,-4.05,0.32,0.25,1,0.61
11.784,0.23,-4.05,0.32,0.25,1,0.61
11.785,0.79,-5.76,0.21,0.25,1,0.61
11.785,0.79,-5.76,0.21,0.25,1,0.61
11.792,0.79,-5.76,0.21,0.18,0.93,0.58
11.793,0.79,-5.76,0.21,0.18,0.93,0.58
11.794,2.32,-7.55,-0.22,0.18,0.93,0.58
11.794,2.32,-7.55,-0.22,0.18,0.93,0.58
11.803,2.32,-7.55,-0.22,0.09,0.78,0.39
11.804,2.32,-7.55,-0.22,0.09,0.78,0.39
11.804,2.74,-7.65,-1.7,0.09,0.78,0.39
11.805,2.74,-7.65,-1.7,0.09,0.78,0.39
11.813,2.74,-7.65,-1.7,-0.06,0.57,0.06
11.814,2.74,-7.65,-1.7,-0.06,0.57,0.06
11.815,3.07,-7.31,-2.26,-0.06,0.57,0.06
11.815,3.07,-7.31,-2.26,-0.06,0.57,0.06
11.821,3.07,-7.31,-2.26,-0.33,0.32,-0.35
11.822,3.07,-7.31,-2.26,-0.33,0.32,-0.35
11.823,3,-6.72,-3.84,-0.33,0.32,-0.35
11.824,3,-6.72,-3.84,-0.33,0.32,-0.35
11.84,3,-6.72,-3.84,-0.69,0.11,-0.72
11.841,3,-6.72,-3.84,-0.69,0.11,-0.72
11.841,1.17,-6.31,-4.14,-0.69,0.11,-0.72
11.841,1.17,-6.31,-4.14,-0.69,0.11,-0.72
11.842,1.17,-6.31,-4.14,-1.13,-0.05,-0.95
11.842,1.17,-6.31,-4.14,-1.13,-0.05,-0.95
11.842,-0.59,-6.33,-4.36,-1.13,-0.05,-0.95
11.842,-0.59,-6.33,-4.36,-1.13,-0.05,-0.95
11.85,-0.59,-6.33,-4.36,-1.56,-0.09,-0.92
11.851,-0.59,-6.33,-4.36,-1.56,-0.09,-0.92
11.851,-1.15,-6.64,-4.32,-1.56,-0.09,-0.92
11.851,-1.15,-6.64,-4.32,-1.56,-0.09,-0.92
11.861,-1.15,-6.64,-4.32,-1.92,-0.01,-0.6
11.861,-1.15,-6.64,-4.32,-1.92,-0.01,-0.6
11.862,-2.89,-6.98,-3.95,-1.92,-0.01,-0.6
11.862,-2.89,-6.98,-3.95,-1.92,-0.01,-0.6
11.87,-2.89,-6.98,-3.95,-2.14,0.21,-0.04
11.871,-2.89,-6.98,-3.95,-2.14,0.21,-0.04
11.871,-3.41,-7.1,-2.13,-2.14,0.21,-0.04
11.872,-3.41,-7.1,-2.13,-2.14,0.21,-0.04
11.879,-3.41,-7.1,-2.13,-2.16,0.53,0.63
11.88,-3.41,-7.1,-2.13,-2.16,0.53,0.63
11.881,-3.97,-6.77,-1.77,-2.16,0.53,0.63
11.881,-3.97,-6.77,-1.77,-2.16,0.53,0.63
11.889,-3.97,-6.77,-1.77,-2.16,0.53,0.63
11.889,-3.97,-6.77,-1.77,-2.16,0.53,0.63
11.89,-3.97,-6.77,-1.77,-2.16,0.53,0.63
11.89,-3.97,-6.77,-1.77,-2.16,0.53,0.63
11.898,-3.97,-6.77,-1.77,-1.94,0.9,1.3
11.899,-3.97,-6.77,-1.77,-1.94,0.9,1.3
11.9,-4.33,-3.63,-0.79,-1.94,0.9,1.3
11.9,-4.33,-3.63,-0.79,-1.94,0.9,1.3
11.925,-4.33,-3.63,-0.79,-1.51,1.22,1.87
11.926,-4.33,-3.63,-0.79,-1.51,1.22,1.87
11.926,-3.99,-1.91,-0.53,-1.51,1.22,1.87
11.926,-3.99,-1.91,-0.53,-1.51,1.22,1.87
11.927,-3.99,-1.91,-0.53,-1,1.22,2.29
11.927,-3.99,-1.91,-0.53,-1,1.22,2.29
11.927,-3.44,-0.12,-0.45,-1,1.22,2.29
11.927,-3.44,-0.12,-0.45,-1,1.22,2.29
11.928,-3.44,-0.12,-0.45,-0.52,0.93,2.53
11.928,-3.44,-0.12,-0.45,-0.52,0.93,2.53
11.928,-2.85,0.13,-0.46,-0.52,0.93,2.53
11.928,-2.85,0.13,-0.46,-0.52,0.93,2.53
11.936,-2.85,0.13,-0.46,-0.13,0.81,2.63
11.936,-2.85,0.13,-0.46,-0.13,0.81,2.63
11.937,-2.4,0.43,-0.51,-0.13,0.81,2.63
11.937,-2.4,0.43,-0.51,-0.13,0.81,2.63
11.946,-2.4,0.43,-0.51,0.16,0.81,2.57
11.947,-2.4,0.43,-0.51,0.16,0.81,2.57
11.947,-2.14,0.6,-0.58,0.16,0.81,2.57
11.948,-2.14,0.6,-0.58,0.16,0.81,2.57
11.955,-2.14,0.6,-0.58,0.34,0.73,2.38
11.955,-2.14,0.6,-0.58,0.34,0.73,2.38
11.956,-2.04,0.64,-0.68,0.34,0.73,2.38
11.956,-2.04,0.64,-0.68,0.34,0.73,2.38
11.965,-2.04,0.64,-0.68,0.44,0.63,2.08
11.966,-2.04,0.64,-0.68,0.44,0.63,2.08
11.967,-2.06,0.67,-0.81,0.44,0.63,2.08
11.967,-2.06,0.67,-0.81,0.44,0.63,2.08
11.974,-2.06,0.67,-0.81,0.48,0.52,1.76
11.975,-2.06,0.67,-0.81,0.48,0.52,1.76
11.975,-2.09,0.78,-0.92,0.48,0.52,1.76
11.975,-2.09,0.78,-0.92,0.48,0.52,1.76
11.983,-2.09,0.78,-0.92,0.45,0.41,1.45
11.984,-2.09,0.78,-0.92,0.45,0.41,1.45
11.985,-2.13,1,-0.98,0.45,0.41,1.45
11.985,-2.13,1,-0.98,0.45,0.41,1.45
11.992,-2.13,1,-0.98,0.39,0.32,1.21
11.993,-2.13,1,-0.98,0.39,0.32,1.21
11.994,-2.11,1.32,-0.97,0.39,0.32,1.21
11.994,-2.11,1.32,-0.97,0.39,0.32,1.21
12.003,-2.11,1.32,-0.97,0.29,0.25,1.02
12.004,-2.11,1.32,-0.97,0.29,0.25,1.02
12.004,-2.03,1.71,-0.88,0.29,0.25,1.02
12.005,-2.03,1.71,-0.88,0.29,0.25,1.02
12.025,-2.03,1.71,-0.88,0.19,0.18,0.89
12.027,-2.03,1.71,-0.88,0.19,0.18,0.89
12.027,-1.93,2.18,-0.8,0.19,0.18,0.89
12.028,-1.93,2.18,-0.8,0.19,0.18,0.89
12.028,-1.93,2.18,-0.8,0.1,0.12,0.8
12.029,-1.93,2.18,-0.8,0.1,0.12,0.8
12.03,-1.78,2.65,-0.67,0.1,0.12,0.8
12.03,-1.78,2.65,-0.67,0.1,0.12,0.8
12.031,-1.78,2.65,-0.67,0.03,0.05,0.74
12.032,-1.78,2.65,-0.67,0.03,0.05,0.74
12.032,-1.61,3.08,-0.51,0.03,0.05,0.74
12.033,-1.61,3.08,-0.51,0.03,0.05,0.74
12.052,-1.61,3.08,-0.51,-0.02,-0.03,0.69
12.053,-1.61,3.08,-0.51,-0.02,-0.03,0.69
12.053,-1.4,3.45,-0.23,-0.02,-0.03,0.69
12.054,-1.4,3.45,-0.23,-0.02,-0.03,0.69
12.054,-1.4,3.45,-0.23,-0.04,-0.14,0.65
12.054,-1.4,3.45,-0.23,-0.04,-0.14,0.65
12.055,-1.14,3.7,0.1,-0.04,-0.14,0.65
12.055,-1.14,3.7,0.1,-0.04,-0.14,0.65
12.061,-1.14,3.7,0.1,-0.01,-0.27,0.59
12.062,-1.14,3.7,0.1,-0.01,-0.27,0.59
12.062,-0.9,3.79,0.39,-0.01,-0.27,0.59
12.063,-0.9,3.79,0.39,-0.01,-0.27,0.59
12.07,-0.9,3.79,0.39,0.08,-0.44,0.5
12.071,-0.9,3.79,0.39,0.08,-0.44,0.5
12.071,-0.69,3.71,0.59,0.08,-0.44,0.5
12.072,-0.69,3.71,0.59,0.08,-0.44,0.5
12.08,-0.69,3.71,0.59,0.08,-0.44,0.5
12.081,-0.69,3.71,0.59,0.08,-0.44,0.5
12.082,-0.69,3.71,0.59,0.08,-0.44,0.5
12.082,-0.69,3.71,0.59,0.08,-0.44,0.5
12.088,-0.69,3.71,0.59,0.04,-0.62,0.37
12.088,-0.69,3.71,0.59,0.04,-0.62,0.37
12.089,-0.69,3.13,0.58,0.04,-0.62,0.37
12.089,-0.69,3.13,0.58,0.04,-0.62,0.37
12.098,-0.69,3.13,0.58,0.08,-0.79,0.21
12.099,-0.69,3.13,0.58,0.08,-0.79,0.21
12.099,-0.77,2.76,0.53,0.08,-0.79,0.21
12.099,-0.77,2.76,0.53,0.08,-0.79,0.21
12.121,-0.77,2.76,0.53,0.33,-0.92,0.04
12.121,-0.77,2.76,0.53,0.33,-0.92,0.04
12.122,-0.86,2.44,0.5,0.33,-0.92,0.04
12.122,-0.86,2.44,0.5,0.33,-0.92,0.04
12.122,-0.86,2.44,0.5,0.51,-1.01,-0.09
12.122,-0.86,2.44,0.5,0.51,-1.01,-0.09
12.123,-0.83,2.2,0.51,0.51,-1.01,-0.09
12.123,-0.83,2.2,0.51,0.51,-1.01,-0.09
12.127,-0.83,2.2,0.51,0.6,-1.05,-0.16
12.128,-0.83,2.2,0.51,0.6,-1.05,-0.16
12.129,-0.67,2.08,0.52,0.6,-1.05,-0.16
12.129,-0.67,2.08,0.52,0.6,-1.05,-0.16
12.135,-0.67,2.08,0.52,0.61,-1.07,-0.19
12.136,-0.67,2.08,0.52,0.61,-1.07,-0.19
12.137,-0.39,2.02,0.5,0.61,-1.07,-0.19
12.137,-0.39,2.02,0.5,0.61,-1.07,-0.19
12.145,-0.39,2.02,0.5,0.57,-1.08,-0.21
12.146,-0.39,2.02,0.5,0.57,-1.08,-0.21
12.147,-0.04,2.01,0.43,0.57,-1.08,-0.21
12.148,-0.04,2.01,0.43,0.57,-1.08,-0.21
12.155,-0.04,2.01,0.43,0.5,-1.08,-0.26
12.156,-0.04,2.01,0.43,0.5,-1.08,-0.26
12.157,0.3,2.01,0.3,0.5,-1.08,-0.26
12.158,0.3,2.01,0.3,0.5,-1.08,-0.26
12.164,0.3,2.01,0.3,0.4,-1.08,-0.37
12.165,0.3,2.01,0.3,0.4,-1.08,-0.37
12.166,0.61,2,0.08,0.4,-1.08,-0.37
12.166,0.61,2,0.08,0.4,-1.08,-0.37
12.174,0.61,2,0.08,0.27,-1.07,-0.54
12.174,0.61,2,0.08,0.27,-1.07,-0.54
12.175,0.9,1.99,-0.25,0.27,-1.07,-0.54
12.175,0.9,1.99,-0.25,0.27,-1.07,-0.54
12.183,0.9,1.99,-0.25,0.09,-0.96,-0.75
12.183,0.9,1.99,-0.25,0.09,-0.96,-0.75
12.184,1.17,1.94,-0.62,0.09,-0.96,-0.75
12.184,1.17,1.94,-0.62,0.09,-0.96,-0.75
12.193,1.17,1.94,-0.62,-0.14,-0.86,-0.97
12.193,1.17,1.94,-0.62,-0.14,-0.86,-0.97
12.193,1.37,1.85,-0.97,-0.14,-0.86,-0.97
12.194,1.37,1.85,-0.97,-0.14,-0.86,-0.97
12.203,1.37,1.85,-0.97,-0.44,-0.84,-1.18
12.203,1.37,1.85,-0.97,-0.44,-0.84,-1.18
12.204,1.5,1.71,-1.26,-0.44,-0.84,-1.18
12.205,1.5,1.71,-1.26,-0.44,-0.84,-1.18
12.213,1.5,1.71,-1.26,-0.78,-0.75,-1.24
12.214,1.5,1.71,-1.26,-0.78,-0.75,-1.24
12.214,1.53,1.57,-1.43,-0.78,-0.75,-1.24
12.215,1.53,1.57,-1.43,-0.78,-0.75,-1.24
12.221,1.53,1.57,-1.43,-1.14,-0.68,-1.28
12.221,1.53,1.57,-1.43,-1.14,-0.68,-1.28
12.222,1.5,1.47,-1.51,-1.14,-0.68,-1.28
12.222,1.5,1.47,-1.51,-1.14,-0.68,-1.28
12.247,1.5,1.47,-1.51,-1.45,-0.73,-1.38
12.248,1.5,1.47,-1.51,-1.45,-0.73,-1.38
12.248,1.45,1.45,-1.55,-1.45,-0.73,-1.38
12.249,1.45,1.45,-1.55,-1.45,-0.73,-1.38
12.249,1.45,1.45,-1.55,-1.68,-0.77,-1.39
12.249,1.45,1.45,-1.55,-1.68,-0.77,-1.39
12.249,1.4,1.52,-1.58,-1.68,-0.77,-1.39
12.25,1.4,1.52,-1.58,-1.68,-0.77,-1.39
