time,ax,ay,az,wx,wy,wz
5.002,2.7,2.33,-2.74,-2.42,-1.92,-3.24
5.003,2.7,2.33,-2.74,-2.42,-1.92,-3.24
5.004,2.3,2.45,-2.75,-2.42,-1.92,-3.24
5.004,2.3,2.45,-2.75,-2.42,-1.92,-3.24
5.013,2.3,2.45,-2.75,-2.43,-1.98,-3.09
5.014,2.3,2.45,-2.75,-2.43,-1.98,-3.09
5.015,1.76,2.5,-2.6,-2.43,-1.98,-3.09
5.015,1.76,2.5,-2.6,-2.43,-1.98,-3.09
5.021,1.76,2.5,-2.6,-2.4,-1.98,-2.74
5.022,1.76,2.5,-2.6,-2.4,-1.98,-2.74
5.023,0.03,2.45,-2.37,-2.4,-1.98,-2.74
5.024,0.03,2.45,-2.37,-2.4,-1.98,-2.74
5.031,0.03,2.45,-2.37,-2.4,-1.98,-2.74
5.031,0.03,2.45,-2.37,-2.4,-1.98,-2.74
5.032,0.03,2.45,-2.37,-2.4,-1.98,-2.74
5.032,0.03,2.45,-2.37,-2.4,-1.98,-2.74
5.04,0.03,2.45,-2.37,-2.3,-1.92,-2.16
5.041,0.03,2.45,-2.37,-2.3,-1.92,-2.16
5.041,-0.78,2.03,-1.86,-2.3,-1.92,-2.16
5.042,-0.78,2.03,-1.86,-2.3,-1.92,-2.16
5.055,-0.78,2.03,-1.86,-2.1,-1.75,-1.26
5.056,-0.78,2.03,-1.86,-2.1,-1.75,-1.26
5.056,-1.31,1.74,-1.62,-2.1,-1.75,-1.26
5.056,-1.31,1.74,-1.62,-2.1,-1.75,-1.26
5.059,-1.31,1.74,-1.62,-1.78,-1.44,-0.09
5.059,-1.31,1.74,-1.62,-1.78,-1.44,-0.09
5.06,-1.69,1.5,-1.42,-1.78,-1.44,-0.09
5.06,-1.69,1.5,-1.42,-1.78,-1.44,-0.09
5.069,-1.69,1.5,-1.42,-1.31,-1.02,1.2
5.07,-1.69,1.5,-1.42,-1.31,-1.02,1.2
5.07,-1.81,1.31,-1.27,-1.31,-1.02,1.2
5.071,-1.81,1.31,-1.27,-1.31,-1.02,1.2
5.079,-1.81,1.31,-1.27,-0.77,-0.57,2.31
5.08,-1.81,1.31,-1.27,-0.77,-0.57,2.31
5.081,-1.7,1.2,-1.2,-0.77,-0.57,2.31
5.081,-1.7,1.2,-1.2,-0.77,-0.57,2.31
5.088,-1.7,1.2,-1.2,-0.24,-0.21,3.07
5.09,-1.7,1.2,-1.2,-0.24,-0.21,3.07
5.091,-1.46,1.06,-1.23,-0.24,-0.21,3.07
5.092,-1.46,1.06,-1.23,-0.24,-0.21,3.07
5.097,-1.46,1.06,-1.23,0.19,-0.01,3.45
5.098,-1.46,1.06,-1.23,0.19,-0.01,3.45
5.098,-1.28,0.82,-1.38,0.19,-0.01,3.45
5.099,-1.28,0.82,-1.38,0.19,-0.01,3.45
5.107,-1.28,0.82,-1.38,0.46,0.04,3.49
5.108,-1.28,0.82,-1.38,0.46,0.04,3.49
5.109,-1.35,0.39,-1.67,0.46,0.04,3.49
5.11,-1.35,0.39,-1.67,0.46,0.04,3.49
5.117,-1.35,0.39,-1.67,0.57,-0.05,3.27
5.118,-1.35,0.39,-1.67,0.57,-0.05,3.27
5.118,-1.82,-1.2,-1.99,0.57,-0.05,3.27
5.119,-1.82,-1.2,-1.99,0.57,-0.05,3.27
5.126,-1.82,-1.2,-1.99,0.53,-0.22,2.9
5.127,-1.82,-1.2,-1.99,0.53,-0.22,2.9
5.127,-3.53,-2.89,-2.18,0.53,-0.22,2.9
5.128,-3.53,-2.89,-2.18,0.53,-0.22,2.9
5.135,-3.53,-2.89,-2.18,0.4,-0.39,2.53
5.136,-3.53,-2.89,-2.18,0.4,-0.39,2.53
5.137,-4.08,-4.76,-2.13,0.4,-0.39,2.53
5.137,-4.08,-4.76,-2.13,0.4,-0.39,2.53
5.145,-4.08,-4.76,-2.13,0.3,-0.46,2.29
5.146,-4.08,-4.76,-2.13,0.3,-0.46,2.29
5.146,-4.31,-5.12,-1.83,0.3,-0.46,2.29
5.147,-4.31,-5.12,-1.83,0.3,-0.46,2.29
5.156,-4.31,-5.12,-1.83,0.29,-0.41,2.17
5.157,-4.31,-5.12,-1.83,0.29,-0.41,2.17
5.158,-2.79,-5,-1.3,0.29,-0.41,2.17
5.159,-2.79,-5,-1.3,0.29,-0.41,2.17
5.163,-2.79,-5,-1.3,0.37,-0.32,2.04
5.164,-2.79,-5,-1.3,0.37,-0.32,2.04
5.165,-0.41,-2.93,0.51,0.37,-0.32,2.04
5.165,-0.41,-2.93,0.51,0.37,-0.32,2.04
5.174,-0.41,-2.93,0.51,0.5,-0.26,1.75
5.175,-0.41,-2.93,0.51,0.5,-0.26,1.75
5.175,1.51,-2.49,0.91,0.5,-0.26,1.75
5.176,1.51,-2.49,0.91,0.5,-0.26,1.75
5.184,1.51,-2.49,0.91,0.69,-0.31,1.19
5.185,1.51,-2.49,0.91,0.69,-0.31,1.19
5.186,1.75,-2.11,1.59,0.69,-0.31,1.19
5.187,1.75,-2.11,1.59,0.69,-0.31,1.19
5.193,1.75,-2.11,1.59,0.92,-0.44,0.41
5.194,1.75,-2.11,1.59,0.92,-0.44,0.41
5.195,1.92,-2.19,2.29,0.92,-0.44,0.41
5.196,1.92,-2.19,2.29,0.92,-0.44,0.41
5.202,1.92,-2.19,2.29,1.21,-0.58,-0.46
5.203,1.92,-2.19,2.29,1.21,-0.58,-0.46
5.203,1.88,-2.55,2.82,1.21,-0.58,-0.46
5.204,1.88,-2.55,2.82,1.21,-0.58,-0.46
5.212,1.88,-2.55,2.82,1.53,-0.66,-1.22
5.213,1.88,-2.55,2.82,1.53,-0.66,-1.22
5.214,1.91,-3.12,3.17,1.53,-0.66,-1.22
5.214,1.91,-3.12,3.17,1.53,-0.66,-1.22
5.221,1.91,-3.12,3.17,1.86,-0.64,-1.77
5.222,1.91,-3.12,3.17,1.86,-0.64,-1.77
5.223,2.16,-4.71,3.31,1.86,-0.64,-1.77
5.223,2.16,-4.71,3.31,1.86,-0.64,-1.77
5.231,2.16,-4.71,3.31,1.86,-0.64,-1.77
5.232,2.16,-4.71,3.31,1.86,-0.64,-1.77
5.233,2.16,-4.71,3.31,1.86,-0.64,-1.77
5.234,2.16,-4.71,3.31,1.86,-0.64,-1.77
5.24,2.16,-4.71,3.31,2.16,-0.52,-2.12
5.243,2.16,-4.71,3.31,2.16,-0.52,-2.12
5.244,3.04,-6.91,1.65,2.16,-0.52,-2.12
5.245,3.04,-6.91,1.65,2.16,-0.52,-2.12
5.251,3.04,-6.91,1.65,2.31,-0.39,-2.34
5.253,3.04,-6.91,1.65,2.31,-0.39,-2.34
5.253,3.17,-7.01,0.08,2.31,-0.39,-2.34
5.254,3.17,-7.01,0.08,2.31,-0.39,-2.34
5.258,3.17,-7.01,0.08,2.17,-0.29,-2.5
5.259,3.17,-7.01,0.08,2.17,-0.29,-2.5
5.259,2.87,-6.6,-0.31,2.17,-0.29,-2.5
5.259,2.87,-6.6,-0.31,2.17,-0.29,-2.5
5.268,2.87,-6.6,-0.31,1.72,-0.28,-2.6
5.269,2.87,-6.6,-0.31,1.72,-0.28,-2.6
5.27,1.19,-4.59,-0.7,1.72,-0.28,-2.6
5.27,1.19,-4.59,-0.7,1.72,-0.28,-2.6
5.278,1.19,-4.59,-0.7,1.07,-0.29,-2.57
5.28,1.19,-4.59,-0.7,1.07,-0.29,-2.57
5.28,0.77,-2.47,-0.64,1.07,-0.29,-2.57
5.281,0.77,-2.47,-0.64,1.07,-0.29,-2.57
5.288,0.77,-2.47,-0.64,0.43,-0.28,-2.33
5.289,0.77,-2.47,-0.64,0.43,-0.28,-2.33
5.289,0.23,-0.72,1.47,0.43,-0.28,-2.33
5.29,0.23,-0.72,1.47,0.43,-0.28,-2.33
5.297,0.23,-0.72,1.47,-0.06,-0.19,-1.92
5.298,0.23,-0.72,1.47,-0.06,-0.19,-1.92
5.298,-0.14,-0.18,3.35,-0.06,-0.19,-1.92
5.299,-0.14,-0.18,3.35,-0.06,-0.19,-1.92
5.306,-0.14,-0.18,3.35,-0.27,0,-1.4
5.308,-0.14,-0.18,3.35,-0.27,0,-1.4
5.308,-0.27,0.38,3.89,-0.27,0,-1.4
5.309,-0.27,0.38,3.89,-0.27,0,-1.4
5.317,-0.27,0.38,3.89,-0.1,0.3,-0.87
5.318,-0.27,0.38,3.89,-0.1,0.3,-0.87
5.319,-0.26,0.69,5.6,-0.1,0.3,-0.87
5.319,-0.26,0.69,5.6,-0.1,0.3,-0.87
5.326,-0.26,0.69,5.6,0.42,0.66,-0.37
5.327,-0.26,0.69,5.6,0.42,0.66,-0.37
5.327,-0.31,0.72,6,0.42,0.66,-0.37
5.328,-0.31,0.72,6,0.42,0.66,-0.37
5.335,-0.31,0.72,6,1.17,1.02,0.03
5.336,-0.31,0.72,6,1.17,1.02,0.03
5.336,-0.45,0.44,6.33,1.17,1.02,0.03
5.337,-0.45,0.44,6.33,1.17,1.02,0.03
5.345,-0.45,0.44,6.33,2.01,1.29,0.32
5.345,-0.45,0.44,6.33,2.01,1.29,0.32
5.346,-0.61,-0.08,6.19,2.01,1.29,0.32
5.347,-0.61,-0.08,6.19,2.01,1.29,0.32
5.355,-0.61,-0.08,6.19,2.77,1.44,0.52
5.356,-0.61,-0.08,6.19,2.77,1.44,0.52
5.357,-0.59,-0.64,4.53,2.77,1.44,0.52
5.358,-0.59,-0.64,4.53,2.77,1.44,0.52
5.364,-0.59,-0.64,4.53,3.26,1.47,0.65
5.364,-0.59,-0.64,4.53,3.26,1.47,0.65
5.365,-0.31,-1,2.16,3.26,1.47,0.65
5.365,-0.31,-1,2.16,3.26,1.47,0.65
5.373,-0.31,-1,2.16,3.29,1.37,0.73
5.374,-0.31,-1,2.16,3.29,1.37,0.73
5.374,0.1,-1.06,-0.23,3.29,1.37,0.73
5.375,0.1,-1.06,-0.23,3.29,1.37,0.73
5.384,0.1,-1.06,-0.23,2.73,1.19,0.74
5.385,0.1,-1.06,-0.23,2.73,1.19,0.74
5.386,0.37,-0.87,-0.93,2.73,1.19,0.74
5.386,0.37,-0.87,-0.93,2.73,1.19,0.74
5.392,0.37,-0.87,-0.93,1.64,0.97,0.67
5.393,0.37,-0.87,-0.93,1.64,0.97,0.67
5.393,0.35,-0.5,-1.23,1.64,0.97,0.67
5.394,0.35,-0.5,-1.23,1.64,0.97,0.67
5.402,0.35,-0.5,-1.23,0.29,0.66,0.53
5.403,0.35,-0.5,-1.23,0.29,0.66,0.53
5.404,0.07,-0.07,-0.97,0.29,0.66,0.53
5.404,0.07,-0.07,-0.97,0.29,0.66,0.53
5.412,0.07,-0.07,-0.97,-0.96,0.31,0.37
5.414,0.07,-0.07,-0.97,-0.96,0.31,0.37
5.415,-0.31,0.37,0.74,-0.96,0.31,0.37
5.416,-0.31,0.37,0.74,-0.96,0.31,0.37
5.421,-0.31,0.37,0.74,-0.96,0.31,0.37
5.422,-0.31,0.37,0.74,-0.96,0.31,0.37
5.423,-0.31,0.37,0.74,-0.96,0.31,0.37
5.425,-0.31,0.37,0.74,-0.96,0.31,0.37
5.43,-0.31,0.37,0.74,-1.82,0,0.25
5.431,-0.31,0.37,0.74,-1.82,0,0.25
5.431,-0.7,1.19,1.19,-1.82,0,0.25
5.432,-0.7,1.19,1.19,-1.82,0,0.25
5.452,-0.7,1.19,1.19,-2.17,-0.17,0.22
5.453,-0.7,1.19,1.19,-2.17,-0.17,0.22
5.454,-0.61,1.45,1.31,-2.17,-0.17,0.22
5.454,-0.61,1.45,1.31,-2.17,-0.17,0.22
5.454,-0.61,1.45,1.31,-2.17,-0.17,0.22
5.455,-0.61,1.45,1.31,-2.17,-0.17,0.22
5.455,-0.61,1.45,1.31,-2.17,-0.17,0.22
5.455,-0.61,1.45,1.31,-2.17,-0.17,0.22
5.459,-0.61,1.45,1.31,-1.65,-0.03,0.43
5.46,-0.61,1.45,1.31,-1.65,-0.03,0.43
5.46,-0.06,1.33,1.35,-1.65,-0.03,0.43
5.461,-0.06,1.33,1.35,-1.65,-0.03,0.43
5.468,-0.06,1.33,1.35,-0.66,0.21,0.48
5.469,-0.06,1.33,1.35,-0.66,0.21,0.48
5.469,0.37,0.95,1.26,-0.66,0.21,0.48
5.47,0.37,0.95,1.26,-0.66,0.21,0.48
5.478,0.37,0.95,1.26,-0.66,0.21,0.48
5.478,0.37,0.95,1.26,-0.66,0.21,0.48
5.479,0.37,0.95,1.26,-0.66,0.21,0.48
5.479,0.37,0.95,1.26,-0.66,0.21,0.48
5.488,0.37,0.95,1.26,-0.02,0.05,0.01
5.489,0.37,0.95,1.26,-0.02,0.05,0.01
5.49,1.47,-0.11,1.09,-0.02,0.05,0.01
5.49,1.47,-0.11,1.09,-0.02,0.05,0.01
5.497,1.47,-0.11,1.09,0.12,-0.16,-0.34
5.497,1.47,-0.11,1.09,0.12,-0.16,-0.34
5.498,2.09,-0.53,0.93,0.12,-0.16,-0.34
5.498,2.09,-0.53,0.93,0.12,-0.16,-0.34
5.506,2.09,-0.53,0.93,0.17,-0.42,-0.72
5.507,2.09,-0.53,0.93,0.17,-0.42,-0.72
5.508,2.64,-0.72,0.71,0.17,-0.42,-0.72
5.508,2.64,-0.72,0.71,0.17,-0.42,-0.72
5.517,2.64,-0.72,0.71,0.18,-0.7,-1.12
5.518,2.64,-0.72,0.71,0.18,-0.7,-1.12
5.519,3.05,-0.69,0.55,0.18,-0.7,-1.12
5.52,3.05,-0.69,0.55,0.18,-0.7,-1.12
5.525,3.05,-0.69,0.55,0.15,-0.97,-1.51
5.526,3.05,-0.69,0.55,0.15,-0.97,-1.51
5.527,3.22,-0.46,0.53,0.15,-0.97,-1.51
5.527,3.22,-0.46,0.53,0.15,-0.97,-1.51
5.535,3.22,-0.46,0.53,0.1,-1.22,-1.86
5.536,3.22,-0.46,0.53,0.1,-1.22,-1.86
5.537,3.14,-0.15,0.64,0.1,-1.22,-1.86
5.538,3.14,-0.15,0.64,0.1,-1.22,-1.86
5.545,3.14,-0.15,0.64,0.06,-1.42,-2.13
5.546,3.14,-0.15,0.64,0.06,-1.42,-2.13
5.547,2.85,0.16,0.88,0.06,-1.42,-2.13
5.547,2.85,0.16,0.88,0.06,-1.42,-2.13
5.555,2.85,0.16,0.88,0.06,-1.52,-2.28
5.556,2.85,0.16,0.88,0.06,-1.52,-2.28
5.557,2.36,0.38,1.06,0.06,-1.52,-2.28
5.558,2.36,0.38,1.06,0.06,-1.52,-2.28
5.567,2.36,0.38,1.06,0.12,-1.51,-2.27
5.567,2.36,0.38,1.06,0.12,-1.51,-2.27
5.568,0.72,0.5,1.06,0.12,-1.51,-2.27
5.568,0.72,0.5,1.06,0.12,-1.51,-2.27
5.573,0.72,0.5,1.06,0.22,-1.37,-2.07
5.574,0.72,0.5,1.06,0.22,-1.37,-2.07
5.574,0.46,0.53,0.89,0.22,-1.37,-2.07
5.575,0.46,0.53,0.89,0.22,-1.37,-2.07
5.589,0.46,0.53,0.89,0.34,-1.11,-1.63
5.59,0.46,0.53,0.89,0.34,-1.11,-1.63
5.59,0.05,0.52,0.51,0.34,-1.11,-1.63
5.591,0.05,0.52,0.51,0.34,-1.11,-1.63
5.593,0.05,0.52,0.51,0.41,-0.77,-1
5.594,0.05,0.52,0.51,0.41,-0.77,-1
5.595,-0.26,0.5,0.07,0.41,-0.77,-1
5.595,-0.26,0.5,0.07,0.41,-0.77,-1
5.602,-0.26,0.5,0.07,0.4,-0.44,-0.31
5.603,-0.26,0.5,0.07,0.4,-0.44,-0.31
5.603,-0.28,0.47,-0.35,0.4,-0.44,-0.31
5.604,-0.28,0.47,-0.35,0.4,-0.44,-0.31
5.612,-0.28,0.47,-0.35,0.29,-0.16,0.32
5.613,-0.28,0.47,-0.35,0.29,-0.16,0.32
5.613,0,0.49,-0.7,0.29,-0.16,0.32
5.613,0,0.49,-0.7,0.29,-0.16,0.32
5.621,0,0.49,-0.7,0.29,-0.16,0.32
5.622,0,0.49,-0.7,0.29,-0.16,0.32
5.622,0,0.49,-0.7,0.29,-0.16,0.32
5.623,0,0.49,-0.7,0.29,-0.16,0.32
5.631,0,0.49,-0.7,0.09,0.02,0.8
5.632,0,0.49,-0.7,0.09,0.02,0.8
5.632,1.17,0.55,-1.19,0.09,0.02,0.8
5.633,1.17,0.55,-1.19,0.09,0.02,0.8
5.641,1.17,0.55,-1.19,-0.18,0.06,1.08
5.642,1.17,0.55,-1.19,-0.18,0.06,1.08
5.643,1.78,0.62,-1.43,-0.18,0.06,1.08
5.644,1.78,0.62,-1.43,-0.18,0.06,1.08
5.657,1.78,0.62,-1.43,-0.48,-0.08,1.06
5.658,1.78,0.62,-1.43,-0.48,-0.08,1.06
5.658,2.25,0.75,-1.72,-0.48,-0.08,1.06
5.659,2.25,0.75,-1.72,-0.48,-0.08,1.06
5.66,2.25,0.75,-1.72,-0.79,-0.4,0.76
5.66,2.25,0.75,-1.72,-0.79,-0.4,0.76
5.66,2.49,0.92,-2.11,-0.79,-0.4,0.76
5.661,2.49,0.92,-2.11,-0.79,-0.4,0.76
5.668,2.49,0.92,-2.11,-1.09,-0.84,0.27
5.669,2.49,0.92,-2.11,-1.09,-0.84,0.27
5.67,2.42,1.17,-2.5,-1.09,-0.84,0.27
5.67,2.42,1.17,-2.5,-1.09,-0.84,0.27
5.677,2.42,1.17,-2.5,-1.36,-1.27,-0.27
5.678,2.42,1.17,-2.5,-1.36,-1.27,-0.27
5.679,1.96,1.43,-2.79,-1.36,-1.27,-0.27
5.679,1.96,1.43,-2.79,-1.36,-1.27,-0.27
5.688,1.96,1.43,-2.79,-1.6,-1.64,-0.72
5.689,1.96,1.43,-2.79,-1.6,-1.64,-0.72
5.69,0.42,1.6,-2.8,-1.6,-1.64,-0.72
5.691,0.42,1.6,-2.8,-1.6,-1.64,-0.72
5.697,0.42,1.6,-2.8,-1.83,-1.87,-0.97
5.698,0.42,1.6,-2.8,-1.83,-1.87,-0.97
5.699,-0.12,1.76,-2.5,-1.83,-1.87,-0.97
5.7,-0.12,1.76,-2.5,-1.83,-1.87,-0.97
5.708,-0.12,1.76,-2.5,-2.01,-1.9,-0.89
5.71,-0.12,1.76,-2.5,-2.01,-1.9,-0.89
5.71,-0.81,1.91,-1.92,-2.01,-1.9,-0.89
5.711,-0.81,1.91,-1.92,-2.01,-1.9,-0.89
5.716,-0.81,1.91,-1.92,-2.09,-1.7,-0.47
5.717,-0.81,1.91,-1.92,-2.09,-1.7,-0.47
5.717,-1.46,2.08,-0.44,-2.09,-1.7,-0.47
5.718,-1.46,2.08,-0.44,-2.09,-1.7,-0.47
5.725,-1.46,2.08,-0.44,-1.95,-1.25,0.2
5.726,-1.46,2.08,-0.44,-1.95,-1.25,0.2
5.726,-1.93,2.33,-0.2,-1.95,-1.25,0.2
5.727,-1.93,2.33,-0.2,-1.95,-1.25,0.2
5.735,-1.93,2.33,-0.2,-1.53,-0.53,1
5.735,-1.93,2.33,-0.2,-1.53,-0.53,1
5.736,-2.22,2.64,0.07,-1.53,-0.53,1
5.736,-2.22,2.64,0.07,-1.53,-0.53,1
5.744,-2.22,2.64,0.07,-0.85,0.4,1.82
5.745,-2.22,2.64,0.07,-0.85,0.4,1.82
5.746,-2.31,2.99,0.2,-0.85,0.4,1.82
5.747,-2.31,2.99,0.2,-0.85,0.4,1.82
5.756,-2.31,2.99,0.2,-0.06,1.36,2.56
5.757,-2.31,2.99,0.2,-0.06,1.36,2.56
5.758,-2.21,3.35,0.28,-0.06,1.36,2.56
5.758,-2.21,3.35,0.28,-0.06,1.36,2.56
5.763,-2.21,3.35,0.28,0.68,2.19,3.1
5.765,-2.21,3.35,0.28,0.68,2.19,3.1
5.766,-1.95,3.71,0.4,0.68,2.19,3.1
5.767,-1.95,3.71,0.4,0.68,2.19,3.1
5.773,-1.95,3.71,0.4,1.29,2.78,3.41
5.774,-1.95,3.71,0.4,1.29,2.78,3.41
5.775,-1.54,3.97,0.62,1.29,2.78,3.41
5.775,-1.54,3.97,0.62,1.29,2.78,3.41
5.783,-1.54,3.97,0.62,1.76,3.11,3.49
5.784,-1.54,3.97,0.62,1.76,3.11,3.49
5.785,-0.96,4.11,1.08,1.76,3.11,3.49
5.785,-0.96,4.11,1.08,1.76,3.11,3.49
5.792,-0.96,4.11,1.08,2.12,3.18,3.32
5.793,-0.96,4.11,1.08,2.12,3.18,3.32
5.794,0.52,4.04,1.54,2.12,3.18,3.32
5.795,0.52,4.04,1.54,2.12,3.18,3.32
5.802,0.52,4.04,1.54,2.41,2.98,2.89
5.803,0.52,4.04,1.54,2.41,2.98,2.89
5.804,0.97,3.63,1.9,2.41,2.98,2.89
5.804,0.97,3.63,1.9,2.41,2.98,2.89
5.812,0.97,3.63,1.9,2.41,2.98,2.89
5.813,0.97,3.63,1.9,2.41,2.98,2.89
5.813,0.97,3.63,1.9,2.41,2.98,2.89
5.814,0.97,3.63,1.9,2.41,2.98,2.89
5.82,0.97,3.63,1.9,2.66,2.51,2.14
5.821,0.97,3.63,1.9,2.66,2.51,2.14
5.822,2.11,0.37,1.42,2.66,2.51,2.14
5.823,2.11,0.37,1.42,2.66,2.51,2.14
5.83,2.11,0.37,1.42,2.82,1.78,1.08
5.831,2.11,0.37,1.42,2.82,1.78,1.08
5.831,2.56,-1.17,-0.12,2.82,1.78,1.08
5.832,2.56,-1.17,-0.12,2.82,1.78,1.08
5.84,2.56,-1.17,-0.12,2.71,0.9,-0.21
5.841,2.56,-1.17,-0.12,2.71,0.9,-0.21
5.841,2.87,-1.55,-0.58,2.71,0.9,-0.21
5.842,2.87,-1.55,-0.58,2.71,0.9,-0.21
5.857,2.87,-1.55,-0.58,2.22,0.05,-1.45
5.858,2.87,-1.55,-0.58,2.22,0.05,-1.45
5.858,2.99,-1.57,-0.95,2.22,0.05,-1.45
5.858,2.99,-1.57,-0.95,2.22,0.05,-1.45
5.858,2.99,-1.57,-0.95,1.44,-0.62,-2.4
5.859,2.99,-1.57,-0.95,1.44,-0.62,-2.4
5.859,2.9,-1.13,-1.1,1.44,-0.62,-2.4
5.859,2.9,-1.13,-1.1,1.44,-0.62,-2.4
5.868,2.9,-1.13,-1.1,0.62,-1.05,-2.95
5.869,2.9,-1.13,-1.1,0.62,-1.05,-2.95
5.869,2.63,0.42,-1.04,0.62,-1.05,-2.95
5.869,2.63,0.42,-1.04,0.62,-1.05,-2.95
5.878,2.63,0.42,-1.04,-0.02,-1.28,-3.15
5.879,2.63,0.42,-1.04,-0.02,-1.28,-3.15
5.879,2.25,0.79,-0.91,-0.02,-1.28,-3.15
5.88,2.25,0.79,-0.91,-0.02,-1.28,-3.15
5.888,2.25,0.79,-0.91,-0.45,-1.35,-3.13
5.889,2.25,0.79,-0.91,-0.45,-1.35,-3.13
5.89,1.85,0.94,-0.81,-0.45,-1.35,-3.13
5.891,1.85,0.94,-0.81,-0.45,-1.35,-3.13
5.897,1.85,0.94,-0.81,-0.71,-1.3,-2.93
5.897,1.85,0.94,-0.81,-0.71,-1.3,-2.93
5.898,1.49,0.54,-0.73,-0.71,-1.3,-2.93
5.898,1.49,0.54,-0.73,-0.71,-1.3,-2.93
5.906,1.49,0.54,-0.73,-0.83,-1.16,-2.61
5.908,1.49,0.54,-0.73,-0.83,-1.16,-2.61
5.909,1.19,-1.58,-0.67,-0.83,-1.16,-2.61
5.91,1.19,-1.58,-0.67,-0.83,-1.16,-2.61
5.916,1.19,-1.58,-0.67,-0.88,-0.94,-2.18
5.917,1.19,-1.58,-0.67,-0.88,-0.94,-2.18
5.918,0.94,-4,-0.59,-0.88,-0.94,-2.18
5.919,0.94,-4,-0.59,-0.88,-0.94,-2.18
5.925,0.94,-4,-0.59,-0.86,-0.64,-1.65
5.926,0.94,-4,-0.59,-0.86,-0.64,-1.65
5.927,0.79,-6.3,-0.5,-0.86,-0.64,-1.65
5.927,0.79,-6.3,-0.5,-0.86,-0.64,-1.65
5.934,0.79,-6.3,-0.5,-0.8,-0.31,-1.08
5.935,0.79,-6.3,-0.5,-0.8,-0.31,-1.08
5.935,0.8,-6.84,-0.51,-0.8,-0.31,-1.08
5.936,0.8,-6.84,-0.51,-0.8,-0.31,-1.08
5.944,0.8,-6.84,-0.51,-0.69,-0.15,-0.55
5.945,0.8,-6.84,-0.51,-0.69,-0.15,-0.55
5.946,0.82,-6.99,-0.61,-0.69,-0.15,-0.55
5.947,0.82,-6.99,-0.61,-0.69,-0.15,-0.55
5.956,0.82,-6.99,-0.61,-0.57,-0.06,-0.13
5.958,0.82,-6.99,-0.61,-0.57,-0.06,-0.13
5.959,0.78,-6.57,-0.77,-0.57,-0.06,-0.13
5.96,0.78,-6.57,-0.77,-0.57,-0.06,-0.13
5.963,0.78,-6.57,-0.77,-0.47,0.09,0.14
5.964,0.78,-6.57,-0.77,-0.47,0.09,0.14
5.964,0.53,-4.93,-1.03,-0.47,0.09,0.14
5.965,0.53,-4.93,-1.03,-0.47,0.09,0.14
5.972,0.53,-4.93,-1.03,-0.41,0.15,0.29
5.973,0.53,-4.93,-1.03,-0.41,0.15,0.29
5.973,0.06,-4.5,-1.25,-0.41,0.15,0.29
5.974,0.06,-4.5,-1.25,-0.41,0.15,0.29
5.982,0.06,-4.5,-1.25,-0.41,0.15,0.38
5.983,0.06,-4.5,-1.25,-0.41,0.15,0.38
5.984,-0.51,-4.13,-1.48,-0.41,0.15,0.38
5.984,-0.51,-4.13,-1.48,-0.41,0.15,0.38
5.992,-0.51,-4.13,-1.48,-0.46,0.13,0.45
5.992,-0.51,-4.13,-1.48,-0.46,0.13,0.45
5.993,-1.11,-3.98,-1.66,-0.46,0.13,0.45
5.994,-1.11,-3.98,-1.66,-0.46,0.13,0.45
6.001,-1.11,-3.98,-1.66,-0.54,0.1,0.57
6.002,-1.11,-3.98,-1.66,-0.54,0.1,0.57
6.003,-1.64,-4,-1.7,-0.54,0.1,0.57
6.003,-1.64,-4,-1.7,-0.54,0.1,0.57
6.01,-1.64,-4,-1.7,-0.54,0.1,0.57
6.011,-1.64,-4,-1.7,-0.54,0.1,0.57
6.012,-1.64,-4,-1.7,-0.54,0.1,0.57
6.012,-1.64,-4,-1.7,-0.54,0.1,0.57
6.02,-1.64,-4,-1.7,-0.64,0.1,0.75
6.021,-1.64,-4,-1.7,-0.64,0.1,0.75
6.021,-2.29,-4.43,-1.51,-0.64,0.1,0.75
6.022,-2.29,-4.43,-1.51,-0.64,0.1,0.75
6.03,-2.29,-4.43,-1.51,-0.72,0.15,0.99
6.031,-2.29,-4.43,-1.51,-0.72,0.15,0.99
6.032,-2.34,-4.44,-1.33,-0.72,0.15,0.99
6.032,-2.34,-4.44,-1.33,-0.72,0.15,0.99
6.041,-2.34,-4.44,-1.33,-0.76,0.23,1.25
6.042,-2.34,-4.44,-1.33,-0.76,0.23,1.25
6.043,-2.22,-4.17,-1.24,-0.76,0.23,1.25
6.043,-2.22,-4.17,-1.24,-0.76,0.23,1.25
6.055,-2.22,-4.17,-1.24,-0.73,0.31,1.47
6.056,-2.22,-4.17,-1.24,-0.73,0.31,1.47
6.056,-2.03,-2.39,-1.24,-0.73,0.31,1.47
6.056,-2.03,-2.39,-1.24,-0.73,0.31,1.47
6.058,-2.03,-2.39,-1.24,-0.66,0.35,1.6
6.058,-2.03,-2.39,-1.24,-0.66,0.35,1.6
6.059,-1.83,-1.96,-1.33,-0.66,0.35,1.6
6.059,-1.83,-1.96,-1.33,-0.66,0.35,1.6
6.067,-1.83,-1.96,-1.33,-0.6,0.34,1.63
6.068,-1.83,-1.96,-1.33,-0.6,0.34,1.63
6.068,-1.66,-0.48,-1.48,-0.6,0.34,1.63
6.069,-1.66,-0.48,-1.48,-0.6,0.34,1.63
6.077,-1.66,-0.48,-1.48,-0.57,0.3,1.56
6.078,-1.66,-0.48,-1.48,-0.57,0.3,1.56
6.079,-1.6,-0.01,-1.57,-0.57,0.3,1.56
6.079,-1.6,-0.01,-1.57,-0.57,0.3,1.56
6.088,-1.6,-0.01,-1.57,-0.58,0.24,1.44
6.09,-1.6,-0.01,-1.57,-0.58,0.24,1.44
6.09,-1.63,0.48,-1.57,-0.58,0.24,1.44
6.091,-1.63,0.48,-1.57,-0.58,0.24,1.44
6.096,-1.63,0.48,-1.57,-0.64,0.19,1.3
6.097,-1.63,0.48,-1.57,-0.64,0.19,1.3
6.097,-1.78,0.88,-1.52,-0.64,0.19,1.3
6.098,-1.78,0.88,-1.52,-0.64,0.19,1.3
6.106,-1.78,0.88,-1.52,-0.72,0.13,1.16
6.108,-1.78,0.88,-1.52,-0.72,0.13,1.16
6.108,-2.03,1.11,-1.38,-0.72,0.13,1.16
6.109,-2.03,1.11,-1.38,-0.72,0.13,1.16
6.116,-2.03,1.11,-1.38,-0.8,0.09,1.06
6.117,-2.03,1.11,-1.38,-0.8,0.09,1.06
6.117,-2.25,1.2,-1.25,-0.8,0.09,1.06
6.118,-2.25,1.2,-1.25,-0.8,0.09,1.06
6.124,-2.25,1.2,-1.25,-0.84,0.09,1.01
6.125,-2.25,1.2,-1.25,-0.84,0.09,1.01
6.125,-2.32,1.2,-1.09,-0.84,0.09,1.01
6.126,-2.32,1.2,-1.09,-0.84,0.09,1.01
6.134,-2.32,1.2,-1.09,-0.83,0.11,1.01
6.134,-2.32,1.2,-1.09,-0.83,0.11,1.01
6.135,-2.17,1.18,-0.95,-0.83,0.11,1.01
6.135,-2.17,1.18,-0.95,-0.83,0.11,1.01
6.144,-2.17,1.18,-0.95,-0.78,0.16,1.05
6.145,-2.17,1.18,-0.95,-0.78,0.16,1.05
6.146,-1.84,1.2,-0.85,-0.78,0.16,1.05
6.146,-1.84,1.2,-0.85,-0.78,0.16,1.05
6.155,-1.84,1.2,-0.85,-0.69,0.2,1.06
6.156,-1.84,1.2,-0.85,-0.69,0.2,1.06
6.157,-1.42,1.26,-0.81,-0.69,0.2,1.06
6.157,-1.42,1.26,-0.81,-0.69,0.2,1.06
6.163,-1.42,1.26,-0.81,-0.58,0.22,0.99
6.164,-1.42,1.26,-0.81,-0.58,0.22,0.99
6.165,-1.05,1.35,-0.83,-0.58,0.22,0.99
6.165,-1.05,1.35,-0.83,-0.58,0.22,0.99
6.172,-1.05,1.35,-0.83,-0.48,0.18,0.82
6.173,-1.05,1.35,-0.83,-0.48,0.18,0.82
6.174,-0.76,1.42,-0.84,-0.48,0.18,0.82
6.174,-0.76,1.42,-0.84,-0.48,0.18,0.82
6.183,-0.76,1.42,-0.84,-0.42,0.1,0.55
6.184,-0.76,1.42,-0.84,-0.42,0.1,0.55
6.184,-0.52,1.36,-0.86,-0.42,0.1,0.55
6.185,-0.52,1.36,-0.86,-0.42,0.1,0.55
6.192,-0.52,1.36,-0.86,-0.42,0.1,0.55
6.193,-0.52,1.36,-0.86,-0.42,0.1,0.55
6.193,-0.52,1.36,-0.86,-0.42,0.1,0.55
6.194,-0.52,1.36,-0.86,-0.42,0.1,0.55
6.201,-0.52,1.36,-0.86,-0.38,-0.01,0.22
6.202,-0.52,1.36,-0.86,-0.38,-0.01,0.22
6.203,-0.07,0.91,-0.96,-0.38,-0.01,0.22
6.203,-0.07,0.91,-0.96,-0.38,-0.01,0.22
6.211,-0.07,0.91,-0.96,-0.38,-0.12,-0.13
6.212,-0.07,0.91,-0.96,-0.38,-0.12,-0.13
6.212,0.26,0.64,-1.1,-0.38,-0.12,-0.13
6.213,0.26,0.64,-1.1,-0.38,-0.12,-0.13
6.22,0.26,0.64,-1.1,-0.39,-0.24,-0.49
6.221,0.26,0.64,-1.1,-0.39,-0.24,-0.49
6.222,0.56,0.4,-1.22,-0.39,-0.24,-0.49
6.223,0.56,0.4,-1.22,-0.39,-0.24,-0.49
6.229,0.56,0.4,-1.22,-0.41,-0.35,-0.85
6.23,0.56,0.4,-1.22,-0.41,-0.35,-0.85
6.23,0.81,0.25,-1.26,-0.41,-0.35,-0.85
6.231,0.81,0.25,-1.26,-0.41,-0.35,-0.85
6.239,0.81,0.25,-1.26,-0.44,-0.46,-1.18
6.241,0.81,0.25,-1.26,-0.44,-0.46,-1.18
6.241,0.94,0.2,-1.14,-0.44,-0.46,-1.18
6.242,0.94,0.2,-1.14,-0.44,-0.46,-1.18
6.263,0.94,0.2,-1.14,-0.46,-0.55,-1.46
6.263,0.94,0.2,-1.14,-0.46,-0.55,-1.46
6.264,0.94,0.3,-0.9,-0.46,-0.55,-1.46
6.264,0.94,0.3,-0.9,-0.46,-0.55,-1.46
6.264,0.94,0.3,-0.9,-0.45,-0.62,-1.65
6.265,0.94,0.3,-0.9,-0.45,-0.62,-1.65
6.265,0.86,0.54,-0.69,-0.45,-0.62,-1.65
6.265,0.86,0.54,-0.69,-0.45,-0.62,-1.65
6.27,0.86,0.54,-0.69,-0.4,-0.65,-1.74
6.271,0.86,0.54,-0.69,-0.4,-0.65,-1.74
6.272,0.71,0.9,-0.48,-0.4,-0.65,-1.74
6.272,0.71,0.9,-0.48,-0.4,-0.65,-1.74
6.277,0.71,0.9,-0.48,-0.31,-0.65,-1.72
6.278,0.71,0.9,-0.48,-0.31,-0.65,-1.72
6.279,0.56,1.31,-0.31,-0.31,-0.65,-1.72
6.279,0.56,1.31,-0.31,-0.31,-0.65,-1.72
6.289,0.56,1.31,-0.31,-0.19,-0.61,-1.6
6.29,0.56,1.31,-0.31,-0.19,-0.61,-1.6
6.29,0.45,1.71,-0.18,-0.19,-0.61,-1.6
6.29,0.45,1.71,-0.18,-0.19,-0.61,-1.6
6.296,0.45,1.71,-0.18,-0.07,-0.57,-1.4
6.296,0.45,1.71,-0.18,-0.07,-0.57,-1.4
6.297,0.37,2.07,0,-0.07,-0.57,-1.4
6.297,0.37,2.07,0,-0.07,-0.57,-1.4
6.305,0.37,2.07,0,0.04,-0.54,-1.16
6.306,0.37,2.07,0,0.04,-0.54,-1.16
6.307,0.3,2.41,0.12,0.04,-0.54,-1.16
6.307,0.3,2.41,0.12,0.04,-0.54,-1.16
6.316,0.3,2.41,0.12,0.14,-0.52,-0.9
6.317,0.3,2.41,0.12,0.14,-0.52,-0.9
6.317,0.24,2.67,0.19,0.14,-0.52,-0.9
6.318,0.24,2.67,0.19,0.14,-0.52,-0.9
6.324,0.24,2.67,0.19,0.21,-0.48,-0.64
6.325,0.24,2.67,0.19,0.21,-0.48,-0.64
6.325,0.16,2.88,0.2,0.21,-0.48,-0.64
6.326,0.16,2.88,0.2,0.21,-0.48,-0.64
6.333,0.16,2.88,0.2,0.26,-0.43,-0.39
6.334,0.16,2.88,0.2,0.26,-0.43,-0.39
6.335,0.07,3.01,0.16,0.26,-0.43,-0.39
6.335,0.07,3.01,0.16,0.26,-0.43,-0.39
6.343,0.07,3.01,0.16,0.28,-0.37,-0.15
6.344,0.07,3.01,0.16,0.28,-0.37,-0.15
6.344,0.01,3.09,0.11,0.28,-0.37,-0.15
6.345,0.01,3.09,0.11,0.28,-0.37,-0.15
6.354,0.01,3.09,0.11,0.26,-0.32,0.07
6.355,0.01,3.09,0.11,0.26,-0.32,0.07
6.356,-0.03,3.13,0.09,0.26,-0.32,0.07
6.356,-0.03,3.13,0.09,0.26,-0.32,0.07
6.363,-0.03,3.13,0.09,0.2,-0.28,0.27
6.364,-0.03,3.13,0.09,0.2,-0.28,0.27
6.364,-0.1,3.14,0.1,0.2,-0.28,0.27
6.365,-0.1,3.14,0.1,0.2,-0.28,0.27
6.375,-0.1,3.14,0.1,0.12,-0.25,0.45
6.376,-0.1,3.14,0.1,0.12,-0.25,0.45
6.376,-0.15,3.18,0.16,0.12,-0.25,0.45
6.377,-0.15,3.18,0.16,0.12,-0.25,0.45
6.383,-0.15,3.18,0.16,0.03,-0.22,0.6
6.383,-0.15,3.18,0.16,0.03,-0.22,0.6
6.384,-0.22,3.2,0.22,0.03,-0.22,0.6
6.384,-0.22,3.2,0.22,0.03,-0.22,0.6
6.392,-0.22,3.2,0.22,0.03,-0.22,0.6
6.392,-0.22,3.2,0.22,0.03,-0.22,0.6
6.393,-0.22,3.2,0.22,0.03,-0.22,0.6
6.393,-0.22,3.2,0.22,0.03,-0.22,0.6
6.403,-0.22,3.2,0.22,-0.1,-0.14,0.87
6.405,-0.22,3.2,0.22,-0.1,-0.14,0.87
6.405,-0.35,3.23,0.3,-0.1,-0.14,0.87
6.406,-0.35,3.23,0.3,-0.1,-0.14,0.87
6.41,-0.35,3.23,0.3,-0.1,-0.14,0.87
6.41,-0.35,3.23,0.3,-0.1,-0.14,0.87
6.411,-0.35,3.23,0.3,-0.1,-0.14,0.87
6.412,-0.35,3.23,0.3,-0.1,-0.14,0.87
6.42,-0.35,3.23,0.3,-0.12,-0.08,1.01
6.421,-0.35,3.23,0.3,-0.12,-0.08,1.01
6.422,-0.43,2.99,0.25,-0.12,-0.08,1.01
6.423,-0.43,2.99,0.25,-0.12,-0.08,1.01
6.429,-0.43,2.99,0.25,-0.13,-0.01,1.12
6.43,-0.43,2.99,0.25,-0.13,-0.01,1.12
6.43,-0.32,2.66,0.25,-0.13,-0.01,1.12
6.43,-0.32,2.66,0.25,-0.13,-0.01,1.12
6.452,-0.32,2.66,0.25,-0.13,0.05,1.19
6.453,-0.32,2.66,0.25,-0.13,0.05,1.19
6.453,-0.1,2.17,0.23,-0.13,0.05,1.19
6.453,-0.1,2.17,0.23,-0.13,0.05,1.19
6.454,-0.1,2.17,0.23,-0.09,0.13,1.08
6.454,-0.1,2.17,0.23,-0.09,0.13,1.08
6.454,0.23,0.53,0.21,-0.09,0.13,1.08
6.455,0.23,0.53,0.21,-0.09,0.13,1.08
6.458,0.23,0.53,0.21,-0.09,0.13,1.08
6.458,0.23,0.53,0.21,-0.09,0.13,1.08
6.459,0.23,0.53,0.21,-0.09,0.13,1.08
6.459,0.23,0.53,0.21,-0.09,0.13,1.08
6.469,0.23,0.53,0.21,0.08,0.1,0.39
6.47,0.23,0.53,0.21,0.08,0.1,0.39
6.47,1.23,-0.1,-0.18,0.08,0.1,0.39
6.47,1.23,-0.1,-0.18,0.08,0.1,0.39
6.476,1.23,-0.1,-0.18,0.08,0.1,0.39
6.477,1.23,-0.1,-0.18,0.08,0.1,0.39
6.477,1.23,-0.1,-0.18,0.08,0.1,0.39
6.477,1.23,-0.1,-0.18,0.08,0.1,0.39
6.486,1.23,-0.1,-0.18,0.05,-0.16,-0.8
6.487,1.23,-0.1,-0.18,0.05,-0.16,-0.8
6.488,1.98,-0.52,-0.79,0.05,-0.16,-0.8
6.488,1.98,-0.52,-0.79,0.05,-0.16,-0.8
6.496,1.98,-0.52,-0.79,-0.09,-0.33,-1.34
6.497,1.98,-0.52,-0.79,-0.09,-0.33,-1.34
6.497,2,-0.43,-0.89,-0.09,-0.33,-1.34
6.497,2,-0.43,-0.89,-0.09,-0.33,-1.34
6.506,2,-0.43,-0.89,-0.25,-0.37,-1.7
6.507,2,-0.43,-0.89,-0.25,-0.37,-1.7
6.507,1.78,-0.11,-0.84,-0.25,-0.37,-1.7
6.508,1.78,-0.11,-0.84,-0.25,-0.37,-1.7
6.515,1.78,-0.11,-0.84,-0.39,-0.3,-1.94
6.516,1.78,-0.11,-0.84,-0.39,-0.3,-1.94
6.517,1.36,0.33,-0.71,-0.39,-0.3,-1.94
6.517,1.36,0.33,-0.71,-0.39,-0.3,-1.94
6.524,1.36,0.33,-0.71,-0.48,-0.24,-2.02
6.525,1.36,0.33,-0.71,-0.48,-0.24,-2.02
6.525,0.83,0.79,-0.61,-0.48,-0.24,-2.02
6.526,0.83,0.79,-0.61,-0.48,-0.24,-2.02
6.533,0.83,0.79,-0.61,-0.53,-0.19,-1.93
6.534,0.83,0.79,-0.61,-0.53,-0.19,-1.93
6.535,0.27,1.23,-0.6,-0.53,-0.19,-1.93
6.535,0.27,1.23,-0.6,-0.53,-0.19,-1.93
6.543,0.27,1.23,-0.6,-0.55,-0.22,-1.67
6.544,0.27,1.23,-0.6,-0.55,-0.22,-1.67
6.545,-0.27,1.58,-0.68,-0.55,-0.22,-1.67
6.545,-0.27,1.58,-0.68,-0.55,-0.22,-1.67
6.554,-0.27,1.58,-0.68,-0.57,-0.32,-1.28
6.555,-0.27,1.58,-0.68,-0.57,-0.32,-1.28
6.555,-0.73,1.83,-0.83,-0.57,-0.32,-1.28
6.556,-0.73,1.83,-0.83,-0.57,-0.32,-1.28
6.564,-0.73,1.83,-0.83,-0.59,-0.38,-0.79
6.565,-0.73,1.83,-0.83,-0.59,-0.38,-0.79
6.565,-1.08,1.95,-0.97,-0.59,-0.38,-0.79
6.566,-1.08,1.95,-0.97,-0.59,-0.38,-0.79
6.577,-1.08,1.95,-0.97,-0.65,-0.4,-0.24
6.578,-1.08,1.95,-0.97,-0.65,-0.4,-0.24
6.578,-1.29,1.93,-0.95,-0.65,-0.4,-0.24
6.579,-1.29,1.93,-0.95,-0.65,-0.4,-0.24
6.585,-1.29,1.93,-0.95,-0.73,-0.41,0.31
6.585,-1.29,1.93,-0.95,-0.73,-0.41,0.31
6.586,-1.33,1.77,-0.75,-0.73,-0.41,0.31
6.586,-1.33,1.77,-0.75,-0.73,-0.41,0.31
6.591,-1.33,1.77,-0.75,-0.73,-0.41,0.31
6.592,-1.33,1.77,-0.75,-0.73,-0.41,0.31
6.592,-1.33,1.77,-0.75,-0.73,-0.41,0.31
6.593,-1.33,1.77,-0.75,-0.73,-0.41,0.31
6.601,-1.33,1.77,-0.75,-0.8,-0.41,0.8
6.603,-1.33,1.77,-0.75,-0.8,-0.41,0.8
6.604,-1.07,1.19,0.19,-0.8,-0.41,0.8
6.604,-1.07,1.19,0.19,-0.8,-0.41,0.8
6.609,-1.07,1.19,0.19,-0.77,-0.38,1.18
6.61,-1.07,1.19,0.19,-0.77,-0.38,1.18
6.611,-0.87,0.91,0.64,-0.77,-0.38,1.18
6.612,-0.87,0.91,0.64,-0.77,-0.38,1.18
6.619,-0.87,0.91,0.64,-0.57,-0.29,1.41
6.62,-0.87,0.91,0.64,-0.57,-0.29,1.41
6.621,-0.7,0.72,0.91,-0.57,-0.29,1.41
6.622,-0.7,0.72,0.91,-0.57,-0.29,1.41
6.629,-0.7,0.72,0.91,-0.16,-0.16,1.46
6.63,-0.7,0.72,0.91,-0.16,-0.16,1.46
6.631,-0.59,0.62,0.98,-0.16,-0.16,1.46
6.631,-0.59,0.62,0.98,-0.16,-0.16,1.46
6.639,-0.59,0.62,0.98,0.33,-0.02,1.37
6.641,-0.59,0.62,0.98,0.33,-0.02,1.37
6.641,-0.53,0.64,0.92,0.33,-0.02,1.37
6.642,-0.53,0.64,0.92,0.33,-0.02,1.37
6.653,-0.53,0.64,0.92,0.77,0.07,1.19
6.655,-0.53,0.64,0.92,0.77,0.07,1.19
6.656,-0.52,0.68,0.76,0.77,0.07,1.19
6.656,-0.52,0.68,0.76,0.77,0.07,1.19
6.66,-0.52,0.68,0.76,1.08,0.1,0.98
6.66,-0.52,0.68,0.76,1.08,0.1,0.98
6.661,-0.49,0.75,0.58,1.08,0.1,0.98
6.661,-0.49,0.75,0.58,1.08,0.1,0.98
6.666,-0.49,0.75,0.58,1.22,0.08,0.77
6.667,-0.49,0.75,0.58,1.22,0.08,0.77
6.667,-0.48,0.82,0.36,1.22,0.08,0.77
6.668,-0.48,0.82,0.36,1.22,0.08,0.77
6.676,-0.48,0.82,0.36,1.21,0.04,0.6
6.677,-0.48,0.82,0.36,1.21,0.04,0.6
6.677,-0.44,0.87,0.18,1.21,0.04,0.6
6.677,-0.44,0.87,0.18,1.21,0.04,0.6
6.686,-0.44,0.87,0.18,1.09,-0.03,0.46
6.687,-0.44,0.87,0.18,1.09,-0.03,0.46
6.687,-0.36,0.96,0.08,1.09,-0.03,0.46
6.687,-0.36,0.96,0.08,1.09,-0.03,0.46
6.695,-0.36,0.96,0.08,0.88,-0.13,0.34
6.696,-0.36,0.96,0.08,0.88,-0.13,0.34
6.696,-0.23,1.06,0.06,0.88,-0.13,0.34
6.697,-0.23,1.06,0.06,0.88,-0.13,0.34
6.705,-0.23,1.06,0.06,0.65,-0.23,0.24
6.706,-0.23,1.06,0.06,0.65,-0.23,0.24
6.706,-0.06,1.11,0.17,0.65,-0.23,0.24
6.706,-0.06,1.11,0.17,0.65,-0.23,0.24
6.715,-0.06,1.11,0.17,0.42,-0.32,0.14
6.716,-0.06,1.11,0.17,0.42,-0.32,0.14
6.716,0.11,0.89,0.36,0.42,-0.32,0.14
6.717,0.11,0.89,0.36,0.42,-0.32,0.14
6.724,0.11,0.89,0.36,0.26,-0.4,0.02
6.724,0.11,0.89,0.36,0.26,-0.4,0.02
6.725,0.22,-0.86,0.55,0.26,-0.4,0.02
6.725,0.22,-0.86,0.55,0.26,-0.4,0.02
6.733,0.22,-0.86,0.55,0.18,-0.44,-0.12
6.734,0.22,-0.86,0.55,0.18,-0.44,-0.12
6.735,0.18,-2.85,0.73,0.18,-0.44,-0.12
6.735,0.18,-2.85,0.73,0.18,-0.44,-0.12
6.743,0.18,-2.85,0.73,0.22,-0.45,-0.27
6.744,0.18,-2.85,0.73,0.22,-0.45,-0.27
6.744,0.07,-4.74,0.93,0.22,-0.45,-0.27
6.745,0.07,-4.74,0.93,0.22,-0.45,-0.27
6.754,0.07,-4.74,0.93,0.38,-0.41,-0.41
6.755,0.07,-4.74,0.93,0.38,-0.41,-0.41
6.756,-0.03,-5.12,1.11,0.38,-0.41,-0.41
6.756,-0.03,-5.12,1.11,0.38,-0.41,-0.41
6.764,-0.03,-5.12,1.11,0.61,-0.31,-0.52
6.765,-0.03,-5.12,1.11,0.61,-0.31,-0.52
6.766,-0.1,-5.37,1.4,0.61,-0.31,-0.52
6.767,-0.1,-5.37,1.4,0.61,-0.31,-0.52
6.772,-0.1,-5.37,1.4,0.84,-0.2,-0.55
6.773,-0.1,-5.37,1.4,0.84,-0.2,-0.55
6.773,-0.13,-5.09,1.82,0.84,-0.2,-0.55
6.773,-0.13,-5.09,1.82,0.84,-0.2,-0.55
6.782,-0.13,-5.09,1.82,0.84,-0.2,-0.55
6.782,-0.13,-5.09,1.82,0.84,-0.2,-0.55
6.783,-0.13,-5.09,1.82,0.84,-0.2,-0.55
6.783,-0.13,-5.09,1.82,0.84,-0.2,-0.55
6.791,-0.13,-5.09,1.82,1.03,-0.07,-0.52
6.791,-0.13,-5.09,1.82,1.03,-0.07,-0.52
6.792,-0.57,-1.69,3.03,1.03,-0.07,-0.52
6.792,-0.57,-1.69,3.03,1.03,-0.07,-0.52
6.8,-0.57,-1.69,3.03,1.2,0.06,-0.44
6.801,-0.57,-1.69,3.03,1.2,0.06,-0.44
6.801,-1.06,-1.52,3.55,1.2,0.06,-0.44
6.802,-1.06,-1.52,3.55,1.2,0.06,-0.44
6.81,-1.06,-1.52,3.55,1.41,0.24,-0.29
6.811,-1.06,-1.52,3.55,1.41,0.24,-0.29
6.811,-2.5,-1.52,3.84,1.41,0.24,-0.29
6.811,-2.5,-1.52,3.84,1.41,0.24,-0.29
6.819,-2.5,-1.52,3.84,1.68,0.48,-0.03
6.819,-2.5,-1.52,3.84,1.68,0.48,-0.03
6.82,-2.94,-2.02,3.8,1.68,0.48,-0.03
6.82,-2.94,-2.02,3.8,1.68,0.48,-0.03
6.829,-2.94,-2.02,3.8,1.99,0.81,0.37
6.829,-2.94,-2.02,3.8,1.99,0.81,0.37
6.83,-3.52,-4.07,3.47,1.99,0.81,0.37
6.831,-3.52,-4.07,3.47,1.99,0.81,0.37
6.839,-3.52,-4.07,3.47,2.25,1.18,0.84
6.84,-3.52,-4.07,3.47,2.25,1.18,0.84
6.84,-3.97,-5.55,3,2.25,1.18,0.84
6.841,-3.97,-5.55,3,2.25,1.18,0.84
6.861,-3.97,-5.55,3,2.36,1.54,1.29
6.861,-3.97,-5.55,3,2.36,1.54,1.29
6.862,-3.97,-5.73,2.39,2.36,1.54,1.29
6.863,-3.97,-5.73,2.39,2.36,1.54,1.29
6.863,-3.97,-5.73,2.39,2.28,1.8,1.61
6.863,-3.97,-5.73,2.39,2.28,1.8,1.61
6.864,-2.3,-5.52,0.88,2.28,1.8,1.61
6.864,-2.3,-5.52,0.88,2.28,1.8,1.61
6.869,-2.3,-5.52,0.88,1.98,1.93,1.73
6.87,-2.3,-5.52,0.88,1.98,1.93,1.73
6.871,-0.24,-3.5,0.54,1.98,1.93,1.73
6.871,-0.24,-3.5,0.54,1.98,1.93,1.73
6.876,-0.24,-3.5,0.54,1.51,1.88,1.6
6.877,-0.24,-3.5,0.54,1.51,1.88,1.6
6.877,1.78,-2.96,0.3,1.51,1.88,1.6
6.877,1.78,-2.96,0.3,1.51,1.88,1.6
6.886,1.78,-2.96,0.3,0.91,1.6,1.19
6.887,1.78,-2.96,0.3,0.91,1.6,1.19
6.888,2.29,-1.3,0.49,0.91,1.6,1.19
6.888,2.29,-1.3,0.49,0.91,1.6,1.19
6.896,2.29,-1.3,0.49,0.32,1.11,0.53
6.897,2.29,-1.3,0.49,0.32,1.11,0.53
6.897,3.77,-0.89,2.34,0.32,1.11,0.53
6.898,3.77,-0.89,2.34,0.32,1.11,0.53
6.905,3.77,-0.89,2.34,-0.13,0.51,-0.29
6.906,3.77,-0.89,2.34,-0.13,0.51,-0.29
6.907,3.93,-0.35,2.73,-0.13,0.51,-0.29
6.907,3.93,-0.35,2.73,-0.13,0.51,-0.29
6.915,3.93,-0.35,2.73,-0.3,-0.06,-1.14
6.916,3.93,-0.35,2.73,-0.3,-0.06,-1.14
6.917,3.92,0.13,3.34,-0.3,-0.06,-1.14
6.917,3.92,0.13,3.34,-0.3,-0.06,-1.14
6.923,3.92,0.13,3.34,-0.16,-0.51,-1.93
6.924,3.92,0.13,3.34,-0.16,-0.51,-1.93
6.924,3.7,0.48,3.92,-0.16,-0.51,-1.93
6.925,3.7,0.48,3.92,-0.16,-0.51,-1.93
6.933,3.7,0.48,3.92,0.22,-0.77,-2.57
6.933,3.7,0.48,3.92,0.22,-0.77,-2.57
6.933,3.33,0.71,5.69,0.22,-0.77,-2.57
6.933,3.33,0.71,5.69,0.22,-0.77,-2.57
6.943,3.33,0.71,5.69,0.74,-0.84,-2.98
6.944,3.33,0.71,5.69,0.74,-0.84,-2.98
6.944,2.86,0.72,5.94,0.74,-0.84,-2.98
6.945,2.86,0.72,5.94,0.74,-0.84,-2.98
6.954,2.86,0.72,5.94,1.38,-0.72,-3.14
6.955,2.86,0.72,5.94,1.38,-0.72,-3.14
6.956,2.29,0.61,6.24,1.38,-0.72,-3.14
6.956,2.29,0.61,6.24,1.38,-0.72,-3.14
6.963,2.29,0.61,6.24,2.09,-0.48,-3.07
6.964,2.29,0.61,6.24,2.09,-0.48,-3.07
6.964,1.71,0.49,6.18,2.09,-0.48,-3.07
6.965,1.71,0.49,6.18,2.09,-0.48,-3.07
6.975,1.71,0.49,6.18,2.74,-0.18,-2.8
6.976,1.71,0.49,6.18,2.74,-0.18,-2.8
6.976,1.16,0.38,5.59,2.74,-0.18,-2.8
6.976,1.16,0.38,5.59,2.74,-0.18,-2.8
6.983,1.16,0.38,5.59,2.74,-0.18,-2.8
6.984,1.16,0.38,5.59,2.74,-0.18,-2.8
6.984,1.16,0.38,5.59,2.74,-0.18,-2.8
6.984,1.16,0.38,5.59,2.74,-0.18,-2.8
6.991,1.16,0.38,5.59,3.17,0.12,-2.38
6.991,1.16,0.38,5.59,3.17,0.12,-2.38
6.992,0.28,0.34,3.09,3.17,0.12,-2.38
6.992,0.28,0.34,3.09,3.17,0.12,-2.38
7,0.28,0.34,3.09,3.28,0.4,-1.84
7.001,0.28,0.34,3.09,3.28,0.4,-1.84
7.002,-0.12,0.34,2.53,3.28,0.4,-1.84
7.003,-0.12,0.34,2.53,3.28,0.4,-1.84
7.01,-0.12,0.34,2.53,2.97,0.61,-1.22
7.011,-0.12,0.34,2.53,2.97,0.61,-1.22
7.011,-0.42,0.37,2.1,2.97,0.61,-1.22
7.012,-0.42,0.37,2.1,2.97,0.61,-1.22
7.019,-0.42,0.37,2.1,2.31,0.77,-0.57
7.02,-0.42,0.37,2.1,2.31,0.77,-0.57
7.021,-0.58,0.47,1.77,2.31,0.77,-0.57
7.021,-0.58,0.47,1.77,2.31,0.77,-0.57
7.028,-0.58,0.47,1.77,1.49,0.87,0.06
7.029,-0.58,0.47,1.77,1.49,0.87,0.06
7.029,-0.6,0.67,1.5,1.49,0.87,0.06
7.03,-0.6,0.67,1.5,1.49,0.87,0.06
7.038,-0.6,0.67,1.5,0.72,0.94,0.58
7.039,-0.6,0.67,1.5,0.72,0.94,0.58
7.039,-0.47,0.86,1.23,0.72,0.94,0.58
7.04,-0.47,0.86,1.23,0.72,0.94,0.58
7.064,-0.47,0.86,1.23,0.1,0.98,0.96
7.065,-0.47,0.86,1.23,0.1,0.98,0.96
7.065,-0.25,0.96,1.06,0.1,0.98,0.96
7.065,-0.25,0.96,1.06,0.1,0.98,0.96
7.065,-0.25,0.96,1.06,-0.38,0.98,1.2
7.066,-0.25,0.96,1.06,-0.38,0.98,1.2
7.066,-0.03,0.88,0.96,-0.38,0.98,1.2
7.066,-0.03,0.88,0.96,-0.38,0.98,1.2
7.067,-0.03,0.88,0.96,-0.72,0.92,1.29
7.067,-0.03,0.88,0.96,-0.72,0.92,1.29
7.067,0.17,0.61,0.91,-0.72,0.92,1.29
7.067,0.17,0.61,0.91,-0.72,0.92,1.29
7.076,0.17,0.61,0.91,-0.96,0.82,1.24
7.076,0.17,0.61,0.91,-0.96,0.82,1.24
7.077,0.36,0.26,0.89,-0.96,0.82,1.24
7.077,0.36,0.26,0.89,-0.96,0.82,1.24
7.085,0.36,0.26,0.89,-1.11,0.67,1.1
7.087,0.36,0.26,0.89,-1.11,0.67,1.1
7.087,0.54,-0.02,0.81,-1.11,0.67,1.1
7.087,0.54,-0.02,0.81,-1.11,0.67,1.1
7.095,0.54,-0.02,0.81,-1.17,0.5,0.89
7.096,0.54,-0.02,0.81,-1.17,0.5,0.89
7.096,0.73,-0.15,0.66,-1.17,0.5,0.89
7.096,0.73,-0.15,0.66,-1.17,0.5,0.89
7.104,0.73,-0.15,0.66,-1.17,0.31,0.65
7.105,0.73,-0.15,0.66,-1.17,0.31,0.65
7.105,0.94,-0.12,0.49,-1.17,0.31,0.65
7.106,0.94,-0.12,0.49,-1.17,0.31,0.65
7.115,0.94,-0.12,0.49,-1.15,0.11,0.39
7.116,0.94,-0.12,0.49,-1.15,0.11,0.39
7.117,1.15,-0.02,0.33,-1.15,0.11,0.39
7.117,1.15,-0.02,0.33,-1.15,0.11,0.39
7.124,1.15,-0.02,0.33,-1.11,-0.08,0.13
7.124,1.15,-0.02,0.33,-1.11,-0.08,0.13
7.125,1.29,0.04,0.24,-1.11,-0.08,0.13
7.125,1.29,0.04,0.24,-1.11,-0.08,0.13
7.133,1.29,0.04,0.24,-1.08,-0.28,-0.11
7.134,1.29,0.04,0.24,-1.08,-0.28,-0.11
7.135,1.39,-0.03,0.2,-1.08,-0.28,-0.11
7.135,1.39,-0.03,0.2,-1.08,-0.28,-0.11
7.142,1.39,-0.03,0.2,-1.04,-0.46,-0.34
7.143,1.39,-0.03,0.2,-1.04,-0.46,-0.34
7.143,1.43,-0.17,0.19,-1.04,-0.46,-0.34
7.144,1.43,-0.17,0.19,-1.04,-0.46,-0.34
7.151,1.43,-0.17,0.19,-0.98,-0.62,-0.53
7.152,1.43,-0.17,0.19,-0.98,-0.62,-0.53
7.152,1.41,-0.37,0.14,-0.98,-0.62,-0.53
7.153,1.41,-0.37,0.14,-0.98,-0.62,-0.53
7.162,1.41,-0.37,0.14,-0.91,-0.75,-0.68
7.162,1.41,-0.37,0.14,-0.91,-0.75,-0.68
7.163,1.3,-0.53,-0.02,-0.91,-0.75,-0.68
7.164,1.3,-0.53,-0.02,-0.91,-0.75,-0.68
7.174,1.3,-0.53,-0.02,-0.83,-0.84,-0.78
7.176,1.3,-0.53,-0.02,-0.83,-0.84,-0.78
7.176,1.07,-0.57,-0.26,-0.83,-0.84,-0.78
7.176,1.07,-0.57,-0.26,-0.83,-0.84,-0.78
7.189,1.07,-0.57,-0.26,-0.83,-0.84,-0.78
7.191,1.07,-0.57,-0.26,-0.83,-0.84,-0.78
7.191,1.07,-0.57,-0.26,-0.83,-0.84,-0.78
7.191,1.07,-0.57,-0.26,-0.83,-0.84,-0.78
7.193,1.07,-0.57,-0.26,-0.75,-0.89,-0.81
7.194,1.07,-0.57,-0.26,-0.75,-0.89,-0.81
7.194,0.45,-0.36,-0.6,-0.75,-0.89,-0.81
7.195,0.45,-0.36,-0.6,-0.75,-0.89,-0.81
7.199,0.45,-0.36,-0.6,-0.71,-0.88,-0.76
7.2,0.45,-0.36,-0.6,-0.71,-0.88,-0.76
7.2,0.15,-0.12,-0.65,-0.71,-0.88,-0.76
7.2,0.15,-0.12,-0.65,-0.71,-0.88,-0.76
7.209,0.15,-0.12,-0.65,-0.72,-0.83,-0.62
7.21,0.15,-0.12,-0.65,-0.72,-0.83,-0.62
7.21,-0.05,0.12,-0.49,-0.72,-0.83,-0.62
7.211,-0.05,0.12,-0.49,-0.72,-0.83,-0.62
7.219,-0.05,0.12,-0.49,-0.74,-0.73,-0.39
7.22,-0.05,0.12,-0.49,-0.74,-0.73,-0.39
7.22,-0.14,0.38,-0.18,-0.74,-0.73,-0.39
7.22,-0.14,0.38,-0.18,-0.74,-0.73,-0.39
7.229,-0.14,0.38,-0.18,-0.73,-0.59,-0.12
7.23,-0.14,0.38,-0.18,-0.73,-0.59,-0.12
7.23,-0.15,0.6,0.24,-0.73,-0.59,-0.12
7.23,-0.15,0.6,0.24,-0.73,-0.59,-0.12
7.238,-0.15,0.6,0.24,-0.62,-0.42,0.12
7.239,-0.15,0.6,0.24,-0.62,-0.42,0.12
7.24,-0.06,0.77,0.72,-0.62,-0.42,0.12
7.24,-0.06,0.77,0.72,-0.62,-0.42,0.12
7.264,-0.06,0.77,0.72,-0.4,-0.23,0.31
7.265,-0.06,0.77,0.72,-0.4,-0.23,0.31
7.265,0.14,0.9,1.07,-0.4,-0.23,0.31
7.265,0.14,0.9,1.07,-0.4,-0.23,0.31
7.266,0.14,0.9,1.07,-0.08,-0.03,0.41
7.266,0.14,0.9,1.07,-0.08,-0.03,0.41
7.266,0.37,0.95,1.22,-0.08,-0.03,0.41
7.266,0.37,0.95,1.22,-0.08,-0.03,0.41
7.267,0.37,0.95,1.22,0.31,0.13,0.42
7.267,0.37,0.95,1.22,0.31,0.13,0.42
7.267,0.63,0.97,1.13,0.31,0.13,0.42
7.267,0.63,0.97,1.13,0.31,0.13,0.42
7.275,0.63,0.97,1.13,0.69,0.23,0.35
7.276,0.63,0.97,1.13,0.69,0.23,0.35
7.276,0.82,0.94,0.8,0.69,0.23,0.35
7.277,0.82,0.94,0.8,0.69,0.23,0.35
7.285,0.82,0.94,0.8,0.99,0.22,0.2
7.286,0.82,0.94,0.8,0.99,0.22,0.2
7.286,0.9,0.82,0.33,0.99,0.22,0.2
7.286,0.9,0.82,0.33,0.99,0.22,0.2
7.294,0.9,0.82,0.33,1.13,0.13,0.02
7.295,0.9,0.82,0.33,1.13,0.13,0.02
7.295,0.93,0.62,-1.63,1.13,0.13,0.02
7.295,0.93,0.62,-1.63,1.13,0.13,0.02
7.304,0.93,0.62,-1.63,1.03,-0.06,-0.15
7.305,0.93,0.62,-1.63,1.03,-0.06,-0.15
7.306,0.92,0.33,-3.26,1.03,-0.06,-0.15
7.306,0.92,0.33,-3.26,1.03,-0.06,-0.15
7.315,0.92,0.33,-3.26,0.59,-0.34,-0.28
7.316,0.92,0.33,-3.26,0.59,-0.34,-0.28
7.316,0.94,0.05,-4.89,0.59,-0.34,-0.28
7.316,0.94,0.05,-4.89,0.59,-0.34,-0.28
7.323,0.94,0.05,-4.89,-0.26,-0.77,-0.36
7.323,0.94,0.05,-4.89,-0.26,-0.77,-0.36
7.324,0.95,-0.04,-5.17,-0.26,-0.77,-0.36
7.324,0.95,-0.04,-5.17,-0.26,-0.77,-0.36
7.333,0.95,-0.04,-5.17,-1.39,-1.35,-0.41
7.333,0.95,-0.04,-5.17,-1.39,-1.35,-0.41
7.333,0.9,0.14,-5.16,-1.39,-1.35,-0.41
7.334,0.9,0.14,-5.16,-1.39,-1.35,-0.41
7.342,0.9,0.14,-5.16,-2.53,-2,-0.48
7.342,0.9,0.14,-5.16,-2.53,-2,-0.48
7.343,0.8,0.6,-3.29,-2.53,-2,-0.48
7.344,0.8,0.6,-3.29,-2.53,-2,-0.48
7.351,0.8,0.6,-3.29,-3.34,-2.53,-0.57
7.352,0.8,0.6,-3.29,-3.34,-2.53,-0.57
7.353,0.68,2.35,-1.53,-3.34,-2.53,-0.57
7.353,0.68,2.35,-1.53,-3.34,-2.53,-0.57
7.361,0.68,2.35,-1.53,-3.59,-2.72,-0.64
7.362,0.68,2.35,-1.53,-3.59,-2.72,-0.64
7.362,0.51,2.53,-1.18,-3.59,-2.72,-0.64
7.362,0.51,2.53,-1.18,-3.59,-2.72,-0.64
7.371,0.51,2.53,-1.18,-3.59,-2.72,-0.64
7.372,0.51,2.53,-1.18,-3.59,-2.72,-0.64
7.372,0.51,2.53,-1.18,-3.59,-2.72,-0.64
7.372,0.51,2.53,-1.18,-3.59,-2.72,-0.64
7.381,0.51,2.53,-1.18,-3.28,-2.48,-0.62
7.382,0.51,2.53,-1.18,-3.28,-2.48,-0.62
7.383,-0.33,2.83,-0.41,-3.28,-2.48,-0.62
7.383,-0.33,2.83,-0.41,-3.28,-2.48,-0.62
7.39,-0.33,2.83,-0.41,-2.58,-1.9,-0.5
7.391,-0.33,2.83,-0.41,-2.58,-1.9,-0.5
7.391,-1.85,2.72,0.08,-2.58,-1.9,-0.5
7.392,-1.85,2.72,0.08,-2.58,-1.9,-0.5
7.4,-1.85,2.72,0.08,-1.71,-1.14,-0.2
7.401,-1.85,2.72,0.08,-1.71,-1.14,-0.2
7.401,-2.35,2.47,1.77,-1.71,-1.14,-0.2
7.402,-2.35,2.47,1.77,-1.71,-1.14,-0.2
7.409,-2.35,2.47,1.77,-0.76,-0.22,0.35
7.41,-2.35,2.47,1.77,-0.76,-0.22,0.35
7.411,-2.83,2.22,2,-0.76,-0.22,0.35
7.411,-2.83,2.22,2,-0.76,-0.22,0.35
7.419,-2.83,2.22,2,0.31,0.85,1.12
7.42,-2.83,2.22,2,0.31,0.85,1.12
7.42,-3.08,2.03,2.29,0.31,0.85,1.12
7.421,-3.08,2.03,2.29,0.31,0.85,1.12
7.428,-3.08,2.03,2.29,1.47,1.96,1.9
7.429,-3.08,2.03,2.29,1.47,1.96,1.9
7.43,-2.97,1.9,2.44,1.47,1.96,1.9
7.43,-2.97,1.9,2.44,1.47,1.96,1.9
7.451,-2.97,1.9,2.44,2.54,2.84,2.47
7.452,-2.97,1.9,2.44,2.54,2.84,2.47
7.453,-2.45,1.86,2.32,2.54,2.84,2.47
7.453,-2.45,1.86,2.32,2.54,2.84,2.47
7.453,-2.45,1.86,2.32,3.34,3.33,2.73
7.454,-2.45,1.86,2.32,3.34,3.33,2.73
7.454,-0.73,1.81,1.92,3.34,3.33,2.73
7.455,-0.73,1.81,1.92,3.34,3.33,2.73
7.457,-0.73,1.81,1.92,3.75,3.4,2.66
7.457,-0.73,1.81,1.92,3.75,3.4,2.66
7.458,0.91,1.69,-0.02,3.75,3.4,2.66
7.458,0.91,1.69,-0.02,3.75,3.4,2.66
7.47,0.91,1.69,-0.02,3.73,3.05,2.21
7.471,0.91,1.69,-0.02,3.73,3.05,2.21
7.472,1.17,1.6,-0.37,3.73,3.05,2.21
7.472,1.17,1.6,-0.37,3.73,3.05,2.21
7.475,1.17,1.6,-0.37,3.23,2.35,1.41
7.476,1.17,1.6,-0.37,3.23,2.35,1.41
7.476,1.39,1.56,-0.79,3.23,2.35,1.41
7.477,1.39,1.56,-0.79,3.23,2.35,1.41
7.485,1.39,1.56,-0.79,2.36,1.47,0.42
7.486,1.39,1.56,-0.79,2.36,1.47,0.42
7.487,1.31,1.64,-1.01,2.36,1.47,0.42
7.488,1.31,1.64,-1.01,2.36,1.47,0.42
7.495,1.31,1.64,-1.01,1.36,0.63,-0.5
7.496,1.31,1.64,-1.01,1.36,0.63,-0.5
7.496,0.9,1.78,-1,1.36,0.63,-0.5
7.497,0.9,1.78,-1,1.36,0.63,-0.5
7.504,0.9,1.78,-1,0.46,-0.03,-1.18
7.505,0.9,1.78,-1,0.46,-0.03,-1.18
7.505,0.26,1.9,-0.88,0.46,-0.03,-1.18
7.506,0.26,1.9,-0.88,0.46,-0.03,-1.18
7.515,0.26,1.9,-0.88,-0.21,-0.42,-1.55
7.515,0.26,1.9,-0.88,-0.21,-0.42,-1.55
7.516,-1.17,1.93,-0.82,-0.21,-0.42,-1.55
7.516,-1.17,1.93,-0.82,-0.21,-0.42,-1.55
7.523,-1.17,1.93,-0.82,-0.67,-0.51,-1.59
7.524,-1.17,1.93,-0.82,-0.67,-0.51,-1.59
7.524,-1.37,1.89,-0.81,-0.67,-0.51,-1.59
7.525,-1.37,1.89,-0.81,-0.67,-0.51,-1.59
7.533,-1.37,1.89,-0.81,-0.92,-0.32,-1.27
7.534,-1.37,1.89,-0.81,-0.92,-0.32,-1.27
7.534,-1.46,1.83,-0.75,-0.92,-0.32,-1.27
7.535,-1.46,1.83,-0.75,-0.92,-0.32,-1.27
7.542,-1.46,1.83,-0.75,-1.04,0.05,-0.7
7.543,-1.46,1.83,-0.75,-1.04,0.05,-0.7
7.544,-1.34,1.77,-0.58,-1.04,0.05,-0.7
7.544,-1.34,1.77,-0.58,-1.04,0.05,-0.7
7.554,-1.34,1.77,-0.58,-1.05,0.47,-0.1
7.555,-1.34,1.77,-0.58,-1.05,0.47,-0.1
7.556,-1.03,1.75,-0.31,-1.05,0.47,-0.1
7.557,-1.03,1.75,-0.31,-1.05,0.47,-0.1
7.562,-1.03,1.75,-0.31,-0.97,0.79,0.35
7.563,-1.03,1.75,-0.31,-0.97,0.79,0.35
7.564,-0.6,1.76,-0.05,-0.97,0.79,0.35
7.564,-0.6,1.76,-0.05,-0.97,0.79,0.35
7.574,-0.6,1.76,-0.05,-0.97,0.79,0.35
7.575,-0.6,1.76,-0.05,-0.97,0.79,0.35
7.575,-0.6,1.76,-0.05,-0.97,0.79,0.35
7.576,-0.6,1.76,-0.05,-0.97,0.79,0.35
7.581,-0.6,1.76,-0.05,-0.82,0.97,0.57
7.582,-0.6,1.76,-0.05,-0.82,0.97,0.57
7.582,0.42,1.22,0.32,-0.82,0.97,0.57
7.583,0.42,1.22,0.32,-0.82,0.97,0.57
7.59,0.42,1.22,0.32,-0.6,0.98,0.54
7.591,0.42,1.22,0.32,-0.6,0.98,0.54
7.591,0.9,-2.02,0.23,-0.6,0.98,0.54
7.592,0.9,-2.02,0.23,-0.6,0.98,0.54
7.599,0.9,-2.02,0.23,-0.36,0.81,0.25
7.6,0.9,-2.02,0.23,-0.36,0.81,0.25
7.601,1.33,-5.08,-0.11,-0.36,0.81,0.25
7.601,1.33,-5.08,-0.11,-0.36,0.81,0.25
7.609,1.33,-5.08,-0.11,-0.17,0.51,-0.24
7.61,1.33,-5.08,-0.11,-0.17,0.51,-0.24
7.61,1.84,-6.72,-1.76,-0.17,0.51,-0.24
7.61,1.84,-6.72,-1.76,-0.17,0.51,-0.24
7.618,1.84,-6.72,-1.76,-0.14,0.13,-0.79
7.619,1.84,-6.72,-1.76,-0.14,0.13,-0.79
7.619,2.36,-7.25,-2.1,-0.14,0.13,-0.79
7.619,2.36,-7.25,-2.1,-0.14,0.13,-0.79
7.628,2.36,-7.25,-2.1,-0.33,-0.23,-1.24
7.628,2.36,-7.25,-2.1,-0.33,-0.23,-1.24
7.629,2.66,-7.19,-2.71,-0.33,-0.23,-1.24
7.629,2.66,-7.19,-2.71,-0.33,-0.23,-1.24
7.637,2.66,-7.19,-2.71,-0.67,-0.53,-1.54
7.638,2.66,-7.19,-2.71,-0.67,-0.53,-1.54
7.638,2.61,-5.55,-4.21,-0.67,-0.53,-1.54
7.638,2.61,-5.55,-4.21,-0.67,-0.53,-1.54
7.651,2.61,-5.55,-4.21,-1.04,-0.76,-1.73
7.652,2.61,-5.55,-4.21,-1.04,-0.76,-1.73
7.652,0.96,-3.72,-4.47,-1.04,-0.76,-1.73
7.653,0.96,-3.72,-4.47,-1.04,-0.76,-1.73
7.656,0.96,-3.72,-4.47,-1.42,-0.91,-1.79
7.657,0.96,-3.72,-4.47,-1.42,-0.91,-1.79
7.657,0.44,-3.36,-4.69,-1.42,-0.91,-1.79
7.658,0.44,-3.36,-4.69,-1.42,-0.91,-1.79
7.672,0.44,-3.36,-4.69,-1.79,-0.99,-1.68
7.673,0.44,-3.36,-4.69,-1.79,-0.99,-1.68
7.673,-1.19,-3.21,-4.71,-1.79,-0.99,-1.68
7.673,-1.19,-3.21,-4.71,-1.79,-0.99,-1.68
7.675,-1.19,-3.21,-4.71,-2.12,-0.99,-1.36
7.675,-1.19,-3.21,-4.71,-2.12,-0.99,-1.36
7.676,-1.51,-3.21,-4.52,-2.12,-0.99,-1.36
7.676,-1.51,-3.21,-4.52,-2.12,-0.99,-1.36
7.685,-1.51,-3.21,-4.52,-2.36,-0.89,-0.85
7.686,-1.51,-3.21,-4.52,-2.36,-0.89,-0.85
7.686,-1.78,-3.32,-4.18,-2.36,-0.89,-0.85
7.686,-1.78,-3.32,-4.18,-2.36,-0.89,-0.85
7.694,-1.78,-3.32,-4.18,-2.46,-0.71,-0.23
7.695,-1.78,-3.32,-4.18,-2.46,-0.71,-0.23
7.695,-1.95,-3.55,-3.66,-2.46,-0.71,-0.23
7.696,-1.95,-3.55,-3.66,-2.46,-0.71,-0.23
7.704,-1.95,-3.55,-3.66,-2.41,-0.48,0.38
7.705,-1.95,-3.55,-3.66,-2.41,-0.48,0.38
7.706,-2,-3.85,-3.09,-2.41,-0.48,0.38
7.706,-2,-3.85,-3.09,-2.41,-0.48,0.38
7.714,-2,-3.85,-3.09,-2.2,-0.26,0.88
7.714,-2,-3.85,-3.09,-2.2,-0.26,0.88
7.715,-2.01,-4.11,-1.58,-2.2,-0.26,0.88
7.715,-2.01,-4.11,-1.58,-2.2,-0.26,0.88
7.723,-2.01,-4.11,-1.58,-1.89,-0.13,1.24
7.724,-2.01,-4.11,-1.58,-1.89,-0.13,1.24
7.724,-1.95,-4.18,-1.08,-1.89,-0.13,1.24
7.725,-1.95,-4.18,-1.08,-1.89,-0.13,1.24
7.731,-1.95,-4.18,-1.08,-1.59,-0.09,1.45
7.732,-1.95,-4.18,-1.08,-1.59,-0.09,1.45
7.733,-1.79,-3.92,-0.55,-1.59,-0.09,1.45
7.733,-1.79,-3.92,-0.55,-1.59,-0.09,1.45
7.742,-1.79,-3.92,-0.55,-1.1,-0.05,1.53
7.743,-1.79,-3.92,-0.55,-1.1,-0.05,1.53
7.744,-1.63,-2.31,-0.13,-1.1,-0.05,1.53
7.744,-1.63,-2.31,-0.13,-1.1,-0.05,1.53
7.752,-1.63,-2.31,-0.13,-0.42,-0.03,1.52
7.753,-1.63,-2.31,-0.13,-0.42,-0.03,1.52
7.753,-1.46,-1.94,0.03,-0.42,-0.03,1.52
7.754,-1.46,-1.94,0.03,-0.42,-0.03,1.52
7.761,-1.46,-1.94,0.03,-0.42,-0.03,1.52
7.761,-1.46,-1.94,0.03,-0.42,-0.03,1.52
7.762,-1.46,-1.94,0.03,-0.42,-0.03,1.52
7.762,-1.46,-1.94,0.03,-0.42,-0.03,1.52
7.77,-1.46,-1.94,0.03,0.15,-0.04,1.43
7.772,-1.46,-1.94,0.03,0.15,-0.04,1.43
7.773,-1.57,-0.69,-0.25,0.15,-0.04,1.43
7.774,-1.57,-0.69,-0.25,0.15,-0.04,1.43
7.779,-1.57,-0.69,-0.25,0.57,-0.07,1.31
7.78,-1.57,-0.69,-0.25,0.57,-0.07,1.31
7.78,-1.86,-0.19,-0.55,0.57,-0.07,1.31
7.781,-1.86,-0.19,-0.55,0.57,-0.07,1.31
7.789,-1.86,-0.19,-0.55,0.83,-0.1,1.2
7.79,-1.86,-0.19,-0.55,0.83,-0.1,1.2
7.79,-2.3,0.09,-0.86,0.83,-0.1,1.2
7.79,-2.3,0.09,-0.86,0.83,-0.1,1.2
7.799,-2.3,0.09,-0.86,0.92,-0.12,1.15
7.799,-2.3,0.09,-0.86,0.92,-0.12,1.15
7.8,-2.75,0.17,-1.13,0.92,-0.12,1.15
7.8,-2.75,0.17,-1.13,0.92,-0.12,1.15
7.809,-2.75,0.17,-1.13,0.86,-0.12,1.18
7.81,-2.75,0.17,-1.13,0.86,-0.12,1.18
7.81,-3.05,0.16,-1.32,0.86,-0.12,1.18
7.811,-3.05,0.16,-1.32,0.86,-0.12,1.18
7.818,-3.05,0.16,-1.32,0.7,-0.1,1.31
7.819,-3.05,0.16,-1.32,0.7,-0.1,1.31
7.82,-3.03,0.14,-1.42,0.7,-0.1,1.31
7.82,-3.03,0.14,-1.42,0.7,-0.1,1.31
7.828,-3.03,0.14,-1.42,0.48,-0.07,1.49
7.829,-3.03,0.14,-1.42,0.48,-0.07,1.49
7.83,-2.61,0.21,-1.53,0.48,-0.07,1.49
7.831,-2.61,0.21,-1.53,0.48,-0.07,1.49
7.836,-2.61,0.21,-1.53,0.24,-0.03,1.66
7.837,-2.61,0.21,-1.53,0.24,-0.03,1.66
7.838,-1.06,0.32,-1.71,0.24,-0.03,1.66
7.838,-1.06,0.32,-1.71,0.24,-0.03,1.66
7.846,-1.06,0.32,-1.71,-0.01,-0.02,1.71
7.847,-1.06,0.32,-1.71,-0.01,-0.02,1.71
7.847,-0.43,0.45,-1.93,-0.01,-0.02,1.71
7.848,-0.43,0.45,-1.93,-0.01,-0.02,1.71
7.856,-0.43,0.45,-1.93,-0.26,-0.08,1.51
7.857,-0.43,0.45,-1.93,-0.26,-0.08,1.51
7.857,1.18,0.55,-2.16,-0.26,-0.08,1.51
7.858,1.18,0.55,-2.16,-0.26,-0.08,1.51
7.87,1.18,0.55,-2.16,-0.53,-0.22,1.03
7.871,1.18,0.55,-2.16,-0.53,-0.22,1.03
7.871,1.5,0.62,-2.26,-0.53,-0.22,1.03
7.872,1.5,0.62,-2.26,-0.53,-0.22,1.03
7.875,1.5,0.62,-2.26,-0.81,-0.43,0.31
7.876,1.5,0.62,-2.26,-0.81,-0.43,0.31
7.876,1.74,0.68,-2.24,-0.81,-0.43,0.31
7.877,1.74,0.68,-2.24,-0.81,-0.43,0.31
7.884,1.74,0.68,-2.24,-1.07,-0.67,-0.52
7.885,1.74,0.68,-2.24,-1.07,-0.67,-0.52
7.885,1.77,0.8,-2.08,-1.07,-0.67,-0.52
7.885,1.77,0.8,-2.08,-1.07,-0.67,-0.52
7.894,1.77,0.8,-2.08,-1.26,-0.88,-1.3
7.895,1.77,0.8,-2.08,-1.26,-0.88,-1.3
7.895,1.52,1,-1.83,-1.26,-0.88,-1.3
7.896,1.52,1,-1.83,-1.26,-0.88,-1.3
7.904,1.52,1,-1.83,-1.35,-1.04,-1.88
7.905,1.52,1,-1.83,-1.35,-1.04,-1.88
7.905,1.1,1.28,-1.58,-1.35,-1.04,-1.88
7.906,1.1,1.28,-1.58,-1.35,-1.04,-1.88
7.913,1.1,1.28,-1.58,-1.34,-1.13,-2.2
7.913,1.1,1.28,-1.58,-1.34,-1.13,-2.2
7.914,0.6,1.6,-1.28,-1.34,-1.13,-2.2
7.914,0.6,1.6,-1.28,-1.34,-1.13,-2.2
7.922,0.6,1.6,-1.28,-1.24,-1.16,-2.26
7.922,0.6,1.6,-1.28,-1.24,-1.16,-2.26
7.923,0.12,1.87,-0.99,-1.24,-1.16,-2.26
7.923,0.12,1.87,-0.99,-1.24,-1.16,-2.26
7.935,0.12,1.87,-0.99,-1.08,-1.15,-2.07
7.936,0.12,1.87,-0.99,-1.08,-1.15,-2.07
7.936,-0.27,2.07,-0.7,-1.08,-1.15,-2.07
7.937,-0.27,2.07,-0.7,-1.08,-1.15,-2.07
7.943,-0.27,2.07,-0.7,-0.88,-1.09,-1.68
7.943,-0.27,2.07,-0.7,-0.88,-1.09,-1.68
7.943,-0.52,2.17,-0.45,-0.88,-1.09,-1.68
7.944,-0.52,2.17,-0.45,-0.88,-1.09,-1.68
7.955,-0.52,2.17,-0.45,-0.65,-1,-1.16
7.956,-0.52,2.17,-0.45,-0.65,-1,-1.16
7.956,-0.65,2.24,-0.34,-0.65,-1,-1.16
7.957,-0.65,2.24,-0.34,-0.65,-1,-1.16
7.961,-0.65,2.24,-0.34,-0.65,-1,-1.16
7.961,-0.65,2.24,-0.34,-0.65,-1,-1.16
7.962,-0.65,2.24,-0.34,-0.65,-1,-1.16
7.962,-0.65,2.24,-0.34,-0.65,-1,-1.16
7.971,-0.65,2.24,-0.34,-0.42,-0.91,-0.59
7.971,-0.65,2.24,-0.34,-0.42,-0.91,-0.59
7.972,-0.68,2.28,-0.37,-0.42,-0.91,-0.59
7.972,-0.68,2.28,-0.37,-0.42,-0.91,-0.59
7.981,-0.68,2.28,-0.37,-0.34,-0.83,-0.06
7.982,-0.68,2.28,-0.37,-0.34,-0.83,-0.06
7.983,-0.65,2.25,-0.42,-0.34,-0.83,-0.06
7.983,-0.65,2.25,-0.42,-0.34,-0.83,-0.06
7.992,-0.65,2.25,-0.42,-0.29,-0.76,0.39
7.993,-0.65,2.25,-0.42,-0.29,-0.76,0.39
7.994,-0.65,2.19,-0.4,-0.29,-0.76,0.39
7.994,-0.65,2.19,-0.4,-0.29,-0.76,0.39
8,-0.65,2.19,-0.4,-0.13,-0.69,0.72
8.002,-0.65,2.19,-0.4,-0.13,-0.69,0.72
8.002,-0.7,2.1,-0.37,-0.13,-0.69,0.72
8.003,-0.7,2.1,-0.37,-0.13,-0.69,0.72
8.008,-0.7,2.1,-0.37,-0.03,-0.62,0.95
8.009,-0.7,2.1,-0.37,-0.03,-0.62,0.95
8.009,-0.8,2.02,-0.33,-0.03,-0.62,0.95
8.01,-0.8,2.02,-0.33,-0.03,-0.62,0.95
8.018,-0.8,2.02,-0.33,0.03,-0.55,1.09
8.019,-0.8,2.02,-0.33,0.03,-0.55,1.09
8.02,-0.92,2.03,-0.28,0.03,-0.55,1.09
8.02,-0.92,2.03,-0.28,0.03,-0.55,1.09
8.028,-0.92,2.03,-0.28,0.07,-0.48,1.18
8.028,-0.92,2.03,-0.28,0.07,-0.48,1.18
8.029,-1.03,2.13,-0.25,0.07,-0.48,1.18
8.029,-1.03,2.13,-0.25,0.07,-0.48,1.18
8.037,-1.03,2.13,-0.25,0.1,-0.41,1.25
8.037,-1.03,2.13,-0.25,0.1,-0.41,1.25
8.038,-1.09,2.31,-0.17,0.1,-0.41,1.25
8.038,-1.09,2.31,-0.17,0.1,-0.41,1.25
8.051,-1.09,2.31,-0.17,0.13,-0.35,1.33
8.052,-1.09,2.31,-0.17,0.13,-0.35,1.33
8.053,-1.06,2.57,-0.07,0.13,-0.35,1.33
8.053,-1.06,2.57,-0.07,0.13,-0.35,1.33
8.055,-1.06,2.57,-0.07,0.14,-0.29,1.4
8.056,-1.06,2.57,-0.07,0.14,-0.29,1.4
8.056,-0.97,2.84,0.02,0.14,-0.29,1.4
8.057,-0.97,2.84,0.02,0.14,-0.29,1.4
8.068,-0.97,2.84,0.02,0.15,-0.22,1.45
8.069,-0.97,2.84,0.02,0.15,-0.22,1.45
8.069,-0.82,3.1,0.12,0.15,-0.22,1.45
8.069,-0.82,3.1,0.12,0.15,-0.22,1.45
8.075,-0.82,3.1,0.12,0.16,-0.15,1.48
8.076,-0.82,3.1,0.12,0.16,-0.15,1.48
8.077,-0.64,3.36,0.15,0.16,-0.15,1.48
8.077,-0.64,3.36,0.15,0.16,-0.15,1.48
8.084,-0.64,3.36,0.15,0.16,-0.07,1.46
8.086,-0.64,3.36,0.15,0.16,-0.07,1.46
8.086,-0.47,3.64,0.11,0.16,-0.07,1.46
8.087,-0.47,3.64,0.11,0.16,-0.07,1.46
8.094,-0.47,3.64,0.11,0.15,0.01,1.39
8.095,-0.47,3.64,0.11,0.15,0.01,1.39
8.095,-0.29,3.9,0.1,0.15,0.01,1.39
8.095,-0.29,3.9,0.1,0.15,0.01,1.39
8.103,-0.29,3.9,0.1,0.1,0.06,1.27
8.104,-0.29,3.9,0.1,0.1,0.06,1.27
8.104,-0.07,4.09,0.11,0.1,0.06,1.27
8.104,-0.07,4.09,0.11,0.1,0.06,1.27
8.112,-0.07,4.09,0.11,0.02,0.09,1.12
8.113,-0.07,4.09,0.11,0.02,0.09,1.12
8.113,0.16,4.15,0.17,0.02,0.09,1.12
8.113,0.16,4.15,0.17,0.02,0.09,1.12
8.122,0.16,4.15,0.17,-0.08,0.12,0.93
8.123,0.16,4.15,0.17,-0.08,0.12,0.93
8.123,0.46,4.02,0.26,-0.08,0.12,0.93
8.124,0.46,4.02,0.26,-0.08,0.12,0.93
8.134,0.46,4.02,0.26,-0.18,0.15,0.69
8.135,0.46,4.02,0.26,-0.18,0.15,0.69
8.135,0.82,3.68,0.32,-0.18,0.15,0.69
8.135,0.82,3.68,0.32,-0.18,0.15,0.69
8.142,0.82,3.68,0.32,-0.24,0.17,0.39
8.142,0.82,3.68,0.32,-0.24,0.17,0.39
8.143,1.26,3.13,0.34,-0.24,0.17,0.39
8.143,1.26,3.13,0.34,-0.24,0.17,0.39
8.157,1.26,3.13,0.34,-0.24,0.17,0.39
8.158,1.26,3.13,0.34,-0.24,0.17,0.39
8.159,1.26,3.13,0.34,-0.24,0.17,0.39
8.16,1.26,3.13,0.34,-0.24,0.17,0.39
8.16,1.26,3.13,0.34,-0.25,0.18,0.01
8.16,1.26,3.13,0.34,-0.25,0.18,0.01
8.16,2.37,1.13,-0.08,-0.25,0.18,0.01
8.161,2.37,1.13,-0.08,-0.25,0.18,0.01
8.17,2.37,1.13,-0.08,-0.23,0.15,-0.53
8.171,2.37,1.13,-0.08,-0.23,0.15,-0.53
8.171,3.02,0.47,-0.56,-0.23,0.15,-0.53
8.171,3.02,0.47,-0.56,-0.23,0.15,-0.53
8.181,3.02,0.47,-0.56,-0.21,0.05,-1.28
8.182,3.02,0.47,-0.56,-0.21,0.05,-1.28
8.182,3.64,-0.14,-1.16,-0.21,0.05,-1.28
8.183,3.64,-0.14,-1.16,-0.21,0.05,-1.28
8.189,3.64,-0.14,-1.16,-0.26,-0.09,-2.15
8.19,3.64,-0.14,-1.16,-0.26,-0.09,-2.15
8.19,4.11,-0.59,-1.71,-0.26,-0.09,-2.15
8.191,4.11,-0.59,-1.71,-0.26,-0.09,-2.15
8.199,4.11,-0.59,-1.71,-0.4,-0.23,-2.97
8.2,4.11,-0.59,-1.71,-0.4,-0.23,-2.97
8.2,4.33,-0.8,-2.01,-0.4,-0.23,-2.97
8.201,4.33,-0.8,-2.01,-0.4,-0.23,-2.97
8.208,4.33,-0.8,-2.01,-0.61,-0.34,-3.58
8.209,4.33,-0.8,-2.01,-0.61,-0.34,-3.58
8.21,4.31,-0.78,-2.03,-0.61,-0.34,-3.58
8.211,4.31,-0.78,-2.03,-0.61,-0.34,-3.58
8.218,4.31,-0.78,-2.03,-0.84,-0.44,-3.91
8.219,4.31,-0.78,-2.03,-0.84,-0.44,-3.91
8.22,4.07,-0.6,-1.9,-0.84,-0.44,-3.91
8.221,4.07,-0.6,-1.9,-0.84,-0.44,-3.91
8.227,4.07,-0.6,-1.9,-0.99,-0.53,-3.98
8.228,4.07,-0.6,-1.9,-0.99,-0.53,-3.98
8.229,3.67,-0.28,-1.82,-0.99,-0.53,-3.98
8.229,3.67,-0.28,-1.82,-0.99,-0.53,-3.98
8.237,3.67,-0.28,-1.82,-0.88,-0.51,-3.82
8.238,3.67,-0.28,-1.82,-0.88,-0.51,-3.82
8.238,3.21,0.12,-1.98,-0.88,-0.51,-3.82
8.239,3.21,0.12,-1.98,-0.88,-0.51,-3.82
8.251,3.21,0.12,-1.98,-0.74,-0.5,-3.49
8.252,3.21,0.12,-1.98,-0.74,-0.5,-3.49
8.252,2.73,0.49,-2.36,-0.74,-0.5,-3.49
8.253,2.73,0.49,-2.36,-0.74,-0.5,-3.49
8.255,2.73,0.49,-2.36,-0.76,-0.62,-3.04
8.256,2.73,0.49,-2.36,-0.76,-0.62,-3.04
8.256,2.21,0.81,-2.69,-0.76,-0.62,-3.04
8.257,2.21,0.81,-2.69,-0.76,-0.62,-3.04
8.268,2.21,0.81,-2.69,-0.82,-0.79,-2.51
8.269,2.21,0.81,-2.69,-0.82,-0.79,-2.51
8.27,1.64,0.97,-2.66,-0.82,-0.79,-2.51
8.27,1.64,0.97,-2.66,-0.82,-0.79,-2.51
8.274,1.64,0.97,-2.66,-0.94,-0.98,-1.95
8.274,1.64,0.97,-2.66,-0.94,-0.98,-1.95
8.274,1.02,0.91,-2.17,-0.94,-0.98,-1.95
8.275,1.02,0.91,-2.17,-0.94,-0.98,-1.95
8.283,1.02,0.91,-2.17,-1.07,-1.16,-1.34
8.284,1.02,0.91,-2.17,-1.07,-1.16,-1.34
8.284,-0.69,0.71,-0.31,-1.07,-1.16,-1.34
8.285,-0.69,0.71,-0.31,-1.07,-1.16,-1.34
8.293,-0.69,0.71,-0.31,-1.09,-1.23,-0.65
8.294,-0.69,0.71,-0.31,-1.09,-1.23,-0.65
8.294,-0.98,0.39,0.3,-1.09,-1.23,-0.65
8.295,-0.98,0.39,0.3,-1.09,-1.23,-0.65
8.303,-0.98,0.39,0.3,-0.86,-1.12,0.21
8.304,-0.98,0.39,0.3,-0.86,-1.12,0.21
8.304,-1.41,0.09,0.88,-0.86,-1.12,0.21
8.305,-1.41,0.09,0.88,-0.86,-1.12,0.21
8.314,-1.41,0.09,0.88,-0.33,-0.78,1.2
8.315,-1.41,0.09,0.88,-0.33,-0.78,1.2
8.316,-1.71,-0.02,1.17,-0.33,-0.78,1.2
8.316,-1.71,-0.02,1.17,-0.33,-0.78,1.2
8.322,-1.71,-0.02,1.17,0.4,-0.29,2.18
8.322,-1.71,-0.02,1.17,0.4,-0.29,2.18
8.323,-1.81,0.08,1.16,0.4,-0.29,2.18
8.323,-1.81,0.08,1.16,0.4,-0.29,2.18
8.332,-1.81,0.08,1.16,1.14,0.23,2.95
8.333,-1.81,0.08,1.16,1.14,0.23,2.95
8.333,-1.65,0.39,0.96,1.14,0.23,2.95
8.334,-1.65,0.39,0.96,1.14,0.23,2.95
8.342,-1.65,0.39,0.96,1.75,0.67,3.43
8.343,-1.65,0.39,0.96,1.75,0.67,3.43
8.343,-1.32,0.76,0.7,1.75,0.67,3.43
8.344,-1.32,0.76,0.7,1.75,0.67,3.43
8.352,-1.32,0.76,0.7,1.75,0.67,3.43
8.353,-1.32,0.76,0.7,1.75,0.67,3.43
8.353,-1.32,0.76,0.7,1.75,0.67,3.43
8.354,-1.32,0.76,0.7,1.75,0.67,3.43
8.376,-1.32,0.76,0.7,2.22,1.05,3.53
8.376,-1.32,0.76,0.7,2.22,1.05,3.53
8.377,-0.7,0.97,0.35,2.22,1.05,3.53
8.377,-0.7,0.97,0.35,2.22,1.05,3.53
8.377,-0.7,0.97,0.35,2.22,1.05,3.53
8.378,-0.7,0.97,0.35,2.22,1.05,3.53
8.378,-0.7,0.97,0.35,2.22,1.05,3.53
8.378,-0.7,0.97,0.35,2.22,1.05,3.53
8.384,-0.7,0.97,0.35,2.09,0.96,3.22
8.385,-0.7,0.97,0.35,2.09,0.96,3.22
8.385,-0.52,-1.54,0.62,2.09,0.96,3.22
8.385,-0.52,-1.54,0.62,2.09,0.96,3.22
8.389,-0.52,-1.54,0.62,1.83,0.77,2.76
8.389,-0.52,-1.54,0.62,1.83,0.77,2.76
8.39,-0.62,-3.26,1,1.83,0.77,2.76
8.39,-0.62,-3.26,1,1.83,0.77,2.76
8.398,-0.62,-3.26,1,1.61,0.53,2.19
8.399,-0.62,-3.26,1,1.61,0.53,2.19
8.4,-0.7,-3.86,1.41,1.61,0.53,2.19
8.4,-0.7,-3.86,1.41,1.61,0.53,2.19
8.408,-0.7,-3.86,1.41,1.54,0.31,1.59
8.409,-0.7,-3.86,1.41,1.54,0.31,1.59
8.409,-0.55,-4.23,1.69,1.54,0.31,1.59
8.41,-0.55,-4.23,1.69,1.54,0.31,1.59
8.417,-0.55,-4.23,1.69,1.59,0.16,1.03
8.418,-0.55,-4.23,1.69,1.59,0.16,1.03
8.419,-0.15,-4.01,1.72,1.59,0.16,1.03
8.419,-0.15,-4.01,1.72,1.59,0.16,1.03
8.427,-0.15,-4.01,1.72,1.69,0.07,0.56
8.428,-0.15,-4.01,1.72,1.69,0.07,0.56
8.428,0.38,-2.13,1.5,1.69,0.07,0.56
8.429,0.38,-2.13,1.5,1.69,0.07,0.56
8.451,0.38,-2.13,1.5,1.75,0.02,0.19
8.451,0.38,-2.13,1.5,1.75,0.02,0.19
8.452,0.83,-1.77,1.14,1.75,0.02,0.19
8.452,0.83,-1.77,1.14,1.75,0.02,0.19
8.452,0.83,-1.77,1.14,1.75,0.02,0.19
8.453,0.83,-1.77,1.14,1.75,0.02,0.19
8.453,0.83,-1.77,1.14,1.75,0.02,0.19
8.453,0.83,-1.77,1.14,1.75,0.02,0.19
8.455,0.83,-1.77,1.14,1.54,-0.05,-0.43
8.456,0.83,-1.77,1.14,1.54,-0.05,-0.43
8.456,0.72,-1.06,0.7,1.54,-0.05,-0.43
8.456,0.72,-1.06,0.7,1.54,-0.05,-0.43
8.469,0.72,-1.06,0.7,1.28,-0.08,-0.67
8.47,0.72,-1.06,0.7,1.28,-0.08,-0.67
8.471,0.17,-0.94,0.84,1.28,-0.08,-0.67
8.471,0.17,-0.94,0.84,1.28,-0.08,-0.67
8.474,0.17,-0.94,0.84,0.99,-0.08,-0.83
8.475,0.17,-0.94,0.84,0.99,-0.08,-0.83
8.475,-1.54,-0.97,1.18,0.99,-0.08,-0.83
8.475,-1.54,-0.97,1.18,0.99,-0.08,-0.83
8.484,-1.54,-0.97,1.18,0.75,-0.02,-0.82
8.485,-1.54,-0.97,1.18,0.75,-0.02,-0.82
8.485,-1.76,-1.23,1.61,0.75,-0.02,-0.82
8.486,-1.76,-1.23,1.61,0.75,-0.02,-0.82
8.493,-1.76,-1.23,1.61,0.63,0.14,-0.58
8.494,-1.76,-1.23,1.61,0.63,0.14,-0.58
8.494,-2.05,-1.65,1.99,0.63,0.14,-0.58
8.495,-2.05,-1.65,1.99,0.63,0.14,-0.58
8.503,-2.05,-1.65,1.99,0.65,0.43,-0.15
8.504,-2.05,-1.65,1.99,0.65,0.43,-0.15
8.504,-2.24,-2.11,2.25,0.65,0.43,-0.15
8.505,-2.24,-2.11,2.25,0.65,0.43,-0.15
8.514,-2.24,-2.11,2.25,0.8,0.79,0.33
8.515,-2.24,-2.11,2.25,0.8,0.79,0.33
8.516,-2.19,-2.34,2.36,0.8,0.79,0.33
8.516,-2.19,-2.34,2.36,0.8,0.79,0.33
8.522,-2.19,-2.34,2.36,1.02,1.13,0.73
8.523,-2.19,-2.34,2.36,1.02,1.13,0.73
8.523,-1.87,-2.21,2.3,1.02,1.13,0.73
8.524,-1.87,-2.21,2.3,1.02,1.13,0.73
8.532,-1.87,-2.21,2.3,0.91,1.39,0.74
8.533,-1.87,-2.21,2.3,0.91,1.39,0.74
8.533,-0.25,-1.74,2.2,0.91,1.39,0.74
8.534,-0.25,-1.74,2.2,0.91,1.39,0.74
8.541,-0.25,-1.74,2.2,0.91,1.39,0.74
8.541,-0.25,-1.74,2.2,0.91,1.39,0.74
8.542,-0.25,-1.74,2.2,0.91,1.39,0.74
8.543,-0.25,-1.74,2.2,0.91,1.39,0.74
8.553,-0.25,-1.74,2.2,0.79,1.52,0.61
8.555,-0.25,-1.74,2.2,0.79,1.52,0.61
8.555,1.95,-0.64,2.4,0.79,1.52,0.61
8.556,1.95,-0.64,2.4,0.79,1.52,0.61
8.564,1.95,-0.64,2.4,1.02,1.13,0.05
8.565,1.95,-0.64,2.4,1.02,1.13,0.05
8.566,2.3,-0.49,3.89,1.02,1.13,0.05
8.566,2.3,-0.49,3.89,1.02,1.13,0.05
8.573,2.3,-0.49,3.89,1.02,1.13,0.05
8.574,2.3,-0.49,3.89,1.02,1.13,0.05
8.574,2.3,-0.49,3.89,1.02,1.13,0.05
8.574,2.3,-0.49,3.89,1.02,1.13,0.05
8.578,2.3,-0.49,3.89,1.13,0.98,-0.59
8.579,2.3,-0.49,3.89,1.13,0.98,-0.59
8.579,2.88,-2.52,4.77,1.13,0.98,-0.59
8.579,2.88,-2.52,4.77,1.13,0.98,-0.59
8.588,2.88,-2.52,4.77,1.38,0.79,-1.25
8.589,2.88,-2.52,4.77,1.38,0.79,-1.25
8.589,2.77,-2.79,5.16,1.38,0.79,-1.25
8.589,2.77,-2.79,5.16,1.38,0.79,-1.25
8.597,2.77,-2.79,5.16,1.74,0.37,-1.77
8.598,2.77,-2.79,5.16,1.74,0.37,-1.77
8.599,2.45,-3.05,5.16,1.74,0.37,-1.77
8.599,2.45,-3.05,5.16,1.74,0.37,-1.77
8.607,2.45,-3.05,5.16,2.05,0.08,-2.1
8.608,2.45,-3.05,5.16,2.05,0.08,-2.1
8.609,2.03,-2.99,4.75,2.05,0.08,-2.1
8.609,2.03,-2.99,4.75,2.05,0.08,-2.1
8.617,2.03,-2.99,4.75,2.24,-0.11,-2.22
8.618,2.03,-2.99,4.75,2.24,-0.11,-2.22
8.619,1.65,-2.51,2.83,2.24,-0.11,-2.22
8.619,1.65,-2.51,2.83,2.24,-0.11,-2.22
8.626,1.65,-2.51,2.83,2.24,-0.22,-2.12
8.627,1.65,-2.51,2.83,2.24,-0.22,-2.12
8.627,1.23,-0.93,2.31,2.24,-0.22,-2.12
8.628,1.23,-0.93,2.31,2.24,-0.22,-2.12
8.635,1.23,-0.93,2.31,1.99,-0.29,-1.86
8.636,1.23,-0.93,2.31,1.99,-0.29,-1.86
8.637,0.75,-0.45,0.62,1.99,-0.29,-1.86
8.637,0.75,-0.45,0.62,1.99,-0.29,-1.86
8.645,0.75,-0.45,0.62,1.52,-0.34,-1.5
8.646,0.75,-0.45,0.62,1.52,-0.34,-1.5
8.646,0.31,0.1,0.18,1.52,-0.34,-1.5
8.647,0.31,0.1,0.18,1.52,-0.34,-1.5
8.655,0.31,0.1,0.18,0.88,-0.38,-1.07
8.656,0.31,0.1,0.18,0.88,-0.38,-1.07
8.656,0.04,0.61,-0.1,0.88,-0.38,-1.07
8.657,0.04,0.61,-0.1,0.88,-0.38,-1.07
8.674,0.04,0.61,-0.1,0.18,-0.42,-0.61
8.675,0.04,0.61,-0.1,0.18,-0.42,-0.61
8.675,-0.01,0.95,0.05,0.18,-0.42,-0.61
8.675,-0.01,0.95,0.05,0.18,-0.42,-0.61
8.676,-0.01,0.95,0.05,-0.47,-0.42,-0.16
8.676,-0.01,0.95,0.05,-0.47,-0.42,-0.16
8.676,0.12,1.02,1.81,-0.47,-0.42,-0.16
8.676,0.12,1.02,1.81,-0.47,-0.42,-0.16
8.683,0.12,1.02,1.81,-0.93,-0.37,0.23
8.684,0.12,1.02,1.81,-0.93,-0.37,0.23
8.684,0.34,0.89,2.18,-0.93,-0.37,0.23
8.685,0.34,0.89,2.18,-0.93,-0.37,0.23
8.693,0.34,0.89,2.18,-1.06,-0.26,0.52
8.694,0.34,0.89,2.18,-1.06,-0.26,0.52
8.694,0.57,0.61,3.59,-1.06,-0.26,0.52
8.695,0.57,0.61,3.59,-1.06,-0.26,0.52
8.702,0.57,0.61,3.59,-0.81,-0.08,0.66
8.703,0.57,0.61,3.59,-0.81,-0.08,0.66
8.703,0.71,0.3,3.75,-0.81,-0.08,0.66
8.704,0.71,0.3,3.75,-0.81,-0.08,0.66
8.713,0.71,0.3,3.75,-0.26,0.11,0.67
8.714,0.71,0.3,3.75,-0.26,0.11,0.67
8.715,0.77,0.06,3.72,-0.26,0.11,0.67
8.715,0.77,0.06,3.72,-0.26,0.11,0.67
8.722,0.77,0.06,3.72,0.42,0.26,0.57
8.723,0.77,0.06,3.72,0.42,0.26,0.57
8.723,0.7,-0.07,3.45,0.42,0.26,0.57
8.723,0.7,-0.07,3.45,0.42,0.26,0.57
8.731,0.7,-0.07,3.45,1.01,0.34,0.43
8.732,0.7,-0.07,3.45,1.01,0.34,0.43
8.733,0.52,-0.05,2.95,1.01,0.34,0.43
8.733,0.52,-0.05,2.95,1.01,0.34,0.43
8.741,0.52,-0.05,2.95,1.01,0.34,0.43
8.741,0.52,-0.05,2.95,1.01,0.34,0.43
8.742,0.52,-0.05,2.95,1.01,0.34,0.43
8.742,0.52,-0.05,2.95,1.01,0.34,0.43
8.751,0.52,-0.05,2.95,1.38,0.35,0.3
8.752,0.52,-0.05,2.95,1.38,0.35,0.3
8.752,0.14,0.11,1.88,1.38,0.35,0.3
8.753,0.14,0.11,1.88,1.38,0.35,0.3
8.76,0.14,0.11,1.88,1.48,0.35,0.22
8.76,0.14,0.11,1.88,1.48,0.35,0.22
8.761,-0.02,0.19,1.35,1.48,0.35,0.22
8.761,-0.02,0.19,1.35,1.48,0.35,0.22
8.776,-0.02,0.19,1.35,1.33,0.36,0.22
8.777,-0.02,0.19,1.35,1.33,0.36,0.22
8.777,-0.12,0.24,0.89,1.33,0.36,0.22
8.778,-0.12,0.24,0.89,1.33,0.36,0.22
8.778,-0.12,0.24,0.89,0.98,0.38,0.29
8.778,-0.12,0.24,0.89,0.98,0.38,0.29
8.779,-0.16,0.3,0.59,0.98,0.38,0.29
8.779,-0.16,0.3,0.59,0.98,0.38,0.29
8.789,-0.16,0.3,0.59,0.52,0.4,0.4
8.79,-0.16,0.3,0.59,0.52,0.4,0.4
8.79,-0.15,0.35,0.46,0.52,0.4,0.4
8.791,-0.15,0.35,0.46,0.52,0.4,0.4
8.798,-0.15,0.35,0.46,0.07,0.4,0.5
8.799,-0.15,0.35,0.46,0.07,0.4,0.5
8.799,-0.07,0.34,0.5,0.07,0.4,0.5
8.8,-0.07,0.34,0.5,0.07,0.4,0.5
8.807,-0.07,0.34,0.5,-0.3,0.39,0.56
8.808,-0.07,0.34,0.5,-0.3,0.39,0.56
8.809,0.1,0.3,0.67,-0.3,0.39,0.56
8.809,0.1,0.3,0.67,-0.3,0.39,0.56
8.817,0.1,0.3,0.67,-0.56,0.36,0.57
8.818,0.1,0.3,0.67,-0.56,0.36,0.57
8.819,0.32,0.27,0.92,-0.56,0.36,0.57
8.819,0.32,0.27,0.92,-0.56,0.36,0.57
8.827,0.32,0.27,0.92,-0.68,0.32,0.52
8.828,0.32,0.27,0.92,-0.68,0.32,0.52
8.828,0.58,0.26,1.15,-0.68,0.32,0.52
8.829,0.58,0.26,1.15,-0.68,0.32,0.52
8.836,0.58,0.26,1.15,-0.66,0.26,0.4
8.837,0.58,0.26,1.15,-0.66,0.26,0.4
8.837,0.86,0.32,1.26,-0.66,0.26,0.4
8.838,0.86,0.32,1.26,-0.66,0.26,0.4
8.845,0.86,0.32,1.26,-0.53,0.19,0.21
8.845,0.86,0.32,1.26,-0.53,0.19,0.21
8.846,1.11,0.42,1.23,-0.53,0.19,0.21
8.846,1.11,0.42,1.23,-0.53,0.19,0.21
8.854,1.11,0.42,1.23,-0.34,0.08,-0.01
8.855,1.11,0.42,1.23,-0.34,0.08,-0.01
8.856,1.27,0.49,1.05,-0.34,0.08,-0.01
8.856,1.27,0.49,1.05,-0.34,0.08,-0.01
8.876,1.27,0.49,1.05,-0.15,-0.06,-0.26
8.877,1.27,0.49,1.05,-0.15,-0.06,-0.26
8.877,1.31,0.47,0.78,-0.15,-0.06,-0.26
8.878,1.31,0.47,0.78,-0.15,-0.06,-0.26
8.878,1.31,0.47,0.78,0,-0.23,-0.5
8.879,1.31,0.47,0.78,0,-0.23,-0.5
8.879,1.21,0.38,0.49,0,-0.23,-0.5
8.879,1.21,0.38,0.49,0,-0.23,-0.5
8.884,1.21,0.38,0.49,0.07,-0.38,-0.69
8.885,1.21,0.38,0.49,0.07,-0.38,-0.69
8.886,0.97,0.25,0.18,0.07,-0.38,-0.69
8.886,0.97,0.25,0.18,0.07,-0.38,-0.69
8.892,0.97,0.25,0.18,0.05,-0.51,-0.82
8.893,0.97,0.25,0.18,0.05,-0.51,-0.82
8.893,0.73,0.09,-0.15,0.05,-0.51,-0.82
8.893,0.73,0.09,-0.15,0.05,-0.51,-0.82
8.903,0.73,0.09,-0.15,-0.05,-0.59,-0.85
8.904,0.73,0.09,-0.15,-0.05,-0.59,-0.85
8.905,0.53,-0.01,-0.52,-0.05,-0.59,-0.85
8.905,0.53,-0.01,-0.52,-0.05,-0.59,-0.85
8.914,0.53,-0.01,-0.52,-0.21,-0.63,-0.79
8.915,0.53,-0.01,-0.52,-0.21,-0.63,-0.79
8.915,0.4,-0.03,-0.87,-0.21,-0.63,-0.79
8.916,0.4,-0.03,-0.87,-0.21,-0.63,-0.79
8.923,0.4,-0.03,-0.87,-0.42,-0.64,-0.66
8.923,0.4,-0.03,-0.87,-0.42,-0.64,-0.66
8.924,0.45,0,-1.14,-0.42,-0.64,-0.66
8.925,0.45,0,-1.14,-0.42,-0.64,-0.66
8.932,0.45,0,-1.14,-0.65,-0.62,-0.5
8.932,0.45,0,-1.14,-0.65,-0.62,-0.5
8.933,0.57,0.15,-1.32,-0.65,-0.62,-0.5
8.933,0.57,0.15,-1.32,-0.65,-0.62,-0.5
8.941,0.57,0.15,-1.32,-0.65,-0.62,-0.5
8.942,0.57,0.15,-1.32,-0.65,-0.62,-0.5
8.942,0.57,0.15,-1.32,-0.65,-0.62,-0.5
8.943,0.57,0.15,-1.32,-0.65,-0.62,-0.5
8.953,0.57,0.15,-1.32,-0.89,-0.62,-0.36
8.955,0.57,0.15,-1.32,-0.89,-0.62,-0.36
8.955,1.04,0.53,-1.4,-0.89,-0.62,-0.36
8.956,1.04,0.53,-1.4,-0.89,-0.62,-0.36
8.96,1.04,0.53,-1.4,-1.09,-0.65,-0.26
8.961,1.04,0.53,-1.4,-1.09,-0.65,-0.26
8.961,1.28,0.65,-1.57,-1.09,-0.65,-0.26
8.962,1.28,0.65,-1.57,-1.09,-0.65,-0.26
8.975,1.28,0.65,-1.57,-1.23,-0.73,-0.26
8.976,1.28,0.65,-1.57,-1.23,-0.73,-0.26
8.977,1.53,0.65,-1.95,-1.23,-0.73,-0.26
8.977,1.53,0.65,-1.95,-1.23,-0.73,-0.26
8.978,1.53,0.65,-1.95,-1.33,-0.86,-0.34
8.979,1.53,0.65,-1.95,-1.33,-0.86,-0.34
8.979,1.74,0.58,-2.57,-1.33,-0.86,-0.34
8.979,1.74,0.58,-2.57,-1.33,-0.86,-0.34
8.988,1.74,0.58,-2.57,-1.42,-1.03,-0.5
8.989,1.74,0.58,-2.57,-1.42,-1.03,-0.5
8.989,1.93,0.55,-4.1,-1.42,-1.03,-0.5
8.99,1.93,0.55,-4.1,-1.42,-1.03,-0.5
8.997,1.93,0.55,-4.1,-1.58,-1.25,-0.7
8.999,1.93,0.55,-4.1,-1.58,-1.25,-0.7
8.999,2.12,0.6,-4.54,-1.58,-1.25,-0.7
9,2.12,0.6,-4.54,-1.58,-1.25,-0.7
9.007,2.12,0.6,-4.54,-1.9,-1.55,-0.9
9.008,2.12,0.6,-4.54,-1.9,-1.55,-0.9
9.009,2.25,0.72,-5,-1.9,-1.55,-0.9
9.009,2.25,0.72,-5,-1.9,-1.55,-0.9
9.017,2.25,0.72,-5,-2.34,-1.92,-1.12
9.018,2.25,0.72,-5,-2.34,-1.92,-1.12
9.019,2.21,0.91,-5.23,-2.34,-1.92,-1.12
9.019,2.21,0.91,-5.23,-2.34,-1.92,-1.12
9.026,2.21,0.91,-5.23,-2.79,-2.29,-1.32
9.027,2.21,0.91,-5.23,-2.79,-2.29,-1.32
9.028,1.92,1.11,-5.01,-2.79,-2.29,-1.32
9.028,1.92,1.11,-5.01,-2.79,-2.29,-1.32
9.038,1.92,1.11,-5.01,-3.12,-2.57,-1.49
9.04,1.92,1.11,-5.01,-3.12,-2.57,-1.49
9.04,1.37,1.34,-3.13,-3.12,-2.57,-1.49
9.041,1.37,1.34,-3.13,-3.12,-2.57,-1.49
9.046,1.37,1.34,-3.13,-3.22,-2.64,-1.54
9.047,1.37,1.34,-3.13,-3.22,-2.64,-1.54
9.048,-0.41,1.62,-1.48,-3.22,-2.64,-1.54
9.048,-0.41,1.62,-1.48,-3.22,-2.64,-1.54
9.054,-0.41,1.62,-1.48,-3.01,-2.35,-1.35
9.055,-0.41,1.62,-1.48,-3.01,-2.35,-1.35
9.056,-0.64,1.97,-0.95,-3.01,-2.35,-1.35
9.056,-0.64,1.97,-0.95,-3.01,-2.35,-1.35
9.067,-0.64,1.97,-0.95,-2.42,-1.64,-0.81
9.068,-0.64,1.97,-0.95,-2.42,-1.64,-0.81
9.069,-0.91,2.33,0.6,-2.42,-1.64,-0.81
9.069,-0.91,2.33,0.6,-2.42,-1.64,-0.81
9.073,-0.91,2.33,0.6,-1.51,-0.58,0.01
9.074,-0.91,2.33,0.6,-1.51,-0.58,0.01
9.075,-1.09,2.7,0.92,-1.51,-0.58,0.01
9.075,-1.09,2.7,0.92,-1.51,-0.58,0.01
9.083,-1.09,2.7,0.92,-0.4,0.63,0.88
9.084,-1.09,2.7,0.92,-0.4,0.63,0.88
9.084,-1.21,3.02,1.08,-0.4,0.63,0.88
9.084,-1.21,3.02,1.08,-0.4,0.63,0.88
9.092,-1.21,3.02,1.08,0.76,1.75,1.59
9.093,-1.21,3.02,1.08,0.76,1.75,1.59
9.093,-1.31,3.16,0.95,0.76,1.75,1.59
9.093,-1.31,3.16,0.95,0.76,1.75,1.59
9.101,-1.31,3.16,0.95,1.81,2.62,2.05
9.102,-1.31,3.16,0.95,1.81,2.62,2.05
9.103,-1.52,3.12,0.6,1.81,2.62,2.05
9.103,-1.52,3.12,0.6,1.81,2.62,2.05
9.113,-1.52,3.12,0.6,2.61,3.18,2.32
9.114,-1.52,3.12,0.6,2.61,3.18,2.32
9.114,-1.84,2.85,0.2,2.61,3.18,2.32
9.115,-1.84,2.85,0.2,2.61,3.18,2.32
9.121,-1.84,2.85,0.2,3.06,3.47,2.46
9.122,-1.84,2.85,0.2,3.06,3.47,2.46
9.123,-2.23,2.37,0.08,3.06,3.47,2.46
9.123,-2.23,2.37,0.08,3.06,3.47,2.46
9.13,-2.23,2.37,0.08,3.06,3.47,2.46
9.131,-2.23,2.37,0.08,3.06,3.47,2.46
9.132,-2.23,2.37,0.08,3.06,3.47,2.46
9.132,-2.23,2.37,0.08,3.06,3.47,2.46
9.14,-2.23,2.37,0.08,3.18,3.57,2.53
9.141,-2.23,2.37,0.08,3.18,3.57,2.53
9.142,-2.76,1.27,0.73,3.18,3.57,2.53
9.143,-2.76,1.27,0.73,3.18,3.57,2.53
9.152,-2.76,1.27,0.73,3.07,3.56,2.58
9.153,-2.76,1.27,0.73,3.07,3.56,2.58
9.154,-2.64,0.87,1.22,3.07,3.56,2.58
9.154,-2.64,0.87,1.22,3.07,3.56,2.58
9.159,-2.64,0.87,1.22,2.87,3.47,2.6
9.16,-2.64,0.87,1.22,2.87,3.47,2.6
9.161,-2.12,0.63,1.53,2.87,3.47,2.6
9.161,-2.12,0.63,1.53,2.87,3.47,2.6
9.176,-2.12,0.63,1.53,2.71,3.27,2.52
9.176,-2.12,0.63,1.53,2.71,3.27,2.52
9.177,-0.11,0.48,1.4,2.71,3.27,2.52
9.177,-0.11,0.48,1.4,2.71,3.27,2.52
9.184,-0.11,0.48,1.4,2.56,2.9,2.23
9.185,-0.11,0.48,1.4,2.56,2.9,2.23
9.185,1.86,0.26,-0.21,2.56,2.9,2.23
9.185,1.86,0.26,-0.21,2.56,2.9,2.23
9.188,1.86,0.26,-0.21,2.31,2.29,1.61
9.188,1.86,0.26,-0.21,2.31,2.29,1.61
9.189,3.97,-0.08,-0.64,2.31,2.29,1.61
9.189,3.97,-0.08,-0.64,2.31,2.29,1.61
9.197,3.97,-0.08,-0.64,1.8,1.4,0.61
9.198,3.97,-0.08,-0.64,1.8,1.4,0.61
9.199,5.56,-0.54,-2.08,1.8,1.4,0.61
9.199,5.56,-0.54,-2.08,1.8,1.4,0.61
9.207,5.56,-0.54,-2.08,1.03,0.29,-0.76
9.208,5.56,-0.54,-2.08,1.03,0.29,-0.76
9.208,5.76,-0.98,-2.18,1.03,0.29,-0.76
9.209,5.76,-0.98,-2.18,1.03,0.29,-0.76
9.216,5.76,-0.98,-2.18,0.13,-0.88,-2.26
9.218,5.76,-0.98,-2.18,0.13,-0.88,-2.26
9.218,5.49,-1.25,-2.12,0.13,-0.88,-2.26
9.219,5.49,-1.25,-2.12,0.13,-0.88,-2.26
9.226,5.49,-1.25,-2.12,-0.69,-1.86,-3.59
9.227,5.49,-1.25,-2.12,-0.69,-1.86,-3.59
9.228,3.9,-1.35,-1.83,-0.69,-1.86,-3.59
9.228,3.9,-1.35,-1.83,-0.69,-1.86,-3.59
9.236,3.9,-1.35,-1.83,-1.27,-2.45,-4.42
9.236,3.9,-1.35,-1.83,-1.27,-2.45,-4.42
9.237,2.31,-1.31,-1.48,-1.27,-2.45,-4.42
9.238,2.31,-1.31,-1.48,-1.27,-2.45,-4.42
9.244,2.31,-1.31,-1.48,-1.57,-2.6,-4.58
9.245,2.31,-1.31,-1.48,-1.57,-2.6,-4.58
9.246,1.76,-1.24,-1.17,-1.57,-2.6,-4.58
9.246,1.76,-1.24,-1.17,-1.57,-2.6,-4.58
9.254,1.76,-1.24,-1.17,-1.65,-2.41,-4.14
9.255,1.76,-1.24,-1.17,-1.65,-2.41,-4.14
9.255,1.22,-1.3,-0.94,-1.65,-2.41,-4.14
9.256,1.22,-1.3,-0.94,-1.65,-2.41,-4.14
9.274,1.22,-1.3,-0.94,-1.58,-2.02,-3.32
9.275,1.22,-1.3,-0.94,-1.58,-2.02,-3.32
9.275,0.82,-1.61,-0.83,-1.58,-2.02,-3.32
9.276,0.82,-1.61,-0.83,-1.58,-2.02,-3.32
9.279,0.82,-1.61,-0.83,-1.43,-1.55,-2.38
9.279,0.82,-1.61,-0.83,-1.43,-1.55,-2.38
9.279,0.58,-2.19,-0.85,-1.43,-1.55,-2.38
9.28,0.58,-2.19,-0.85,-1.43,-1.55,-2.38
9.282,0.58,-2.19,-0.85,-1.24,-1.1,-1.51
9.283,0.58,-2.19,-0.85,-1.24,-1.1,-1.51
9.283,0.42,-3.65,-0.96,-1.24,-1.1,-1.51
9.284,0.42,-3.65,-0.96,-1.24,-1.1,-1.51
9.292,0.42,-3.65,-0.96,-1.06,-0.72,-0.75
9.292,0.42,-3.65,-0.96,-1.06,-0.72,-0.75
9.293,0.22,-3.75,-1.09,-1.06,-0.72,-0.75
9.293,0.22,-3.75,-1.09,-1.06,-0.72,-0.75
9.301,0.22,-3.75,-1.09,-0.91,-0.42,-0.13
9.302,0.22,-3.75,-1.09,-0.91,-0.42,-0.13
9.303,-0.07,-3.61,-1.24,-0.91,-0.42,-0.13
9.303,-0.07,-3.61,-1.24,-0.91,-0.42,-0.13
9.312,-0.07,-3.61,-1.24,-0.91,-0.42,-0.13
9.313,-0.07,-3.61,-1.24,-0.91,-0.42,-0.13
9.313,-0.07,-3.61,-1.24,-0.91,-0.42,-0.13
9.314,-0.07,-3.61,-1.24,-0.91,-0.42,-0.13
9.321,-0.07,-3.61,-1.24,-0.8,-0.2,0.34
9.323,-0.07,-3.61,-1.24,-0.8,-0.2,0.34
9.323,-0.85,-1.69,-1.79,-0.8,-0.2,0.34
9.323,-0.85,-1.69,-1.79,-0.8,-0.2,0.34
9.33,-0.85,-1.69,-1.79,-0.75,-0.04,0.71
9.331,-0.85,-1.69,-1.79,-0.75,-0.04,0.71
9.331,-1.15,-1.45,-2.15,-0.75,-0.04,0.71
9.332,-1.15,-1.45,-2.15,-0.75,-0.04,0.71
9.34,-1.15,-1.45,-2.15,-0.79,0.06,1.01
9.341,-1.15,-1.45,-2.15,-0.79,0.06,1.01
9.342,-1.2,-1.26,-2.48,-0.79,0.06,1.01
9.342,-1.2,-1.26,-2.48,-0.79,0.06,1.01
9.352,-1.2,-1.26,-2.48,-0.91,0.13,1.27
9.354,-1.2,-1.26,-2.48,-0.91,0.13,1.27
9.354,-1.03,-1.17,-2.81,-0.91,0.13,1.27
9.355,-1.03,-1.17,-2.81,-0.91,0.13,1.27
9.36,-1.03,-1.17,-2.81,-1.09,0.18,1.48
9.361,-1.03,-1.17,-2.81,-1.09,0.18,1.48
9.362,-0.74,-1.23,-3.17,-1.09,0.18,1.48
9.363,-0.74,-1.23,-3.17,-1.09,0.18,1.48
9.381,-0.74,-1.23,-3.17,-1.31,0.19,1.58
9.382,-0.74,-1.23,-3.17,-1.31,0.19,1.58
9.383,-0.43,-1.33,-3.46,-1.31,0.19,1.58
9.383,-0.43,-1.33,-3.46,-1.31,0.19,1.58
9.383,-0.43,-1.33,-3.46,-1.52,0.15,1.56
9.384,-0.43,-1.33,-3.46,-1.52,0.15,1.56
9.384,-0.18,-1.48,-3.65,-1.52,0.15,1.56
9.384,-0.18,-1.48,-3.65,-1.52,0.15,1.56
9.388,-0.18,-1.48,-3.65,-1.72,0.04,1.43
9.388,-0.18,-1.48,-3.65,-1.72,0.04,1.43
9.389,-0.03,-1.66,-3.64,-1.72,0.04,1.43
9.389,-0.03,-1.66,-3.64,-1.72,0.04,1.43
9.398,-0.03,-1.66,-3.64,-1.88,-0.13,1.2
9.399,-0.03,-1.66,-3.64,-1.88,-0.13,1.2
9.399,0.02,-1.81,-3.42,-1.88,-0.13,1.2
9.399,0.02,-1.81,-3.42,-1.88,-0.13,1.2
9.407,0.02,-1.81,-3.42,-1.96,-0.31,0.92
9.407,0.02,-1.81,-3.42,-1.96,-0.31,0.92
9.408,-0.01,-1.91,-3.03,-1.96,-0.31,0.92
9.408,-0.01,-1.91,-3.03,-1.96,-0.31,0.92
9.417,-0.01,-1.91,-3.03,-1.94,-0.45,0.64
9.418,-0.01,-1.91,-3.03,-1.94,-0.45,0.64
9.418,-0.12,-1.96,-2.52,-1.94,-0.45,0.64
9.419,-0.12,-1.96,-2.52,-1.94,-0.45,0.64
9.426,-0.12,-1.96,-2.52,-1.8,-0.55,0.41
9.427,-0.12,-1.96,-2.52,-1.8,-0.55,0.41
9.427,-0.32,-1.92,-1.88,-1.8,-0.55,0.41
9.427,-0.32,-1.92,-1.88,-1.8,-0.55,0.41
9.45,-0.32,-1.92,-1.88,-1.54,-0.59,0.26
9.45,-0.32,-1.92,-1.88,-1.54,-0.59,0.26
9.451,-0.58,-1.83,-1.24,-1.54,-0.59,0.26
9.451,-0.58,-1.83,-1.24,-1.54,-0.59,0.26
9.452,-0.58,-1.83,-1.24,-1.18,-0.56,0.19
9.452,-0.58,-1.83,-1.24,-1.18,-0.56,0.19
9.452,-0.92,-1.75,-0.74,-1.18,-0.56,0.19
9.453,-0.92,-1.75,-0.74,-1.18,-0.56,0.19
9.454,-0.92,-1.75,-0.74,-0.74,-0.46,0.21
9.454,-0.92,-1.75,-0.74,-0.74,-0.46,0.21
9.455,-1.34,-1.67,-0.36,-0.74,-0.46,0.21
9.455,-1.34,-1.67,-0.36,-0.74,-0.46,0.21
9.472,-1.34,-1.67,-0.36,-0.28,-0.31,0.31
9.473,-1.34,-1.67,-0.36,-0.28,-0.31,0.31
9.473,-1.72,-1.63,-0.2,-0.28,-0.31,0.31
9.473,-1.72,-1.63,-0.2,-0.28,-0.31,0.31
9.473,-1.72,-1.63,-0.2,0.16,-0.15,0.48
9.474,-1.72,-1.63,-0.2,0.16,-0.15,0.48
9.474,-1.98,-1.58,-0.2,0.16,-0.15,0.48
9.474,-1.98,-1.58,-0.2,0.16,-0.15,0.48
9.483,-1.98,-1.58,-0.2,0.53,0,0.69
9.484,-1.98,-1.58,-0.2,0.53,0,0.69
9.484,-2.11,-1.5,-0.23,0.53,0,0.69
9.485,-2.11,-1.5,-0.23,0.53,0,0.69
9.492,-2.11,-1.5,-0.23,0.79,0.13,0.91
9.493,-2.11,-1.5,-0.23,0.79,0.13,0.91
9.493,-2.05,-1.37,-0.21,0.79,0.13,0.91
9.494,-2.05,-1.37,-0.21,0.79,0.13,0.91
9.502,-2.05,-1.37,-0.21,0.95,0.22,1.09
9.503,-2.05,-1.37,-0.21,0.95,0.22,1.09
9.504,-1.88,-1.12,-0.18,0.95,0.22,1.09
9.504,-1.88,-1.12,-0.18,0.95,0.22,1.09
9.512,-1.88,-1.12,-0.18,1.01,0.28,1.21
9.513,-1.88,-1.12,-0.18,1.01,0.28,1.21
9.513,-1.62,-0.78,-0.17,1.01,0.28,1.21
9.514,-1.62,-0.78,-0.17,1.01,0.28,1.21
9.52,-1.62,-0.78,-0.17,1.01,0.28,1.21
9.521,-1.62,-0.78,-0.17,1.01,0.28,1.21
9.522,-1.62,-0.78,-0.17,1.01,0.28,1.21
9.522,-1.62,-0.78,-0.17,1.01,0.28,1.21
9.53,-1.62,-0.78,-0.17,1,0.29,1.23
9.531,-1.62,-0.78,-0.17,1,0.29,1.23
9.531,-1.02,-0.01,-0.35,1,0.29,1.23
9.531,-1.02,-0.01,-0.35,1,0.29,1.23
9.54,-1.02,-0.01,-0.35,0.94,0.26,1.16
9.541,-1.02,-0.01,-0.35,0.94,0.26,1.16
9.542,-0.74,0.3,-0.5,0.94,0.26,1.16
9.542,-0.74,0.3,-0.5,0.94,0.26,1.16
9.552,-0.74,0.3,-0.5,0.82,0.18,1
9.554,-0.74,0.3,-0.5,0.82,0.18,1
9.554,-0.53,0.59,-0.59,0.82,0.18,1
9.555,-0.53,0.59,-0.59,0.82,0.18,1
9.558,-0.53,0.59,-0.59,0.65,0.06,0.75
9.56,-0.53,0.59,-0.59,0.65,0.06,0.75
9.561,-0.38,0.89,-0.65,0.65,0.06,0.75
9.561,-0.38,0.89,-0.65,0.65,0.06,0.75
9.574,-0.38,0.89,-0.65,0.44,-0.07,0.47
9.575,-0.38,0.89,-0.65,0.44,-0.07,0.47
9.575,-0.32,1.26,-0.63,0.44,-0.07,0.47
9.575,-0.32,1.26,-0.63,0.44,-0.07,0.47
9.582,-0.32,1.26,-0.63,0.23,-0.18,0.21
9.583,-0.32,1.26,-0.63,0.23,-0.18,0.21
9.583,-0.37,1.71,-0.6,0.23,-0.18,0.21
9.584,-0.37,1.71,-0.6,0.23,-0.18,0.21
9.588,-0.37,1.71,-0.6,0.04,-0.27,0
9.588,-0.37,1.71,-0.6,0.04,-0.27,0
9.589,-0.49,2.18,-0.57,0.04,-0.27,0
9.589,-0.49,2.18,-0.57,0.04,-0.27,0
9.598,-0.49,2.18,-0.57,-0.12,-0.33,-0.14
9.599,-0.49,2.18,-0.57,-0.12,-0.33,-0.14
9.6,-0.69,2.64,-0.54,-0.12,-0.33,-0.14
9.6,-0.69,2.64,-0.54,-0.12,-0.33,-0.14
9.606,-0.69,2.64,-0.54,-0.26,-0.37,-0.19
9.607,-0.69,2.64,-0.54,-0.26,-0.37,-0.19
9.608,-0.91,3.02,-0.55,-0.26,-0.37,-0.19
9.608,-0.91,3.02,-0.55,-0.26,-0.37,-0.19
9.615,-0.91,3.02,-0.55,-0.37,-0.39,-0.15
9.617,-0.91,3.02,-0.55,-0.37,-0.39,-0.15
9.618,-1.08,3.26,-0.56,-0.37,-0.39,-0.15
9.619,-1.08,3.26,-0.56,-0.37,-0.39,-0.15
9.625,-1.08,3.26,-0.56,-0.47,-0.39,-0.02
9.626,-1.08,3.26,-0.56,-0.47,-0.39,-0.02
9.627,-1.18,3.32,-0.59,-0.47,-0.39,-0.02
9.627,-1.18,3.32,-0.59,-0.47,-0.39,-0.02
9.635,-1.18,3.32,-0.59,-0.56,-0.38,0.19
9.636,-1.18,3.32,-0.59,-0.56,-0.38,0.19
9.637,-1.23,3.25,-0.62,-0.56,-0.38,0.19
9.638,-1.23,3.25,-0.62,-0.56,-0.38,0.19
9.644,-1.23,3.25,-0.62,-0.65,-0.34,0.42
9.645,-1.23,3.25,-0.62,-0.65,-0.34,0.42
9.645,-1.2,3.07,-0.69,-0.65,-0.34,0.42
9.646,-1.2,3.07,-0.69,-0.65,-0.34,0.42
9.657,-1.2,3.07,-0.69,-0.72,-0.28,0.63
9.658,-1.2,3.07,-0.69,-0.72,-0.28,0.63
9.658,-1.12,2.85,-0.72,-0.72,-0.28,0.63
9.659,-1.12,2.85,-0.72,-0.72,-0.28,0.63
9.663,-1.12,2.85,-0.72,-0.77,-0.24,0.78
9.664,-1.12,2.85,-0.72,-0.77,-0.24,0.78
9.664,-1,2.69,-0.72,-0.77,-0.24,0.78
9.664,-1,2.69,-0.72,-0.77,-0.24,0.78
9.672,-1,2.69,-0.72,-0.81,-0.21,0.84
9.673,-1,2.69,-0.72,-0.81,-0.21,0.84
9.673,-0.87,2.57,-0.62,-0.81,-0.21,0.84
9.674,-0.87,2.57,-0.62,-0.81,-0.21,0.84
9.682,-0.87,2.57,-0.62,-0.82,-0.22,0.81
9.683,-0.87,2.57,-0.62,-0.82,-0.22,0.81
9.683,-0.77,2.51,-0.45,-0.82,-0.22,0.81
9.683,-0.77,2.51,-0.45,-0.82,-0.22,0.81
9.692,-0.77,2.51,-0.45,-0.79,-0.25,0.7
9.693,-0.77,2.51,-0.45,-0.79,-0.25,0.7
9.693,-0.72,2.52,-0.25,-0.79,-0.25,0.7
9.693,-0.72,2.52,-0.25,-0.79,-0.25,0.7
9.703,-0.72,2.52,-0.25,-0.71,-0.29,0.54
9.704,-0.72,2.52,-0.25,-0.71,-0.29,0.54
9.704,-0.77,2.58,-0.03,-0.71,-0.29,0.54
9.705,-0.77,2.58,-0.03,-0.71,-0.29,0.54
9.71,-0.77,2.58,-0.03,-0.71,-0.29,0.54
9.711,-0.77,2.58,-0.03,-0.71,-0.29,0.54
9.712,-0.77,2.58,-0.03,-0.71,-0.29,0.54
9.712,-0.77,2.58,-0.03,-0.71,-0.29,0.54
9.72,-0.77,2.58,-0.03,-0.57,-0.33,0.39
9.721,-0.77,2.58,-0.03,-0.57,-0.33,0.39
9.722,-0.9,2.77,0.26,-0.57,-0.33,0.39
9.723,-0.9,2.77,0.26,-0.57,-0.33,0.39
9.729,-0.9,2.77,0.26,-0.38,-0.33,0.29
9.73,-0.9,2.77,0.26,-0.38,-0.33,0.29
9.731,-0.9,2.88,0.41,-0.38,-0.33,0.29
9.731,-0.9,2.88,0.41,-0.38,-0.33,0.29
9.739,-0.9,2.88,0.41,-0.14,-0.29,0.26
9.74,-0.9,2.88,0.41,-0.14,-0.29,0.26
9.741,-0.83,3,0.52,-0.14,-0.29,0.26
9.741,-0.83,3,0.52,-0.14,-0.29,0.26
9.753,-0.83,3,0.52,0.11,-0.2,0.29
9.754,-0.83,3,0.52,0.11,-0.2,0.29
9.754,-0.65,3.11,0.55,0.11,-0.2,0.29
9.755,-0.65,3.11,0.55,0.11,-0.2,0.29
9.759,-0.65,3.11,0.55,0.35,-0.11,0.34
9.759,-0.65,3.11,0.55,0.35,-0.11,0.34
9.76,-0.37,3.14,0.54,0.35,-0.11,0.34
9.76,-0.37,3.14,0.54,0.35,-0.11,0.34
9.776,-0.37,3.14,0.54,0.53,-0.04,0.36
9.776,-0.37,3.14,0.54,0.53,-0.04,0.36
9.777,0.01,3.04,0.46,0.53,-0.04,0.36
9.777,0.01,3.04,0.46,0.53,-0.04,0.36
9.777,0.01,3.04,0.46,0.63,-0.01,0.31
9.778,0.01,3.04,0.46,0.63,-0.01,0.31
9.778,0.52,2.71,0.29,0.63,-0.01,0.31
9.778,0.52,2.71,0.29,0.63,-0.01,0.31
9.787,0.52,2.71,0.29,0.66,-0.01,0.13
9.787,0.52,2.71,0.29,0.66,-0.01,0.13
9.788,1.11,2.14,0.03,0.66,-0.01,0.13
9.788,1.11,2.14,0.03,0.66,-0.01,0.13
9.797,1.11,2.14,0.03,0.59,-0.07,-0.18
9.797,1.11,2.14,0.03,0.59,-0.07,-0.18
9.798,1.72,0.64,-0.35,0.59,-0.07,-0.18
9.798,1.72,0.64,-0.35,0.59,-0.07,-0.18
9.806,1.72,0.64,-0.35,0.45,-0.18,-0.65
9.807,1.72,0.64,-0.35,0.45,-0.18,-0.65
9.808,2.28,0.18,-0.84,0.45,-0.18,-0.65
9.808,2.28,0.18,-0.84,0.45,-0.18,-0.65
9.816,2.28,0.18,-0.84,0.23,-0.35,-1.23
9.817,2.28,0.18,-0.84,0.23,-0.35,-1.23
9.818,2.76,-0.28,-1.34,0.23,-0.35,-1.23
9.818,2.76,-0.28,-1.34,0.23,-0.35,-1.23
9.824,2.76,-0.28,-1.34,-0.04,-0.53,-1.85
9.825,2.76,-0.28,-1.34,-0.04,-0.53,-1.85
9.826,3.05,-0.58,-1.81,-0.04,-0.53,-1.85
9.826,3.05,-0.58,-1.81,-0.04,-0.53,-1.85
9.834,3.05,-0.58,-1.81,-0.35,-0.72,-2.39
9.835,3.05,-0.58,-1.81,-0.35,-0.72,-2.39
9.835,3.16,-0.64,-2.19,-0.35,-0.72,-2.39
9.836,3.16,-0.64,-2.19,-0.35,-0.72,-2.39
9.844,3.16,-0.64,-2.19,-0.67,-0.91,-2.79
9.844,3.16,-0.64,-2.19,-0.67,-0.91,-2.79
9.845,3.04,-0.47,-2.5,-0.67,-0.91,-2.79
9.846,3.04,-0.47,-2.5,-0.67,-0.91,-2.79
9.854,3.04,-0.47,-2.5,-0.98,-1.09,-3.01
9.855,3.04,-0.47,-2.5,-0.98,-1.09,-3.01
9.856,2.69,-0.13,-2.76,-0.98,-1.09,-3.01
9.856,2.69,-0.13,-2.76,-0.98,-1.09,-3.01
9.881,2.69,-0.13,-2.76,-1.25,-1.26,-3.05
9.882,2.69,-0.13,-2.76,-1.25,-1.26,-3.05
9.882,2.21,0.28,-2.95,-1.25,-1.26,-3.05
9.882,2.21,0.28,-2.95,-1.25,-1.26,-3.05
9.883,2.21,0.28,-2.95,-1.48,-1.43,-2.92
9.883,2.21,0.28,-2.95,-1.48,-1.43,-2.92
9.883,1.72,0.67,-2.99,-1.48,-1.43,-2.92
9.884,1.72,0.67,-2.99,-1.48,-1.43,-2.92
9.884,1.72,0.67,-2.99,-1.67,-1.6,-2.64
9.884,1.72,0.67,-2.99,-1.67,-1.6,-2.64
9.884,1.35,1,-2.8,-1.67,-1.6,-2.64
9.885,1.35,1,-2.8,-1.67,-1.6,-2.64
9.891,1.35,1,-2.8,-1.81,-1.76,-2.25
9.892,1.35,1,-2.8,-1.81,-1.76,-2.25
9.892,1.13,1.22,-2.34,-1.81,-1.76,-2.25
9.893,1.13,1.22,-2.34,-1.81,-1.76,-2.25
9.902,1.13,1.22,-2.34,-1.88,-1.87,-1.79
9.903,1.13,1.22,-2.34,-1.88,-1.87,-1.79
9.903,1.01,1.26,-0.44,-1.88,-1.87,-1.79
9.904,1.01,1.26,-0.44,-1.88,-1.87,-1.79
9.911,1.01,1.26,-0.44,-1.88,-1.87,-1.79
9.912,1.01,1.26,-0.44,-1.88,-1.87,-1.79
9.913,1.01,1.26,-0.44,-1.88,-1.87,-1.79
9.913,1.01,1.26,-0.44,-1.88,-1.87,-1.79
9.92,1.01,1.26,-0.44,-1.81,-1.9,-1.3
9.921,1.01,1.26,-0.44,-1.81,-1.9,-1.3
9.922,0.67,0.98,1.78,-1.81,-1.9,-1.3
9.922,0.67,0.98,1.78,-1.81,-1.9,-1.3
9.93,0.67,0.98,1.78,-1.47,-1.74,-0.79
9.93,0.67,0.98,1.78,-1.47,-1.74,-0.79
9.931,0.4,0.76,2.04,-1.47,-1.74,-0.79
9.931,0.4,0.76,2.04,-1.47,-1.74,-0.79
9.939,0.4,0.76,2.04,-0.74,-1.32,-0.23
9.94,0.4,0.76,2.04,-0.74,-1.32,-0.23
9.94,0.09,0.55,2.34,-0.74,-1.32,-0.23
9.941,0.09,0.55,2.34,-0.74,-1.32,-0.23
9.953,0.09,0.55,2.34,0.26,-0.71,0.36
9.954,0.09,0.55,2.34,0.26,-0.71,0.36
9.955,-0.23,0.39,2.47,0.26,-0.71,0.36
9.955,-0.23,0.39,2.47,0.26,-0.71,0.36
9.958,-0.23,0.39,2.47,1.28,-0.09,0.91
9.959,-0.23,0.39,2.47,1.28,-0.09,0.91
9.959,-0.58,0.23,2.33,1.28,-0.09,0.91
9.959,-0.58,0.23,2.33,1.28,-0.09,0.91
9.974,-0.58,0.23,2.33,2.08,0.4,1.36
9.975,-0.58,0.23,2.33,2.08,0.4,1.36
9.975,-0.96,0.06,1.89,2.08,0.4,1.36
9.975,-0.96,0.06,1.89,2.08,0.4,1.36
9.977,-0.96,0.06,1.89,2.58,0.72,1.72
9.978,-0.96,0.06,1.89,2.58,0.72,1.72
9.978,-1.29,-0.06,0.15,2.58,0.72,1.72
9.978,-1.29,-0.06,0.15,2.58,0.72,1.72
9.987,-1.29,-0.06,0.15,2.73,0.88,2.01
9.988,-1.29,-0.06,0.15,2.73,0.88,2.01
9.988,-1.46,-0.14,-0.15,2.73,0.88,2.01
9.988,-1.46,-0.14,-0.15,2.73,0.88,2.01
9.997,-1.46,-0.14,-0.15,2.49,0.88,2.22
9.998,-1.46,-0.14,-0.15,2.49,0.88,2.22
9.998,-1.41,-0.08,-0.56,2.49,0.88,2.22
9.999,-1.41,-0.08,-0.56,2.49,0.88,2.22
10.006,-1.41,-0.08,-0.56,1.92,0.74,2.35
10.007,-1.41,-0.08,-0.56,1.92,0.74,2.35
10.008,-1.16,0.14,-0.75,1.92,0.74,2.35
10.008,-1.16,0.14,-0.75,1.92,0.74,2.35
10.015,-1.16,0.14,-0.75,1.2,0.51,2.36
10.017,-1.16,0.14,-0.75,1.2,0.51,2.36
10.017,-0.81,0.47,-0.65,1.2,0.51,2.36
10.018,-0.81,0.47,-0.65,1.2,0.51,2.36
10.025,-0.81,0.47,-0.65,0.52,0.25,2.24
10.026,-0.81,0.47,-0.65,0.52,0.25,2.24
10.027,-0.46,0.85,-0.29,0.52,0.25,2.24
10.027,-0.46,0.85,-0.29,0.52,0.25,2.24
10.035,-0.46,0.85,-0.29,-0.02,-0.01,2
10.035,-0.46,0.85,-0.29,-0.02,-0.01,2
10.036,-0.21,1.08,0.21,-0.02,-0.01,2
10.037,-0.21,1.08,0.21,-0.02,-0.01,2
10.043,-0.21,1.08,0.21,-0.38,-0.25,1.65
10.044,-0.21,1.08,0.21,-0.38,-0.25,1.65
10.045,-0.1,1.02,0.77,-0.38,-0.25,1.65
10.045,-0.1,1.02,0.77,-0.38,-0.25,1.65
10.053,-0.1,1.02,0.77,-0.53,-0.4,1.26
10.054,-0.1,1.02,0.77,-0.53,-0.4,1.26
10.054,-0.19,0.56,1.28,-0.53,-0.4,1.26
10.055,-0.19,0.56,1.28,-0.53,-0.4,1.26
10.079,-0.19,0.56,1.28,-0.45,-0.45,0.89
10.08,-0.19,0.56,1.28,-0.45,-0.45,0.89
10.08,-0.44,-1.25,1.7,-0.45,-0.45,0.89
10.081,-0.44,-1.25,1.7,-0.45,-0.45,0.89
10.081,-0.44,-1.25,1.7,-0.17,-0.4,0.58
10.081,-0.44,-1.25,1.7,-0.17,-0.4,0.58
10.082,-0.72,-2.78,1.94,-0.17,-0.4,0.58
10.082,-0.72,-2.78,1.94,-0.17,-0.4,0.58
10.082,-0.72,-2.78,1.94,0.27,-0.26,0.33
10.082,-0.72,-2.78,1.94,0.27,-0.26,0.33
10.083,-0.96,-3.37,2,0.27,-0.26,0.33
10.083,-0.96,-3.37,2,0.27,-0.26,0.33
10.092,-0.96,-3.37,2,0.75,-0.09,0.16
10.092,-0.96,-3.37,2,0.75,-0.09,0.16
10.093,-1.05,-3.76,1.93,0.75,-0.09,0.16
10.093,-1.05,-3.76,1.93,0.75,-0.09,0.16
10.101,-1.05,-3.76,1.93,1.15,0.08,0.05
10.102,-1.05,-3.76,1.93,1.15,0.08,0.05
10.102,-1,-3.71,1.74,1.15,0.08,0.05
10.102,-1,-3.71,1.74,1.15,0.08,0.05
10.112,-1,-3.71,1.74,1.15,0.08,0.05
10.113,-1,-3.71,1.74,1.15,0.08,0.05
10.114,-1,-3.71,1.74,1.15,0.08,0.05
10.114,-1,-3.71,1.74,1.15,0.08,0.05
10.12,-1,-3.71,1.74,1.39,0.2,0
10.121,-1,-3.71,1.74,1.39,0.2,0
10.122,-0.84,-1.8,1.18,1.39,0.2,0
10.122,-0.84,-1.8,1.18,1.39,0.2,0
10.13,-0.84,-1.8,1.18,1.44,0.26,-0.02
10.131,-0.84,-1.8,1.18,1.44,0.26,-0.02
10.131,-0.9,-1.55,0.89,1.44,0.26,-0.02
10.132,-0.9,-1.55,0.89,1.44,0.26,-0.02
10.139,-0.9,-1.55,0.89,1.33,0.27,-0.02
10.14,-0.9,-1.55,0.89,1.33,0.27,-0.02
10.141,-1.11,-1.33,0.71,1.33,0.27,-0.02
10.142,-1.11,-1.33,0.71,1.33,0.27,-0.02
10.152,-1.11,-1.33,0.71,1.09,0.26,0.01
10.153,-1.11,-1.33,0.71,1.09,0.26,0.01
10.154,-1.36,-1.14,0.74,1.09,0.26,0.01
10.155,-1.36,-1.14,0.74,1.09,0.26,0.01
10.158,-1.36,-1.14,0.74,0.8,0.27,0.08
10.159,-1.36,-1.14,0.74,0.8,0.27,0.08
10.159,-1.55,-0.94,0.95,0.8,0.27,0.08
10.16,-1.55,-0.94,0.95,0.8,0.27,0.08
10.19,-1.55,-0.94,0.95,0.54,0.33,0.19
10.191,-1.55,-0.94,0.95,0.54,0.33,0.19
10.191,-1.64,-0.8,1.32,0.54,0.33,0.19
10.192,-1.64,-0.8,1.32,0.54,0.33,0.19
10.192,-1.64,-0.8,1.32,0.39,0.47,0.14
10.192,-1.64,-0.8,1.32,0.39,0.47,0.14
10.192,-1.59,-0.8,1.71,0.39,0.47,0.14
10.193,-1.59,-0.8,1.71,0.39,0.47,0.14
10.193,-1.59,-0.8,1.71,0.36,0.67,0.14
10.193,-1.59,-0.8,1.71,0.36,0.67,0.14
10.194,-1.48,-1.01,2.15,0.36,0.67,0.14
10.194,-1.48,-1.01,2.15,0.36,0.67,0.14
10.199,-1.48,-1.01,2.15,0.47,0.9,0.35
10.2,-1.48,-1.01,2.15,0.47,0.9,0.35
10.2,-1.33,-1.44,2.62,0.47,0.9,0.35
10.2,-1.33,-1.44,2.62,0.47,0.9,0.35
10.205,-1.33,-1.44,2.62,0.32,1.12,0.47
10.206,-1.33,-1.44,2.62,0.32,1.12,0.47
10.206,-1,-1.88,3.1,0.32,1.12,0.47
10.207,-1,-1.88,3.1,0.32,1.12,0.47
10.215,-1,-1.88,3.1,0.33,1.3,0.5
10.216,-1,-1.88,3.1,0.33,1.3,0.5
10.217,-0.45,-2.18,3.61,0.33,1.3,0.5
10.217,-0.45,-2.18,3.61,0.33,1.3,0.5
10.225,-0.45,-2.18,3.61,0.8,1.41,0.41
10.226,-0.45,-2.18,3.61,0.8,1.41,0.41
10.227,1.37,-2.3,4.05,0.8,1.41,0.41
10.228,1.37,-2.3,4.05,0.8,1.41,0.41
10.234,1.37,-2.3,4.05,1.24,1.39,0.18
10.235,1.37,-2.3,4.05,1.24,1.39,0.18
10.236,1.78,-2.25,4.38,1.24,1.39,0.18
10.237,1.78,-2.25,4.38,1.24,1.39,0.18
10.243,1.78,-2.25,4.38,1.61,1.18,-0.23
10.244,1.78,-2.25,4.38,1.61,1.18,-0.23
10.244,2.36,-2.17,4.56,1.61,1.18,-0.23
10.244,2.36,-2.17,4.56,1.61,1.18,-0.23
10.253,2.36,-2.17,4.56,1.91,0.82,-0.76
10.254,2.36,-2.17,4.56,1.91,0.82,-0.76
10.254,2.91,-2.1,4.54,1.91,0.82,-0.76
10.255,2.91,-2.1,4.54,1.91,0.82,-0.76
10.275,2.91,-2.1,4.54,2.13,0.42,-1.31
10.276,2.91,-2.1,4.54,2.13,0.42,-1.31
10.276,3.38,-1.94,4.29,2.13,0.42,-1.31
10.276,3.38,-1.94,4.29,2.13,0.42,-1.31
10.276,3.38,-1.94,4.29,2.25,0.03,-1.79
10.277,3.38,-1.94,4.29,2.25,0.03,-1.79
10.277,3.67,-1.71,3.76,2.25,0.03,-1.79
10.277,3.67,-1.71,3.76,2.25,0.03,-1.79
10.284,3.67,-1.71,3.76,2.25,-0.32,-2.15
10.284,3.67,-1.71,3.76,2.25,-0.32,-2.15
10.285,3.75,-1.39,3.07,2.25,-0.32,-2.15
10.285,3.75,-1.39,3.07,2.25,-0.32,-2.15
10.291,3.75,-1.39,3.07,2.11,-0.62,-2.41
10.292,3.75,-1.39,3.07,2.11,-0.62,-2.41
10.292,3.58,-1.01,2.38,2.11,-0.62,-2.41
10.293,3.58,-1.01,2.38,2.11,-0.62,-2.41
10.301,3.58,-1.01,2.38,2.11,-0.62,-2.41
10.302,3.58,-1.01,2.38,2.11,-0.62,-2.41
10.303,3.58,-1.01,2.38,2.11,-0.62,-2.41
10.304,3.58,-1.01,2.38,2.11,-0.62,-2.41
10.309,3.58,-1.01,2.38,1.84,-0.88,-2.54
10.31,3.58,-1.01,2.38,1.84,-0.88,-2.54
10.311,2.69,-0.24,1.71,1.84,-0.88,-2.54
10.311,2.69,-0.24,1.71,1.84,-0.88,-2.54
10.32,2.69,-0.24,1.71,1.46,-1.07,-2.54
10.321,2.69,-0.24,1.71,1.46,-1.07,-2.54
10.322,2.18,0.05,1.83,1.46,-1.07,-2.54
10.322,2.18,0.05,1.83,1.46,-1.07,-2.54
10.329,2.18,0.05,1.83,1.03,-1.18,-2.36
10.33,2.18,0.05,1.83,1.03,-1.18,-2.36
10.331,1.77,0.28,2.16,1.03,-1.18,-2.36
10.331,1.77,0.28,2.16,1.03,-1.18,-2.36
10.339,1.77,0.28,2.16,0.63,-1.18,-2.03
10.34,1.77,0.28,2.16,0.63,-1.18,-2.03
10.34,1.39,0.4,2.59,0.63,-1.18,-2.03
10.341,1.39,0.4,2.59,0.63,-1.18,-2.03
10.348,1.39,0.4,2.59,0.35,-1.04,-1.58
10.349,1.39,0.4,2.59,0.35,-1.04,-1.58
10.349,1.08,0.43,3.03,0.35,-1.04,-1.58
10.35,1.08,0.43,3.03,0.35,-1.04,-1.58
10.358,1.08,0.43,3.03,0.24,-0.78,-1.09
10.359,1.08,0.43,3.03,0.24,-0.78,-1.09
10.359,0.82,0.4,3.35,0.24,-0.78,-1.09
10.36,0.82,0.4,3.35,0.24,-0.78,-1.09
10.373,0.82,0.4,3.35,0.5,-0.05,-0.17
10.374,0.82,0.4,3.35,0.5,-0.05,-0.17
10.374,0.57,0.35,3.38,0.5,-0.05,-0.17
10.374,0.57,0.35,3.38,0.5,-0.05,-0.17
10.377,0.57,0.35,3.38,0.5,-0.05,-0.17
10.377,0.57,0.35,3.38,0.5,-0.05,-0.17
10.378,0.57,0.35,3.38,0.5,-0.05,-0.17
10.378,0.57,0.35,3.38,0.5,-0.05,-0.17
10.396,0.57,0.35,3.38,0.76,0.3,0.22
10.397,0.57,0.35,3.38,0.76,0.3,0.22
10.397,0.3,0.1,3.1,0.76,0.3,0.22
10.397,0.3,0.1,3.1,0.76,0.3,0.22
10.398,0.3,0.1,3.1,0.98,0.59,0.53
10.398,0.3,0.1,3.1,0.98,0.59,0.53
10.398,0.22,-0.07,2.59,0.98,0.59,0.53
10.398,0.22,-0.07,2.59,0.98,0.59,0.53
10.405,0.22,-0.07,2.59,1.09,0.78,0.77
10.405,0.22,-0.07,2.59,1.09,0.78,0.77
10.405,0.13,-0.2,1.89,1.09,0.78,0.77
10.406,0.13,-0.2,1.89,1.09,0.78,0.77
10.415,0.13,-0.2,1.89,1.06,0.88,0.94
10.416,0.13,-0.2,1.89,1.06,0.88,0.94
10.416,0.04,-0.24,1.21,1.06,0.88,0.94
10.417,0.04,-0.24,1.21,1.06,0.88,0.94
10.425,0.04,-0.24,1.21,0.85,0.89,1.07
10.425,0.04,-0.24,1.21,0.85,0.89,1.07
10.426,-0.05,-0.18,0.58,0.85,0.89,1.07
10.426,-0.05,-0.18,0.58,0.85,0.89,1.07
10.451,-0.05,-0.18,0.58,0.5,0.82,1.15
10.452,-0.05,-0.18,0.58,0.5,0.82,1.15
10.453,-0.07,-0.05,0.12,0.5,0.82,1.15
10.453,-0.07,-0.05,0.12,0.5,0.82,1.15
10.454,-0.07,-0.05,0.12,0.5,0.82,1.15
10.454,-0.07,-0.05,0.12,0.5,0.82,1.15
10.455,-0.07,-0.05,0.12,0.5,0.82,1.15
10.456,-0.07,-0.05,0.12,0.5,0.82,1.15
10.456,-0.07,-0.05,0.12,-0.4,0.55,1.21
10.457,-0.07,-0.05,0.12,-0.4,0.55,1.21
10.457,0.34,0.2,-0.14,-0.4,0.55,1.21
10.458,0.34,0.2,-0.14,-0.4,0.55,1.21
10.465,0.34,0.2,-0.14,-0.81,0.37,1.15
10.466,0.34,0.2,-0.14,-0.81,0.37,1.15
10.466,0.69,0.28,-0.07,-0.81,0.37,1.15
10.467,0.69,0.28,-0.07,-0.81,0.37,1.15
10.489,0.69,0.28,-0.07,-1.11,0.17,1.02
10.49,0.69,0.28,-0.07,-1.11,0.17,1.02
10.491,1.06,0.34,0.08,-1.11,0.17,1.02
10.491,1.06,0.34,0.08,-1.11,0.17,1.02
10.491,1.06,0.34,0.08,-1.27,-0.04,0.82
10.491,1.06,0.34,0.08,-1.27,-0.04,0.82
10.492,1.34,0.35,0.24,-1.27,-0.04,0.82
10.492,1.34,0.35,0.24,-1.27,-0.04,0.82
10.492,1.34,0.35,0.24,-1.3,-0.25,0.55
10.492,1.34,0.35,0.24,-1.3,-0.25,0.55
10.493,1.55,0.4,0.38,-1.3,-0.25,0.55
10.493,1.55,0.4,0.38,-1.3,-0.25,0.55
10.501,1.55,0.4,0.38,-1.3,-0.25,0.55
10.502,1.55,0.4,0.38,-1.3,-0.25,0.55
10.502,1.55,0.4,0.38,-1.3,-0.25,0.55
10.502,1.55,0.4,0.38,-1.3,-0.25,0.55
10.51,1.55,0.4,0.38,-1.19,-0.44,0.24
10.511,1.55,0.4,0.38,-1.19,-0.44,0.24
10.511,1.78,0.43,0.36,-1.19,-0.44,0.24
10.512,1.78,0.43,0.36,-1.19,-0.44,0.24
10.52,1.78,0.43,0.36,-1.01,-0.61,-0.1
10.521,1.78,0.43,0.36,-1.01,-0.61,-0.1
10.522,1.82,0.5,0.11,-1.01,-0.61,-0.1
10.522,1.82,0.5,0.11,-1.01,-0.61,-0.1
10.529,1.82,0.5,0.11,-0.8,-0.76,-0.41
10.53,1.82,0.5,0.11,-0.8,-0.76,-0.41
10.53,1.86,0.55,-0.29,-0.8,-0.76,-0.41
10.531,1.86,0.55,-0.29,-0.8,-0.76,-0.41
10.538,1.86,0.55,-0.29,-0.63,-0.88,-0.69
10.539,1.86,0.55,-0.29,-0.63,-0.88,-0.69
10.54,1.87,0.59,-0.74,-0.63,-0.88,-0.69
10.54,1.87,0.59,-0.74,-0.63,-0.88,-0.69
10.548,1.87,0.59,-0.74,-0.55,-1,-0.9
10.549,1.87,0.59,-0.74,-0.55,-1,-0.9
10.55,1.87,0.57,-1.13,-0.55,-1,-0.9
10.55,1.87,0.57,-1.13,-0.55,-1,-0.9
10.558,1.87,0.57,-1.13,-0.58,-1.13,-1.04
10.559,1.87,0.57,-1.13,-0.58,-1.13,-1.04
10.559,1.84,0.47,-1.44,-0.58,-1.13,-1.04
10.56,1.84,0.47,-1.44,-0.58,-1.13,-1.04
10.567,1.84,0.47,-1.44,-0.7,-1.26,-1.12
10.568,1.84,0.47,-1.44,-0.7,-1.26,-1.12
10.569,1.79,0.36,-1.6,-0.7,-1.26,-1.12
10.569,1.79,0.36,-1.6,-0.7,-1.26,-1.12
10.576,1.79,0.36,-1.6,-0.87,-1.39,-1.15
10.577,1.79,0.36,-1.6,-0.87,-1.39,-1.15
10.578,1.78,0.28,-1.68,-0.87,-1.39,-1.15
10.578,1.78,0.28,-1.68,-0.87,-1.39,-1.15
10.595,1.78,0.28,-1.68,-1.04,-1.49,-1.14
10.595,1.78,0.28,-1.68,-1.04,-1.49,-1.14
10.596,1.83,0.33,-1.85,-1.04,-1.49,-1.14
10.596,1.83,0.33,-1.85,-1.04,-1.49,-1.14
10.596,1.83,0.33,-1.85,-1.17,-1.54,-1.11
10.596,1.83,0.33,-1.85,-1.17,-1.54,-1.11
10.597,1.87,0.48,-2.24,-1.17,-1.54,-1.11
10.597,1.87,0.48,-2.24,-1.17,-1.54,-1.11
10.605,1.87,0.48,-2.24,-1.26,-1.55,-1.07
10.605,1.87,0.48,-2.24,-1.26,-1.55,-1.07
10.605,1.86,0.66,-3.97,-1.26,-1.55,-1.07
10.606,1.86,0.66,-3.97,-1.26,-1.55,-1.07
10.614,1.86,0.66,-3.97,-1.38,-1.6,-1.04
10.615,1.86,0.66,-3.97,-1.38,-1.6,-1.04
10.615,1.69,0.84,-4.34,-1.38,-1.6,-1.04
10.616,1.69,0.84,-4.34,-1.38,-1.6,-1.04
10.624,1.69,0.84,-4.34,-1.62,-1.76,-1.02
10.625,1.69,0.84,-4.34,-1.62,-1.76,-1.02
10.625,1.24,1.03,-4.62,-1.62,-1.76,-1.02
10.626,1.24,1.03,-4.62,-1.62,-1.76,-1.02
10.633,1.24,1.03,-4.62,-2,-2.03,-0.99
10.634,1.24,1.03,-4.62,-2,-2.03,-0.99
10.634,-0.56,1.24,-4.3,-2,-2.03,-0.99
10.635,-0.56,1.24,-4.3,-2,-2.03,-0.99
10.643,-0.56,1.24,-4.3,-2.39,-2.28,-0.87
10.644,-0.56,1.24,-4.3,-2.39,-2.28,-0.87
10.645,-1.01,1.47,-2.33,-2.39,-2.28,-0.87
10.645,-1.01,1.47,-2.33,-2.39,-2.28,-0.87
10.653,-1.01,1.47,-2.33,-2.61,-2.28,-0.52
10.654,-1.01,1.47,-2.33,-2.61,-2.28,-0.52
10.654,-2.56,1.73,-0.28,-2.61,-2.28,-0.52
10.655,-2.56,1.73,-0.28,-2.61,-2.28,-0.52
10.679,-2.56,1.73,-0.28,-2.45,-1.8,0.16
10.68,-2.56,1.73,-0.28,-2.45,-1.8,0.16
10.68,-3,1.94,0.36,-2.45,-1.8,0.16
10.68,-3,1.94,0.36,-2.45,-1.8,0.16
10.681,-3,1.94,0.36,-1.8,-0.72,1.15
10.681,-3,1.94,0.36,-1.8,-0.72,1.15
10.681,-3.42,2.09,0.77,-1.8,-0.72,1.15
10.681,-3.42,2.09,0.77,-1.8,-0.72,1.15
10.682,-3.42,2.09,0.77,-0.69,0.84,2.27
10.682,-3.42,2.09,0.77,-0.69,0.84,2.27
10.682,-3.69,2.17,0.78,-0.69,0.84,2.27
10.683,-3.69,2.17,0.78,-0.69,0.84,2.27
10.691,-3.69,2.17,0.78,-0.69,0.84,2.27
10.691,-3.69,2.17,0.78,-0.69,0.84,2.27
10.692,-3.69,2.17,0.78,-0.69,0.84,2.27
10.692,-3.69,2.17,0.78,-0.69,0.84,2.27
10.7,-3.69,2.17,0.78,0.63,2.47,3.25
10.701,-3.69,2.17,0.78,0.63,2.47,3.25
10.701,-3.43,2.12,0.29,0.63,2.47,3.25
10.701,-3.43,2.12,0.29,0.63,2.47,3.25
10.711,-3.43,2.12,0.29,1.82,3.77,3.89
10.711,-3.43,2.12,0.29,1.82,3.77,3.89
10.711,-2.89,2.06,0.31,1.82,3.77,3.89
10.712,-2.89,2.06,0.31,1.82,3.77,3.89
10.719,-2.89,2.06,0.31,2.66,4.54,4.14
10.72,-2.89,2.06,0.31,2.66,4.54,4.14
10.72,-1.21,2.04,0.66,2.66,4.54,4.14
10.721,-1.21,2.04,0.66,2.66,4.54,4.14
10.729,-1.21,2.04,0.66,3.09,4.74,4.01
10.729,-1.21,2.04,0.66,3.09,4.74,4.01
10.73,0.53,2.05,1.25,3.09,4.74,4.01
10.73,0.53,2.05,1.25,3.09,4.74,4.01
10.738,0.53,2.05,1.25,3.19,4.37,3.45
10.739,0.53,2.05,1.25,3.19,4.37,3.45
10.739,0.87,2.01,1.82,3.19,4.37,3.45
10.739,0.87,2.01,1.82,3.19,4.37,3.45
10.747,0.87,2.01,1.82,3.12,3.49,2.48
10.748,0.87,2.01,1.82,3.12,3.49,2.48
10.748,1.39,1.83,2.06,3.12,3.49,2.48
10.748,1.39,1.83,2.06,3.12,3.49,2.48
10.757,1.39,1.83,2.06,3.05,2.37,1.28
10.758,1.39,1.83,2.06,3.05,2.37,1.28
10.758,1.86,1.46,1.82,3.05,2.37,1.28
10.759,1.86,1.46,1.82,3.05,2.37,1.28
10.767,1.86,1.46,1.82,3.02,1.29,0.08
10.768,1.86,1.46,1.82,3.02,1.29,0.08
10.769,2.19,0.91,0.19,3.02,1.29,0.08
10.769,2.19,0.91,0.19,3.02,1.29,0.08
10.776,2.19,0.91,0.19,2.89,0.42,-0.97
10.777,2.19,0.91,0.19,2.89,0.42,-0.97
10.777,2.43,0.28,-0.08,2.89,0.42,-0.97
10.777,2.43,0.28,-0.08,2.89,0.42,-0.97
10.789,2.43,0.28,-0.08,2.5,-0.27,-1.81
10.79,2.43,0.28,-0.08,2.5,-0.27,-1.81
10.791,2.6,-0.27,-0.51,2.5,-0.27,-1.81
10.791,2.6,-0.27,-0.51,2.5,-0.27,-1.81
10.799,2.6,-0.27,-0.51,1.84,-0.84,-2.43
10.8,2.6,-0.27,-0.51,1.84,-0.84,-2.43
10.8,2.65,-0.62,-0.85,1.84,-0.84,-2.43
10.8,2.65,-0.62,-0.85,1.84,-0.84,-2.43
10.805,2.65,-0.62,-0.85,1.04,-1.28,-2.82
10.806,2.65,-0.62,-0.85,1.04,-1.28,-2.82
10.806,2.58,-0.7,-1.07,1.04,-1.28,-2.82
10.806,2.58,-0.7,-1.07,1.04,-1.28,-2.82
10.814,2.58,-0.7,-1.07,0.3,-1.59,-2.99
10.815,2.58,-0.7,-1.07,0.3,-1.59,-2.99
10.816,2.35,-0.56,-1.21,0.3,-1.59,-2.99
10.817,2.35,-0.56,-1.21,0.3,-1.59,-2.99
10.824,2.35,-0.56,-1.21,-0.31,-1.77,-2.99
10.825,2.35,-0.56,-1.21,-0.31,-1.77,-2.99
10.825,1.99,-0.33,-1.24,-0.31,-1.77,-2.99
10.826,1.99,-0.33,-1.24,-0.31,-1.77,-2.99
10.834,1.99,-0.33,-1.24,-0.76,-1.85,-2.83
10.834,1.99,-0.33,-1.24,-0.76,-1.85,-2.83
10.835,1.59,-0.12,-1.24,-0.76,-1.85,-2.83
10.835,1.59,-0.12,-1.24,-0.76,-1.85,-2.83
10.843,1.59,-0.12,-1.24,-1.07,-1.83,-2.56
10.844,1.59,-0.12,-1.24,-1.07,-1.83,-2.56
10.845,1.18,0.03,-1.27,-1.07,-1.83,-2.56
10.845,1.18,0.03,-1.27,-1.07,-1.83,-2.56
10.853,1.18,0.03,-1.27,-1.27,-1.73,-2.2
10.854,1.18,0.03,-1.27,-1.27,-1.73,-2.2
10.854,0.75,0.13,-1.28,-1.27,-1.73,-2.2
10.855,0.75,0.13,-1.28,-1.27,-1.73,-2.2
10.879,0.75,0.13,-1.28,-1.37,-1.55,-1.77
10.88,0.75,0.13,-1.28,-1.37,-1.55,-1.77
10.881,0.28,0.21,-1.21,-1.37,-1.55,-1.77
10.881,0.28,0.21,-1.21,-1.37,-1.55,-1.77
10.882,0.28,0.21,-1.21,-1.41,-1.34,-1.3
10.882,0.28,0.21,-1.21,-1.41,-1.34,-1.3
10.883,-0.14,0.24,-1.08,-1.41,-1.34,-1.3
10.884,-0.14,0.24,-1.08,-1.41,-1.34,-1.3
10.884,-0.14,0.24,-1.08,-1.41,-1.34,-1.3
10.885,-0.14,0.24,-1.08,-1.41,-1.34,-1.3
10.885,-0.14,0.24,-1.08,-1.41,-1.34,-1.3
10.886,-0.14,0.24,-1.08,-1.41,-1.34,-1.3
10.89,-0.14,0.24,-1.08,-1.41,-1.1,-0.81
10.891,-0.14,0.24,-1.08,-1.41,-1.1,-0.81
10.891,-0.58,-0.23,-0.9,-1.41,-1.1,-0.81
10.892,-0.58,-0.23,-0.9,-1.41,-1.1,-0.81
10.9,-0.58,-0.23,-0.9,-1.36,-0.83,-0.31
10.902,-0.58,-0.23,-0.9,-1.36,-0.83,-0.31
10.903,-0.56,-2.05,-1,-1.36,-0.83,-0.31
10.904,-0.56,-2.05,-1,-1.36,-0.83,-0.31
10.909,-0.56,-2.05,-1,-1.28,-0.52,0.17
10.91,-0.56,-2.05,-1,-1.28,-0.52,0.17
10.91,-0.5,-2.46,-1.3,-1.28,-0.52,0.17
10.911,-0.5,-2.46,-1.3,-1.28,-0.52,0.17
10.919,-0.5,-2.46,-1.3,-1.18,-0.23,0.59
10.92,-0.5,-2.46,-1.3,-1.18,-0.23,0.59
10.92,-0.41,-3,-1.69,-1.18,-0.23,0.59
10.92,-0.41,-3,-1.69,-1.18,-0.23,0.59
10.928,-0.41,-3,-1.69,-1.08,-0.03,0.9
10.929,-0.41,-3,-1.69,-1.08,-0.03,0.9
10.93,-0.35,-3.34,-2.16,-1.08,-0.03,0.9
10.93,-0.35,-3.34,-2.16,-1.08,-0.03,0.9
10.938,-0.35,-3.34,-2.16,-1.04,0.04,1.05
10.939,-0.35,-3.34,-2.16,-1.04,0.04,1.05
10.939,-0.37,-3.3,-2.73,-1.04,0.04,1.05
10.939,-0.37,-3.3,-2.73,-1.04,0.04,1.05
10.948,-0.37,-3.3,-2.73,-1.08,-0.01,1.07
10.948,-0.37,-3.3,-2.73,-1.08,-0.01,1.07
10.949,-0.49,-2.97,-4.18,-1.08,-0.01,1.07
10.949,-0.49,-2.97,-4.18,-1.08,-0.01,1.07
10.957,-0.49,-2.97,-4.18,-1.23,-0.15,1.02
10.958,-0.49,-2.97,-4.18,-1.23,-0.15,1.02
10.959,-0.74,-2.59,-4.59,-1.23,-0.15,1.02
10.959,-0.74,-2.59,-4.59,-1.23,-0.15,1.02
10.967,-0.74,-2.59,-4.59,-1.49,-0.34,0.93
10.968,-0.74,-2.59,-4.59,-1.49,-0.34,0.93
10.968,-1.06,-2.37,-5.13,-1.49,-0.34,0.93
10.969,-1.06,-2.37,-5.13,-1.49,-0.34,0.93
10.976,-1.06,-2.37,-5.13,-1.85,-0.55,0.85
10.977,-1.06,-2.37,-5.13,-1.85,-0.55,0.85
10.977,-1.4,-2.35,-5.62,-1.85,-0.55,0.85
10.977,-1.4,-2.35,-5.62,-1.85,-0.55,0.85
10.986,-1.4,-2.35,-5.62,-2.22,-0.74,0.81
10.987,-1.4,-2.35,-5.62,-2.22,-0.74,0.81
10.987,-1.67,-2.46,-5.9,-2.22,-0.74,0.81
10.987,-1.67,-2.46,-5.9,-2.22,-0.74,0.81
10.995,-1.67,-2.46,-5.9,-2.55,-0.85,0.82
10.996,-1.67,-2.46,-5.9,-2.55,-0.85,0.82
10.996,-1.76,-2.61,-6,-2.55,-0.85,0.82
10.996,-1.76,-2.61,-6,-2.55,-0.85,0.82
11.005,-1.76,-2.61,-6,-2.79,-0.88,0.87
11.006,-1.76,-2.61,-6,-2.79,-0.88,0.87
11.006,-1.7,-2.73,-5.88,-2.79,-0.88,0.87
11.006,-1.7,-2.73,-5.88,-2.79,-0.88,0.87
11.014,-1.7,-2.73,-5.88,-2.91,-0.84,0.92
11.015,-1.7,-2.73,-5.88,-2.91,-0.84,0.92
11.016,-1.47,-2.79,-5.52,-2.91,-0.84,0.92
11.016,-1.47,-2.79,-5.52,-2.91,-0.84,0.92
11.024,-1.47,-2.79,-5.52,-2.89,-0.76,0.95
11.025,-1.47,-2.79,-5.52,-2.89,-0.76,0.95
11.025,-1.12,-2.78,-4.93,-2.89,-0.76,0.95
11.026,-1.12,-2.78,-4.93,-2.89,-0.76,0.95
11.033,-1.12,-2.78,-4.93,-2.73,-0.65,0.91
11.035,-1.12,-2.78,-4.93,-2.73,-0.65,0.91
11.035,-0.79,-2.68,-3.19,-2.73,-0.65,0.91
11.036,-0.79,-2.68,-3.19,-2.73,-0.65,0.91
11.042,-0.79,-2.68,-3.19,-2.41,-0.49,0.83
11.043,-0.79,-2.68,-3.19,-2.41,-0.49,0.83
11.043,-0.53,-2.58,-2.87,-2.41,-0.49,0.83
11.043,-0.53,-2.58,-2.87,-2.41,-0.49,0.83
11.052,-0.53,-2.58,-2.87,-1.93,-0.26,0.7
11.054,-0.53,-2.58,-2.87,-1.93,-0.26,0.7
11.054,-0.36,-2.48,-2.35,-1.93,-0.26,0.7
11.055,-0.36,-2.48,-2.35,-1.93,-0.26,0.7
11.064,-0.36,-2.48,-2.35,-1.34,0,0.56
11.065,-0.36,-2.48,-2.35,-1.34,0,0.56
11.065,-0.27,-2.43,-1.76,-1.34,0,0.56
11.065,-0.27,-2.43,-1.76,-1.34,0,0.56
11.072,-0.27,-2.43,-1.76,-0.72,0.25,0.4
11.072,-0.27,-2.43,-1.76,-0.72,0.25,0.4
11.072,-0.24,-2.46,-1.21,-0.72,0.25,0.4
11.073,-0.24,-2.46,-1.21,-0.72,0.25,0.4
11.09,-0.24,-2.46,-1.21,-0.72,0.25,0.4
11.091,-0.24,-2.46,-1.21,-0.72,0.25,0.4
11.092,-0.24,-2.46,-1.21,-0.72,0.25,0.4
11.093,-0.24,-2.46,-1.21,-0.72,0.25,0.4
11.093,-0.24,-2.46,-1.21,-0.15,0.43,0.24
11.094,-0.24,-2.46,-1.21,-0.15,0.43,0.24
11.094,-0.34,-2.45,-0.57,-0.15,0.43,0.24
11.095,-0.34,-2.45,-0.57,-0.15,0.43,0.24
11.1,-0.34,-2.45,-0.57,0.36,0.57,0.11
11.101,-0.34,-2.45,-0.57,0.36,0.57,0.11
11.101,-0.5,-2.29,-0.58,0.36,0.57,0.11
11.102,-0.5,-2.29,-0.58,0.36,0.57,0.11
11.109,-0.5,-2.29,-0.58,0.8,0.68,0.04
11.11,-0.5,-2.29,-0.58,0.8,0.68,0.04
11.111,-0.74,-1.94,-0.78,0.8,0.68,0.04
11.111,-0.74,-1.94,-0.78,0.8,0.68,0.04
11.119,-0.74,-1.94,-0.78,1.15,0.75,0.01
11.12,-0.74,-1.94,-0.78,1.15,0.75,0.01
11.121,-0.96,-1.42,-1.01,1.15,0.75,0.01
11.121,-0.96,-1.42,-1.01,1.15,0.75,0.01
11.128,-0.96,-1.42,-1.01,1.34,0.77,0.05
11.129,-0.96,-1.42,-1.01,1.34,0.77,0.05
11.13,-1.13,-0.81,-1.14,1.34,0.77,0.05
11.13,-1.13,-0.81,-1.14,1.34,0.77,0.05
11.138,-1.13,-0.81,-1.14,1.38,0.73,0.13
11.139,-1.13,-0.81,-1.14,1.38,0.73,0.13
11.14,-1.19,-0.16,-1.1,1.38,0.73,0.13
11.14,-1.19,-0.16,-1.1,1.38,0.73,0.13
11.147,-1.19,-0.16,-1.1,1.27,0.66,0.25
11.148,-1.19,-0.16,-1.1,1.27,0.66,0.25
11.149,-1.11,1.26,-0.96,1.27,0.66,0.25
11.149,-1.11,1.26,-0.96,1.27,0.66,0.25
11.156,-1.11,1.26,-0.96,1.07,0.56,0.37
11.157,-1.11,1.26,-0.96,1.07,0.56,0.37
11.158,-0.92,1.54,-0.81,1.07,0.56,0.37
11.159,-0.92,1.54,-0.81,1.07,0.56,0.37
11.168,-0.92,1.54,-0.81,0.86,0.45,0.47
11.169,-0.92,1.54,-0.81,0.86,0.45,0.47
11.17,-0.69,1.92,-0.74,0.86,0.45,0.47
11.171,-0.69,1.92,-0.74,0.86,0.45,0.47
11.177,-0.69,1.92,-0.74,0.65,0.34,0.53
11.177,-0.69,1.92,-0.74,0.65,0.34,0.53
11.178,-0.46,2.39,-0.73,0.65,0.34,0.53
11.178,-0.46,2.39,-0.73,0.65,0.34,0.53
11.199,-0.46,2.39,-0.73,0.46,0.21,0.53
11.2,-0.46,2.39,-0.73,0.46,0.21,0.53
11.2,-0.32,2.89,-0.73,0.46,0.21,0.53
11.2,-0.32,2.89,-0.73,0.46,0.21,0.53
11.2,-0.32,2.89,-0.73,0.29,0.07,0.45
11.201,-0.32,2.89,-0.73,0.29,0.07,0.45
11.201,-0.3,3.47,-0.73,0.29,0.07,0.45
11.201,-0.3,3.47,-0.73,0.29,0.07,0.45
11.204,-0.3,3.47,-0.73,0.13,-0.08,0.34
11.204,-0.3,3.47,-0.73,0.13,-0.08,0.34
11.205,-0.4,4.11,-0.63,0.13,-0.08,0.34
11.205,-0.4,4.11,-0.63,0.13,-0.08,0.34
11.214,-0.4,4.11,-0.63,-0.04,-0.23,0.21
11.215,-0.4,4.11,-0.63,-0.04,-0.23,0.21
11.215,-0.54,4.68,-0.51,-0.04,-0.23,0.21
11.215,-0.54,4.68,-0.51,-0.04,-0.23,0.21
11.224,-0.54,4.68,-0.51,-0.21,-0.37,0.12
11.224,-0.54,4.68,-0.51,-0.21,-0.37,0.12
11.225,-0.76,5.12,-0.38,-0.21,-0.37,0.12
11.225,-0.76,5.12,-0.38,-0.21,-0.37,0.12
11.233,-0.76,5.12,-0.38,-0.38,-0.48,0.11
11.234,-0.76,5.12,-0.38,-0.38,-0.48,0.11
11.234,-0.94,5.29,-0.26,-0.38,-0.48,0.11
11.235,-0.94,5.29,-0.26,-0.38,-0.48,0.11
11.242,-0.94,5.29,-0.26,-0.52,-0.56,0.19
11.243,-0.94,5.29,-0.26,-0.52,-0.56,0.19
11.244,-1.04,5.16,-0.16,-0.52,-0.56,0.19
11.244,-1.04,5.16,-0.16,-0.52,-0.56,0.19
11.252,-1.04,5.16,-0.16,-0.62,-0.59,0.36
11.253,-1.04,5.16,-0.16,-0.62,-0.59,0.36
11.254,-1.13,4.82,-0.09,-0.62,-0.59,0.36
11.255,-1.13,4.82,-0.09,-0.62,-0.59,0.36
11.266,-1.13,4.82,-0.09,-0.65,-0.6,0.59
11.267,-1.13,4.82,-0.09,-0.65,-0.6,0.59
11.268,-1.16,4.32,-0.05,-0.65,-0.6,0.59
11.268,-1.16,4.32,-0.05,-0.65,-0.6,0.59
11.271,-1.16,4.32,-0.05,-0.62,-0.59,0.83
11.272,-1.16,4.32,-0.05,-0.62,-0.59,0.83
11.273,-1.14,3.77,-0.02,-0.62,-0.59,0.83
11.273,-1.14,3.77,-0.02,-0.62,-0.59,0.83
11.291,-1.14,3.77,-0.02,-0.62,-0.59,0.83
11.292,-1.14,3.77,-0.02,-0.62,-0.59,0.83
11.292,-1.14,3.77,-0.02,-0.62,-0.59,0.83
11.292,-1.14,3.77,-0.02,-0.62,-0.59,0.83
11.292,-1.14,3.77,-0.02,-0.52,-0.57,1.02
11.293,-1.14,3.77,-0.02,-0.52,-0.57,1.02
11.293,-0.94,2.8,-0.09,-0.52,-0.57,1.02
11.293,-0.94,2.8,-0.09,-0.52,-0.57,1.02
11.3,-0.94,2.8,-0.09,-0.35,-0.54,1.1
11.301,-0.94,2.8,-0.09,-0.35,-0.54,1.1
11.302,-0.79,2.42,-0.1,-0.35,-0.54,1.1
11.302,-0.79,2.42,-0.1,-0.35,-0.54,1.1
11.309,-0.79,2.42,-0.1,-0.16,-0.53,1.04
11.31,-0.79,2.42,-0.1,-0.16,-0.53,1.04
11.311,-0.66,2.14,-0.06,-0.16,-0.53,1.04
11.312,-0.66,2.14,-0.06,-0.16,-0.53,1.04
11.319,-0.66,2.14,-0.06,0.02,-0.54,0.84
11.321,-0.66,2.14,-0.06,0.02,-0.54,0.84
11.322,-0.66,1.97,-0.02,0.02,-0.54,0.84
11.323,-0.66,1.97,-0.02,0.02,-0.54,0.84
11.328,-0.66,1.97,-0.02,0.16,-0.58,0.56
11.329,-0.66,1.97,-0.02,0.16,-0.58,0.56
11.329,-0.73,1.89,0.01,0.16,-0.58,0.56
11.33,-0.73,1.89,0.01,0.16,-0.58,0.56
11.337,-0.73,1.89,0.01,0.26,-0.62,0.3
11.338,-0.73,1.89,0.01,0.26,-0.62,0.3
11.339,-0.82,1.86,0.03,0.26,-0.62,0.3
11.34,-0.82,1.86,0.03,0.26,-0.62,0.3
11.347,-0.82,1.86,0.03,0.32,-0.64,0.1
11.348,-0.82,1.86,0.03,0.32,-0.64,0.1
11.348,-0.94,1.87,0.05,0.32,-0.64,0.1
11.349,-0.94,1.87,0.05,0.32,-0.64,0.1
11.357,-0.94,1.87,0.05,0.36,-0.61,0.01
11.358,-0.94,1.87,0.05,0.36,-0.61,0.01
11.358,-0.99,1.85,0.05,0.36,-0.61,0.01
11.359,-0.99,1.85,0.05,0.36,-0.61,0.01
11.367,-0.99,1.85,0.05,0.37,-0.56,0
11.368,-0.99,1.85,0.05,0.37,-0.56,0
11.369,-0.98,1.77,0.04,0.37,-0.56,0
11.369,-0.98,1.77,0.04,0.37,-0.56,0
11.375,-0.98,1.77,0.04,0.35,-0.5,0.05
11.376,-0.98,1.77,0.04,0.35,-0.5,0.05
11.377,-0.87,1.59,0.02,0.35,-0.5,0.05
11.378,-0.87,1.59,0.02,0.35,-0.5,0.05
11.391,-0.87,1.59,0.02,0.32,-0.44,0.11
11.391,-0.87,1.59,0.02,0.32,-0.44,0.11
11.392,-0.66,1.27,-0.04,0.32,-0.44,0.11
11.392,-0.66,1.27,-0.04,0.32,-0.44,0.11
11.4,-0.66,1.27,-0.04,0.28,-0.37,0.14
11.401,-0.66,1.27,-0.04,0.28,-0.37,0.14
11.401,-0.36,0.8,-0.14,0.28,-0.37,0.14
11.402,-0.36,0.8,-0.14,0.28,-0.37,0.14
11.404,-0.36,0.8,-0.14,0.24,-0.33,0.1
11.405,-0.36,0.8,-0.14,0.24,-0.33,0.1
11.405,-0.06,0.23,-0.36,0.24,-0.33,0.1
11.406,-0.06,0.23,-0.36,0.24,-0.33,0.1
11.415,-0.06,0.23,-0.36,0.19,-0.33,-0.03
11.417,-0.06,0.23,-0.36,0.19,-0.33,-0.03
11.418,0.18,-0.32,-0.74,0.19,-0.33,-0.03
11.419,0.18,-0.32,-0.74,0.19,-0.33,-0.03
11.423,0.18,-0.32,-0.74,0.1,-0.39,-0.25
11.424,0.18,-0.32,-0.74,0.1,-0.39,-0.25
11.425,0.28,-0.7,-1.21,0.1,-0.39,-0.25
11.426,0.28,-0.7,-1.21,0.1,-0.39,-0.25
11.432,0.28,-0.7,-1.21,-0.03,-0.48,-0.51
11.433,0.28,-0.7,-1.21,-0.03,-0.48,-0.51
11.434,0.21,-0.84,-1.68,-0.03,-0.48,-0.51
11.435,0.21,-0.84,-1.68,-0.03,-0.48,-0.51
11.455,0.21,-0.84,-1.68,-0.22,-0.61,-0.76
11.456,0.21,-0.84,-1.68,-0.22,-0.61,-0.76
11.457,-0.05,-0.78,-2.03,-0.22,-0.61,-0.76
11.457,-0.05,-0.78,-2.03,-0.22,-0.61,-0.76
11.458,-0.05,-0.78,-2.03,-0.22,-0.61,-0.76
11.459,-0.05,-0.78,-2.03,-0.22,-0.61,-0.76
11.459,-0.05,-0.78,-2.03,-0.22,-0.61,-0.76
11.46,-0.05,-0.78,-2.03,-0.22,-0.61,-0.76
11.469,-0.05,-0.78,-2.03,-0.76,-0.88,-0.97
11.47,-0.05,-0.78,-2.03,-0.76,-0.88,-0.97
11.471,-0.68,-0.18,-2.33,-0.76,-0.88,-0.97
11.471,-0.68,-0.18,-2.33,-0.76,-0.88,-0.97
11.471,-0.68,-0.18,-2.33,-0.76,-0.88,-0.97
11.472,-0.68,-0.18,-2.33,-0.76,-0.88,-0.97
11.472,-0.68,-0.18,-2.33,-0.76,-0.88,-0.97
11.472,-0.68,-0.18,-2.33,-0.76,-0.88,-0.97
11.497,-0.68,-0.18,-2.33,-1.05,-1.01,-0.88
11.498,-0.68,-0.18,-2.33,-1.05,-1.01,-0.88
11.498,-0.79,0.74,-2.2,-1.05,-1.01,-0.88
11.499,-0.79,0.74,-2.2,-1.05,-1.01,-0.88
11.499,-0.79,0.74,-2.2,-1.29,-1.1,-0.68
11.499,-0.79,0.74,-2.2,-1.29,-1.1,-0.68
11.5,-0.55,1.26,-1.92,-1.29,-1.1,-0.68
11.5,-0.55,1.26,-1.92,-1.29,-1.1,-0.68
11.5,-0.55,1.26,-1.92,-1.47,-1.14,-0.45
11.5,-0.55,1.26,-1.92,-1.47,-1.14,-0.45
11.5,-0.24,1.72,-1.57,-1.47,-1.14,-0.45
11.501,-0.24,1.72,-1.57,-1.47,-1.14,-0.45
11.508,-0.24,1.72,-1.57,-1.55,-1.17,-0.28
11.509,-0.24,1.72,-1.57,-1.55,-1.17,-0.28
11.509,0.02,2.05,-1.19,-1.55,-1.17,-0.28
11.51,0.02,2.05,-1.19,-1.55,-1.17,-0.28
11.518,0.02,2.05,-1.19,-1.55,-1.18,-0.19
11.519,0.02,2.05,-1.19,-1.55,-1.18,-0.19
11.52,0.17,2.26,-0.81,-1.55,-1.18,-0.19
11.521,0.17,2.26,-0.81,-1.55,-1.18,-0.19
11.528,0.17,2.26,-0.81,-1.46,-1.2,-0.18
11.529,0.17,2.26,-0.81,-1.46,-1.2,-0.18
11.529,0.21,2.34,-0.45,-1.46,-1.2,-0.18
11.53,0.21,2.34,-0.45,-1.46,-1.2,-0.18
11.537,0.21,2.34,-0.45,-1.27,-1.2,-0.24
11.538,0.21,2.34,-0.45,-1.27,-1.2,-0.24
11.539,0.22,2.29,-0.12,-1.27,-1.2,-0.24
11.54,0.22,2.29,-0.12,-1.27,-1.2,-0.24
11.547,0.22,2.29,-0.12,-1.01,-1.16,-0.3
11.548,0.22,2.29,-0.12,-1.01,-1.16,-0.3
11.548,0.19,2.18,0.13,-1.01,-1.16,-0.3
11.549,0.19,2.18,0.13,-1.01,-1.16,-0.3
11.556,0.19,2.18,0.13,-0.67,-1.06,-0.32
11.557,0.19,2.18,0.13,-0.67,-1.06,-0.32
11.558,0.16,2.03,0.25,-0.67,-1.06,-0.32
11.559,0.16,2.03,0.25,-0.67,-1.06,-0.32
11.568,0.16,2.03,0.25,-0.31,-0.9,-0.29
11.569,0.16,2.03,0.25,-0.31,-0.9,-0.29
11.57,0.16,1.84,0.23,-0.31,-0.9,-0.29
11.571,0.16,1.84,0.23,-0.31,-0.9,-0.29
11.575,0.16,1.84,0.23,0.05,-0.72,-0.24
11.576,0.16,1.84,0.23,0.05,-0.72,-0.24
11.576,0.17,1.62,0.11,0.05,-0.72,-0.24
11.577,0.17,1.62,0.11,0.05,-0.72,-0.24
11.601,0.17,1.62,0.11,0.34,-0.57,-0.17
11.602,0.17,1.62,0.11,0.34,-0.57,-0.17
11.602,0.25,1.41,-0.07,0.34,-0.57,-0.17
11.603,0.25,1.41,-0.07,0.34,-0.57,-0.17
11.603,0.25,1.41,-0.07,0.54,-0.48,-0.13
11.603,0.25,1.41,-0.07,0.54,-0.48,-0.13
11.604,0.39,1.14,-0.21,0.54,-0.48,-0.13
11.604,0.39,1.14,-0.21,0.54,-0.48,-0.13
11.604,0.39,1.14,-0.21,0.62,-0.46,-0.13
11.604,0.39,1.14,-0.21,0.62,-0.46,-0.13
11.605,0.51,0.83,-0.26,0.62,-0.46,-0.13
11.605,0.51,0.83,-0.26,0.62,-0.46,-0.13
11.613,0.51,0.83,-0.26,0.62,-0.5,-0.18
11.614,0.51,0.83,-0.26,0.62,-0.5,-0.18
11.614,0.63,0.53,-0.18,0.62,-0.5,-0.18
11.615,0.63,0.53,-0.18,0.62,-0.5,-0.18
11.623,0.63,0.53,-0.18,0.56,-0.55,-0.27
11.624,0.63,0.53,-0.18,0.56,-0.55,-0.27
11.624,0.67,0.26,-0.04,0.56,-0.55,-0.27
11.625,0.67,0.26,-0.04,0.56,-0.55,-0.27
11.633,0.67,0.26,-0.04,0.52,-0.58,-0.38
11.634,0.67,0.26,-0.04,0.52,-0.58,-0.38
11.634,0.66,0.11,0.07,0.52,-0.58,-0.38
11.635,0.66,0.11,0.07,0.52,-0.58,-0.38
11.642,0.66,0.11,0.07,0.51,-0.57,-0.48
11.643,0.66,0.11,0.07,0.51,-0.57,-0.48
11.644,0.58,0.08,0.1,0.51,-0.57,-0.48
11.644,0.58,0.08,0.1,0.51,-0.57,-0.48
11.653,0.58,0.08,0.1,0.53,-0.52,-0.54
11.655,0.58,0.08,0.1,0.53,-0.52,-0.54
11.655,0.41,0.12,0.11,0.53,-0.52,-0.54
11.655,0.41,0.12,0.11,0.53,-0.52,-0.54
11.661,0.41,0.12,0.11,0.56,-0.43,-0.54
11.662,0.41,0.12,0.11,0.56,-0.43,-0.54
11.662,0.11,0.12,0.25,0.56,-0.43,-0.54
11.663,0.11,0.12,0.25,0.56,-0.43,-0.54
11.67,0.11,0.12,0.25,0.56,-0.43,-0.54
11.671,0.11,0.12,0.25,0.56,-0.43,-0.54
11.671,0.11,0.12,0.25,0.56,-0.43,-0.54
11.672,0.11,0.12,0.25,0.56,-0.43,-0.54
11.682,0.11,0.12,0.25,0.59,-0.31,-0.47
11.683,0.11,0.12,0.25,0.59,-0.31,-0.47
11.683,-0.69,-0.44,1.06,0.59,-0.31,-0.47
11.684,-0.69,-0.44,1.06,0.59,-0.31,-0.47
11.69,-0.69,-0.44,1.06,0.64,-0.12,-0.31
11.691,-0.69,-0.44,1.06,0.64,-0.12,-0.31
11.691,-1.05,-1.02,1.52,0.64,-0.12,-0.31
11.692,-1.05,-1.02,1.52,0.64,-0.12,-0.31
11.705,-1.05,-1.02,1.52,0.52,0.17,-0.34
11.706,-1.05,-1.02,1.52,0.52,0.17,-0.34
11.706,-1.25,-1.66,1.84,0.52,0.17,-0.34
11.706,-1.25,-1.66,1.84,0.52,0.17,-0.34
11.709,-1.25,-1.66,1.84,0.23,0.6,-0.61
11.709,-1.25,-1.66,1.84,0.23,0.6,-0.61
11.709,-1.25,-2.17,1.94,0.23,0.6,-0.61
11.709,-1.25,-2.17,1.94,0.23,0.6,-0.61
11.718,-1.25,-2.17,1.94,0.38,1.11,-0.44
11.719,-1.25,-2.17,1.94,0.38,1.11,-0.44
11.719,-1.15,-2.54,1.76,0.38,1.11,-0.44
11.719,-1.15,-2.54,1.76,0.38,1.11,-0.44
11.728,-1.15,-2.54,1.76,0.9,1.54,0.06
11.728,-1.15,-2.54,1.76,0.9,1.54,0.06
11.729,-1.06,-2.74,1.39,0.9,1.54,0.06
11.729,-1.06,-2.74,1.39,0.9,1.54,0.06
11.737,-1.06,-2.74,1.39,1.24,1.79,0.35
11.738,-1.06,-2.74,1.39,1.24,1.79,0.35
11.739,-1.04,-2.75,0.97,1.24,1.79,0.35
11.739,-1.04,-2.75,0.97,1.24,1.79,0.35
11.747,-1.04,-2.75,0.97,1.36,1.85,0.46
11.748,-1.04,-2.75,0.97,1.36,1.85,0.46
11.748,-1.2,-2.57,0.78,1.36,1.85,0.46
11.749,-1.2,-2.57,0.78,1.36,1.85,0.46
11.756,-1.2,-2.57,0.78,1.29,1.77,0.48
11.757,-1.2,-2.57,0.78,1.29,1.77,0.48
11.758,-1.45,-2.16,1.04,1.29,1.77,0.48
11.759,-1.45,-2.16,1.04,1.29,1.77,0.48
11.767,-1.45,-2.16,1.04,1.11,1.63,0.47
11.769,-1.45,-2.16,1.04,1.11,1.63,0.47
11.769,-1.72,-1.65,3.12,1.11,1.63,0.47
11.77,-1.72,-1.65,3.12,1.11,1.63,0.47
11.775,-1.72,-1.65,3.12,0.98,1.56,0.5
11.776,-1.72,-1.65,3.12,0.98,1.56,0.5
11.776,-1.91,-1.22,3.55,0.98,1.56,0.5
11.777,-1.91,-1.22,3.55,0.98,1.56,0.5
11.798,-1.91,-1.22,3.55,1.06,1.66,0.59
11.799,-1.91,-1.22,3.55,1.06,1.66,0.59
11.799,-1.98,-1.08,4.05,1.06,1.66,0.59
11.799,-1.98,-1.08,4.05,1.06,1.66,0.59
11.8,-1.98,-1.08,4.05,1.4,1.96,0.73
11.8,-1.98,-1.08,4.05,1.4,1.96,0.73
11.8,-1.88,-1.43,4.21,1.4,1.96,0.73
11.801,-1.88,-1.43,4.21,1.4,1.96,0.73
11.803,-1.88,-1.43,4.21,1.88,2.34,0.85
11.804,-1.88,-1.43,4.21,1.88,2.34,0.85
11.804,-1.52,-3.09,3.96,1.88,2.34,0.85
11.805,-1.52,-3.09,3.96,1.88,2.34,0.85
11.812,-1.52,-3.09,3.96,2.3,2.63,0.89
11.813,-1.52,-3.09,3.96,2.3,2.63,0.89
11.814,0.27,-4.96,3.51,2.3,2.63,0.89
11.814,0.27,-4.96,3.51,2.3,2.63,0.89
11.823,0.27,-4.96,3.51,2.51,2.66,0.74
11.824,0.27,-4.96,3.51,2.51,2.66,0.74
11.824,2.22,-5.19,2.92,2.51,2.66,0.74
11.824,2.22,-5.19,2.92,2.51,2.66,0.74
11.832,2.22,-5.19,2.92,2.44,2.29,0.33
11.833,2.22,-5.19,2.92,2.44,2.29,0.33
11.834,4.85,-5.27,1.06,2.44,2.29,0.33
11.835,4.85,-5.27,1.06,2.44,2.29,0.33
11.842,4.85,-5.27,1.06,2.04,1.49,-0.37
11.843,4.85,-5.27,1.06,2.04,1.49,-0.37
11.844,6.77,-4.93,-0.5,2.04,1.49,-0.37
11.844,6.77,-4.93,-0.5,2.04,1.49,-0.37
11.851,6.77,-4.93,-0.5,2.04,1.49,-0.37
11.852,6.77,-4.93,-0.5,2.04,1.49,-0.37
11.853,6.77,-4.93,-0.5,2.04,1.49,-0.37
11.854,6.77,-4.93,-0.5,2.04,1.49,-0.37
11.866,6.77,-4.93,-0.5,1.38,0.31,-1.34
11.867,6.77,-4.93,-0.5,1.38,0.31,-1.34
11.867,6.77,-2.76,-1.14,1.38,0.31,-1.34
11.867,6.77,-2.76,-1.14,1.38,0.31,-1.34
11.87,6.77,-2.76,-1.14,0.59,-1.04,-2.43
11.871,6.77,-2.76,-1.14,0.59,-1.04,-2.43
11.871,4.9,-2.23,1.07,0.59,-1.04,-2.43
11.872,4.9,-2.23,1.07,0.59,-1.04,-2.43
11.892,4.9,-2.23,1.07,-0.09,-2.19,-3.4
11.892,4.9,-2.23,1.07,-0.09,-2.19,-3.4
11.893,2.53,-1.69,3.43,-0.09,-2.19,-3.4
11.893,2.53,-1.69,3.43,-0.09,-2.19,-3.4
11.896,2.53,-1.69,3.43,-0.44,-2.79,-3.94
11.896,2.53,-1.69,3.43,-0.44,-2.79,-3.94
11.897,0.9,-1.17,5.14,-0.44,-2.79,-3.94
11.897,0.9,-1.17,5.14,-0.44,-2.79,-3.94
11.899,0.9,-1.17,5.14,-0.36,-2.64,-3.87
11.899,0.9,-1.17,5.14,-0.36,-2.64,-3.87
11.899,0.41,-0.63,5.45,-0.36,-2.64,-3.87
11.9,0.41,-0.63,5.45,-0.36,-2.64,-3.87
11.909,0.41,-0.63,5.45,0.11,-1.88,-3.24
11.909,0.41,-0.63,5.45,0.11,-1.88,-3.24
11.909,-0.14,-0.1,5.85,0.11,-1.88,-3.24
11.91,-0.14,-0.1,5.85,0.11,-1.88,-3.24
11.917,-0.14,-0.1,5.85,0.8,-0.81,-2.33
11.918,-0.14,-0.1,5.85,0.8,-0.81,-2.33
11.919,-0.59,0.36,6.11,0.8,-0.81,-2.33
11.919,-0.59,0.36,6.11,0.8,-0.81,-2.33
11.928,-0.59,0.36,6.11,1.51,0.26,-1.42
11.929,-0.59,0.36,6.11,1.51,0.26,-1.42
11.929,-0.92,0.71,6.09,1.51,0.26,-1.42
11.929,-0.92,0.71,6.09,1.51,0.26,-1.42
11.936,-0.92,0.71,6.09,2.14,1.17,-0.64
11.937,-0.92,0.71,6.09,2.14,1.17,-0.64
11.938,-1.16,0.87,5.8,2.14,1.17,-0.64
11.938,-1.16,0.87,5.8,2.14,1.17,-0.64
11.946,-1.16,0.87,5.8,2.64,1.87,0.01
11.947,-1.16,0.87,5.8,2.64,1.87,0.01
11.947,-1.28,0.84,5.32,2.64,1.87,0.01
11.948,-1.28,0.84,5.32,2.64,1.87,0.01
11.956,-1.28,0.84,5.32,2.97,2.36,0.52
11.956,-1.29,0.68,4.71,2.97,2.36,0.52
11.957,-1.29,0.68,4.71,2.97,2.36,0.52
11.957,-1.29,0.68,4.71,2.97,2.36,0.52
11.967,-1.29,0.68,4.71,3.09,2.66,0.92
11.968,-1.29,0.68,4.71,3.09,2.66,0.92
11.969,-1.2,0.48,4.06,3.09,2.66,0.92
11.969,-1.2,0.48,4.06,3.09,2.66,0.92
11.974,-1.2,0.48,4.06,2.98,2.78,1.2
11.975,-1.2,0.48,4.06,2.98,2.78,1.2
11.976,-0.99,0.32,3.32,2.98,2.78,1.2
11.976,-0.99,0.32,3.32,2.98,2.78,1.2
11.994,-0.99,0.32,3.32,2.65,2.74,1.37
11.995,-0.99,0.32,3.32,2.65,2.74,1.37
11.996,-0.69,0.25,1.75,2.65,2.74,1.37
11.996,-0.69,0.25,1.75,2.65,2.74,1.37
11.997,-0.69,0.25,1.75,2.12,2.55,1.45
11.997,-0.69,0.25,1.75,2.12,2.55,1.45
11.997,-0.36,0.29,1.34,2.12,2.55,1.45
11.997,-0.36,0.29,1.34,2.12,2.55,1.45
12.003,-0.36,0.29,1.34,1.41,2.23,1.44
12.004,-0.36,0.29,1.34,1.41,2.23,1.44
12.005,-0.08,0.34,0.94,1.41,2.23,1.44
12.005,-0.08,0.34,0.94,1.41,2.23,1.44
12.012,-0.08,0.34,0.94,0.59,1.79,1.35
12.013,-0.08,0.34,0.94,0.59,1.79,1.35
12.014,0.06,0.37,0.74,0.59,1.79,1.35
12.014,0.06,0.37,0.74,0.59,1.79,1.35
12.023,0.06,0.37,0.74,-0.22,1.27,1.19
12.023,0.06,0.37,0.74,-0.22,1.27,1.19
12.024,0.1,0.39,0.7,-0.22,1.27,1.19
12.024,0.1,0.39,0.7,-0.22,1.27,1.19
12.032,0.1,0.39,0.7,-0.88,0.73,1
12.033,0.1,0.39,0.7,-0.88,0.73,1
12.033,0.09,0.39,0.64,-0.88,0.73,1
12.034,0.09,0.39,0.64,-0.88,0.73,1
12.042,0.09,0.39,0.64,-1.34,0.23,0.8
12.043,0.09,0.39,0.64,-1.34,0.23,0.8
12.044,0.12,0.46,0.52,-1.34,0.23,0.8
12.044,0.12,0.46,0.52,-1.34,0.23,0.8
12.051,0.12,0.46,0.52,-1.34,0.23,0.8
12.052,0.12,0.46,0.52,-1.34,0.23,0.8
12.052,0.12,0.46,0.52,-1.34,0.23,0.8
12.053,0.12,0.46,0.52,-1.34,0.23,0.8
12.065,0.12,0.46,0.52,-1.62,-0.18,0.63
12.066,0.12,0.46,0.52,-1.62,-0.18,0.63
12.067,0.43,0.69,0.26,-1.62,-0.18,0.63
12.067,0.43,0.69,0.26,-1.62,-0.18,0.63
12.07,0.43,0.69,0.26,-1.76,-0.51,0.47
12.07,0.43,0.69,0.26,-1.76,-0.51,0.47
12.071,0.72,0.78,0.13,-1.76,-0.51,0.47
12.071,0.72,0.78,0.13,-1.76,-0.51,0.47
12.092,0.72,0.78,0.13,-1.8,-0.79,0.32
12.092,0.72,0.78,0.13,-1.8,-0.79,0.32
12.093,1.07,0.79,0.06,-1.8,-0.79,0.32
12.093,1.07,0.79,0.06,-1.8,-0.79,0.32
12.093,1.07,0.79,0.06,-1.8,-1.05,0.14
12.093,1.07,0.79,0.06,-1.8,-1.05,0.14
12.094,1.5,0.78,-0.03,-1.8,-1.05,0.14
12.094,1.5,0.78,-0.03,-1.8,-1.05,0.14
12.099,1.5,0.78,-0.03,-1.76,-1.3,-0.08
12.099,1.5,0.78,-0.03,-1.76,-1.3,-0.08
12.1,1.95,0.73,-0.3,-1.76,-1.3,-0.08
12.101,1.95,0.73,-0.3,-1.76,-1.3,-0.08
12.108,1.95,0.73,-0.3,-1.7,-1.58,-0.36
12.109,1.95,0.73,-0.3,-1.7,-1.58,-0.36
12.109,2.42,0.7,-0.79,-1.7,-1.58,-0.36
12.11,2.42,0.7,-0.79,-1.7,-1.58,-0.36
12.118,2.42,0.7,-0.79,-1.64,-1.9,-0.69
12.119,2.42,0.7,-0.79,-1.64,-1.9,-0.69
12.119,2.85,0.69,-2.46,-1.64,-1.9,-0.69
12.12,2.85,0.69,-2.46,-1.64,-1.9,-0.69
12.127,2.85,0.69,-2.46,-1.66,-2.3,-1.05
12.129,2.85,0.69,-2.46,-1.66,-2.3,-1.05
12.129,3.1,0.7,-2.69,-1.66,-2.3,-1.05
12.129,3.1,0.7,-2.69,-1.66,-2.3,-1.05
12.136,3.1,0.7,-2.69,-1.85,-2.81,-1.44
12.137,3.1,0.7,-2.69,-1.85,-2.81,-1.44
12.137,3.19,0.76,-2.96,-1.85,-2.81,-1.44
12.138,3.19,0.76,-2.96,-1.85,-2.81,-1.44
12.145,3.19,0.76,-2.96,-2.17,-3.38,-1.81
12.146,3.19,0.76,-2.96,-2.17,-3.38,-1.81
12.146,3.02,0.81,-3.08,-2.17,-3.38,-1.81
12.147,3.02,0.81,-3.08,-2.17,-3.38,-1.81
12.155,3.02,0.81,-3.08,-2.48,-3.87,-2.13
12.156,3.02,0.81,-3.08,-2.48,-3.87,-2.13
12.157,2.64,0.93,-3.07,-2.48,-3.87,-2.13
12.157,2.64,0.93,-3.07,-2.48,-3.87,-2.13
12.166,2.64,0.93,-3.07,-2.67,-4.16,-2.31
12.167,2.64,0.93,-3.07,-2.67,-4.16,-2.31
12.168,2.15,1.11,-2.93,-2.67,-4.16,-2.31
12.168,2.15,1.11,-2.93,-2.67,-4.16,-2.31
12.174,2.15,1.11,-2.93,-2.7,-4.2,-2.33
12.175,2.15,1.11,-2.93,-2.7,-4.2,-2.33
12.176,1.6,1.35,-2.71,-2.7,-4.2,-2.33
12.176,1.6,1.35,-2.71,-2.7,-4.2,-2.33
12.194,1.6,1.35,-2.71,-2.62,-3.99,-2.13
12.194,1.6,1.35,-2.71,-2.62,-3.99,-2.13
12.195,1.08,1.67,-2.39,-2.62,-3.99,-2.13
12.195,1.08,1.67,-2.39,-2.62,-3.99,-2.13
12.195,1.08,1.67,-2.39,-2.44,-3.57,-1.74
12.195,1.08,1.67,-2.39,-2.44,-3.57,-1.74
12.196,0.6,2.04,-1.98,-2.44,-3.57,-1.74
12.196,0.6,2.04,-1.98,-2.44,-3.57,-1.74
12.203,0.6,2.04,-1.98,-2.18,-2.95,-1.18
12.204,0.6,2.04,-1.98,-2.18,-2.95,-1.18
12.204,0.17,2.43,-1.51,-2.18,-2.95,-1.18
12.204,0.17,2.43,-1.51,-2.18,-2.95,-1.18
12.213,0.17,2.43,-1.51,-1.85,-2.19,-0.51
12.214,0.17,2.43,-1.51,-1.85,-2.19,-0.51
12.214,-0.22,2.81,-0.98,-1.85,-2.19,-0.51
12.215,-0.22,2.81,-0.98,-1.85,-2.19,-0.51
12.222,-0.22,2.81,-0.98,-1.43,-1.26,0.22
