time,ax,ay,az,wx,wy,wz
5.001,0.16,0.22,-0.07,0,0.01,-0.06
5.002,0.16,0.22,-0.07,0,0.01,-0.06
5.003,0.15,0.22,-0.07,0,0.01,-0.06
5.004,0.15,0.22,-0.07,0,0.01,-0.06
5.011,0.15,0.22,-0.07,-0.01,0.02,-0.08
5.012,0.15,0.22,-0.07,-0.01,0.02,-0.08
5.013,0.15,0.22,-0.07,-0.01,0.02,-0.08
5.014,0.15,0.22,-0.07,-0.01,0.02,-0.08
5.02,0.15,0.22,-0.07,-0.02,0.02,-0.09
5.021,0.15,0.22,-0.07,-0.02,0.02,-0.09
5.022,0.15,0.22,-0.07,-0.02,0.02,-0.09
5.023,0.15,0.22,-0.07,-0.02,0.02,-0.09
5.031,0.15,0.22,-0.07,-0.03,0.03,-0.1
5.032,0.15,0.22,-0.07,-0.03,0.03,-0.1
5.033,0.15,0.22,-0.07,-0.03,0.03,-0.1
5.033,0.15,0.22,-0.07,-0.03,0.03,-0.1
5.041,0.15,0.22,-0.07,-0.03,0.03,-0.1
5.042,0.15,0.22,-0.07,-0.03,0.03,-0.1
5.042,0.15,0.22,-0.07,-0.03,0.03,-0.1
5.042,0.15,0.22,-0.07,-0.03,0.03,-0.1
5.052,0.15,0.22,-0.07,-0.03,0.03,-0.1
5.053,0.15,0.22,-0.07,-0.03,0.03,-0.1
5.053,0.15,0.22,-0.07,-0.03,0.03,-0.1
5.054,0.15,0.22,-0.07,-0.03,0.03,-0.1
5.06,0.15,0.22,-0.07,-0.03,0.03,-0.09
5.061,0.15,0.22,-0.07,-0.03,0.03,-0.09
5.061,0.14,0.22,-0.07,-0.03,0.03,-0.09
5.062,0.14,0.22,-0.07,-0.03,0.03,-0.09
5.068,0.14,0.22,-0.07,-0.03,0.03,-0.08
5.069,0.14,0.22,-0.07,-0.03,0.03,-0.08
5.069,0.14,0.22,-0.07,-0.03,0.03,-0.08
5.07,0.14,0.22,-0.07,-0.03,0.03,-0.08
5.077,0.14,0.22,-0.07,-0.02,0.02,-0.07
5.078,0.14,0.22,-0.07,-0.02,0.02,-0.07
5.079,0.14,0.22,-0.07,-0.02,0.02,-0.07
5.079,0.14,0.22,-0.07,-0.02,0.02,-0.07
5.087,0.14,0.22,-0.07,-0.02,0.02,-0.06
5.088,0.14,0.22,-0.07,-0.02,0.02,-0.06
5.089,0.14,0.22,-0.07,-0.02,0.02,-0.06
5.089,0.14,0.22,-0.07,-0.02,0.02,-0.06
5.097,0.14,0.22,-0.07,-0.02,0.01,-0.05
5.098,0.14,0.22,-0.07,-0.02,0.01,-0.05
5.099,0.14,0.22,-0.06,-0.02,0.01,-0.05
5.1,0.14,0.22,-0.06,-0.02,0.01,-0.05
5.107,0.14,0.22,-0.06,-0.01,0.01,-0.04
5.107,0.14,0.22,-0.06,-0.01,0.01,-0.04
5.108,0.04,0.04,-0.25,-0.01,0.01,-0.04
5.109,0.04,0.04,-0.25,-0.01,0.01,-0.04
5.115,0.04,0.04,-0.25,-0.02,0.01,-0.03
5.116,0.04,0.04,-0.25,-0.02,0.01,-0.03
5.117,0.13,0.02,-0.26,-0.02,0.01,-0.03
5.117,0.13,0.02,-0.26,-0.02,0.01,-0.03
5.131,0.13,0.02,-0.26,-0.05,0,-0.03
5.132,0.13,0.02,-0.26,-0.05,0,-0.03
5.133,0.23,0.02,-0.26,-0.05,0,-0.03
5.133,0.23,0.02,-0.26,-0.05,0,-0.03
5.135,0.23,0.02,-0.26,-0.09,-0.02,-0.03
5.136,0.23,0.02,-0.26,-0.09,-0.02,-0.03
5.136,0.3,0.02,-0.25,-0.09,-0.02,-0.03
5.137,0.3,0.02,-0.25,-0.09,-0.02,-0.03
5.143,0.3,0.02,-0.25,-0.15,-0.05,-0.05
5.144,0.3,0.02,-0.25,-0.15,-0.05,-0.05
5.145,0.36,-0.01,-0.24,-0.15,-0.05,-0.05
5.145,0.36,-0.01,-0.24,-0.15,-0.05,-0.05
5.154,0.36,-0.01,-0.24,-0.19,-0.08,-0.07
5.156,0.36,-0.01,-0.24,-0.19,-0.08,-0.07
5.156,0.43,-0.01,-0.27,-0.19,-0.08,-0.07
5.157,0.43,-0.01,-0.27,-0.19,-0.08,-0.07
5.163,0.43,-0.01,-0.27,-0.21,-0.11,-0.11
5.164,0.43,-0.01,-0.27,-0.21,-0.11,-0.11
5.165,0.5,-0.07,-0.36,-0.21,-0.11,-0.11
5.166,0.5,-0.07,-0.36,-0.21,-0.11,-0.11
5.173,0.5,-0.07,-0.36,-0.22,-0.14,-0.16
5.173,0.5,-0.07,-0.36,-0.22,-0.14,-0.16
5.174,0.56,-0.09,-0.48,-0.22,-0.14,-0.16
5.174,0.56,-0.09,-0.48,-0.22,-0.14,-0.16
5.182,0.56,-0.09,-0.48,-0.24,-0.16,-0.22
5.183,0.56,-0.09,-0.48,-0.24,-0.16,-0.22
5.184,0.6,-0.08,-0.63,-0.24,-0.16,-0.22
5.184,0.6,-0.08,-0.63,-0.24,-0.16,-0.22
5.192,0.6,-0.08,-0.63,-0.27,-0.16,-0.27
5.194,0.6,-0.08,-0.63,-0.27,-0.16,-0.27
5.194,0.61,-0.11,-0.76,-0.27,-0.16,-0.27
5.195,0.61,-0.11,-0.76,-0.27,-0.16,-0.27
5.201,0.61,-0.11,-0.76,-0.32,-0.16,-0.32
5.202,0.61,-0.11,-0.76,-0.32,-0.16,-0.32
5.203,0.59,-0.16,-0.87,-0.32,-0.16,-0.32
5.203,0.59,-0.16,-0.87,-0.32,-0.16,-0.32
5.211,0.59,-0.16,-0.87,-0.4,-0.16,-0.35
5.211,0.59,-0.16,-0.87,-0.4,-0.16,-0.35
5.212,0.59,-0.22,-0.97,-0.4,-0.16,-0.35
5.213,0.59,-0.22,-0.97,-0.4,-0.16,-0.35
5.221,0.59,-0.22,-0.97,-0.48,-0.15,-0.36
5.222,0.59,-0.22,-0.97,-0.48,-0.15,-0.36
5.223,0.63,-0.28,-1.05,-0.48,-0.15,-0.36
5.224,0.63,-0.28,-1.05,-0.48,-0.15,-0.36
5.23,0.63,-0.28,-1.05,-0.48,-0.15,-0.36
5.231,0.63,-0.28,-1.05,-0.48,-0.15,-0.36
5.232,0.63,-0.28,-1.05,-0.48,-0.15,-0.36
5.232,0.63,-0.28,-1.05,-0.48,-0.15,-0.36
5.24,0.63,-0.28,-1.05,-0.56,-0.14,-0.37
5.24,0.63,-0.28,-1.05,-0.56,-0.14,-0.37
5.241,0.76,-0.31,-1.2,-0.56,-0.14,-0.37
5.241,0.76,-0.31,-1.2,-0.56,-0.14,-0.37
5.249,0.76,-0.31,-1.2,-0.63,-0.12,-0.37
5.25,0.76,-0.31,-1.2,-0.63,-0.12,-0.37
5.25,0.82,-0.27,-1.3,-0.63,-0.12,-0.37
5.251,0.82,-0.27,-1.3,-0.63,-0.12,-0.37
5.259,0.82,-0.27,-1.3,-0.7,-0.11,-0.37
5.26,0.82,-0.27,-1.3,-0.7,-0.11,-0.37
5.26,0.87,-0.24,-1.48,-0.7,-0.11,-0.37
5.26,0.87,-0.24,-1.48,-0.7,-0.11,-0.37
5.268,0.87,-0.24,-1.48,-0.77,-0.12,-0.39
5.269,0.87,-0.24,-1.48,-0.77,-0.12,-0.39
5.269,0.93,-0.23,-1.7,-0.77,-0.12,-0.39
5.27,0.93,-0.23,-1.7,-0.77,-0.12,-0.39
5.277,0.93,-0.23,-1.7,-0.84,-0.12,-0.41
5.278,0.93,-0.23,-1.7,-0.84,-0.12,-0.41
5.278,1.02,-0.18,-1.93,-0.84,-0.12,-0.41
5.279,1.02,-0.18,-1.93,-0.84,-0.12,-0.41
5.287,1.02,-0.18,-1.93,-0.92,-0.12,-0.44
5.287,1.02,-0.18,-1.93,-0.92,-0.12,-0.44
5.288,1.15,-0.16,-2.18,-0.92,-0.12,-0.44
5.288,1.15,-0.16,-2.18,-0.92,-0.12,-0.44
5.296,1.15,-0.16,-2.18,-1.02,-0.13,-0.46
5.296,1.15,-0.16,-2.18,-1.02,-0.13,-0.46
5.297,1.3,-0.15,-2.37,-1.02,-0.13,-0.46
5.297,1.3,-0.15,-2.37,-1.02,-0.13,-0.46
5.306,1.3,-0.15,-2.37,-1.13,-0.14,-0.5
5.306,1.3,-0.15,-2.37,-1.13,-0.14,-0.5
5.307,1.48,-0.13,-2.53,-1.13,-0.14,-0.5
5.307,1.48,-0.13,-2.53,-1.13,-0.14,-0.5
5.315,1.48,-0.13,-2.53,-1.26,-0.16,-0.55
5.315,1.48,-0.13,-2.53,-1.26,-0.16,-0.55
5.316,1.71,-0.09,-2.68,-1.26,-0.16,-0.55
5.316,1.71,-0.09,-2.68,-1.26,-0.16,-0.55
5.329,1.71,-0.09,-2.68,-1.37,-0.2,-0.63
5.33,1.71,-0.09,-2.68,-1.37,-0.2,-0.63
5.33,1.94,-0.04,-2.78,-1.37,-0.2,-0.63
5.331,1.94,-0.04,-2.78,-1.37,-0.2,-0.63
5.336,1.94,-0.04,-2.78,-1.47,-0.24,-0.73
5.336,1.94,-0.04,-2.78,-1.47,-0.24,-0.73
5.337,2.24,0.04,-2.85,-1.47,-0.24,-0.73
5.337,2.24,0.04,-2.85,-1.47,-0.24,-0.73
5.343,2.24,0.04,-2.85,-1.54,-0.29,-0.86
5.344,2.24,0.04,-2.85,-1.54,-0.29,-0.86
5.344,2.54,0.08,-2.89,-1.54,-0.29,-0.86
5.344,2.54,0.08,-2.89,-1.54,-0.29,-0.86
5.353,2.54,0.08,-2.89,-1.58,-0.33,-1.02
5.354,2.54,0.08,-2.89,-1.58,-0.33,-1.02
5.354,2.8,0.02,-2.88,-1.58,-0.33,-1.02
5.354,2.8,0.02,-2.88,-1.58,-0.33,-1.02
5.363,2.8,0.02,-2.88,-1.59,-0.36,-1.2
5.364,2.8,0.02,-2.88,-1.59,-0.36,-1.2
5.364,3.04,-0.12,-2.82,-1.59,-0.36,-1.2
5.365,3.04,-0.12,-2.82,-1.59,-0.36,-1.2
5.373,3.04,-0.12,-2.82,-1.55,-0.38,-1.39
5.374,3.04,-0.12,-2.82,-1.55,-0.38,-1.39
5.375,3.17,-0.39,-2.72,-1.55,-0.38,-1.39
5.375,3.17,-0.39,-2.72,-1.55,-0.38,-1.39
5.381,3.17,-0.39,-2.72,-1.48,-0.39,-1.57
5.383,3.17,-0.39,-2.72,-1.48,-0.39,-1.57
5.383,3.2,-0.82,-2.55,-1.48,-0.39,-1.57
5.384,3.2,-0.82,-2.55,-1.48,-0.39,-1.57
5.392,3.2,-0.82,-2.55,-1.36,-0.35,-1.72
5.393,3.2,-0.82,-2.55,-1.36,-0.35,-1.72
5.393,3.13,-1.38,-2.49,-1.36,-0.35,-1.72
5.394,3.13,-1.38,-2.49,-1.36,-0.35,-1.72
5.4,3.13,-1.38,-2.49,-1.2,-0.29,-1.79
5.401,3.13,-1.38,-2.49,-1.2,-0.29,-1.79
5.402,2.91,-3.1,-2.56,-1.2,-0.29,-1.79
5.402,2.91,-3.1,-2.56,-1.2,-0.29,-1.79
5.41,2.91,-3.1,-2.56,-1.02,-0.2,-1.77
5.411,2.91,-3.1,-2.56,-1.02,-0.2,-1.77
5.411,2.66,-3.38,-2.9,-1.02,-0.2,-1.77
5.412,2.66,-3.38,-2.9,-1.02,-0.2,-1.77
5.42,2.66,-3.38,-2.9,-0.85,-0.09,-1.65
5.421,2.66,-3.38,-2.9,-0.85,-0.09,-1.65
5.422,2.41,-3.84,-4.63,-0.85,-0.09,-1.65
5.422,2.41,-3.84,-4.63,-0.85,-0.09,-1.65
5.431,2.41,-3.84,-4.63,-0.85,-0.09,-1.65
5.432,2.41,-3.84,-4.63,-0.85,-0.09,-1.65
5.433,2.41,-3.84,-4.63,-0.85,-0.09,-1.65
5.434,2.41,-3.84,-4.63,-0.85,-0.09,-1.65
5.439,2.41,-3.84,-4.63,-0.77,0,-1.43
5.44,2.41,-3.84,-4.63,-0.77,0,-1.43
5.44,2.05,-4.89,-6.62,-0.77,0,-1.43
5.441,2.05,-4.89,-6.62,-0.77,0,-1.43
5.449,2.05,-4.89,-6.62,-0.92,0.06,-1.14
5.45,2.05,-4.89,-6.62,-0.92,0.06,-1.14
5.451,1.74,-5.2,-6.71,-0.92,0.06,-1.14
5.451,1.74,-5.2,-6.71,-0.92,0.06,-1.14
5.459,1.74,-5.2,-6.71,-1.32,0.07,-0.82
5.46,1.74,-5.2,-6.71,-1.32,0.07,-0.82
5.461,1.13,-5.22,-6.5,-1.32,0.07,-0.82
5.461,1.13,-5.22,-6.5,-1.32,0.07,-0.82
5.468,1.13,-5.22,-6.5,-1.81,0.03,-0.49
5.469,1.13,-5.22,-6.5,-1.81,0.03,-0.49
5.47,-0.73,-4.9,-4.37,-1.81,0.03,-0.49
5.471,-0.73,-4.9,-4.37,-1.81,0.03,-0.49
5.477,-0.73,-4.9,-4.37,-2.13,0.02,-0.12
5.479,-0.73,-4.9,-4.37,-2.13,0.02,-0.12
5.48,-2.53,-3.13,-1.88,-2.13,0.02,-0.12
5.481,-2.53,-3.13,-1.88,-2.13,0.02,-0.12
5.486,-2.53,-3.13,-1.88,-2.1,0.05,0.36
5.488,-2.53,-3.13,-1.88,-2.1,0.05,0.36
5.489,-4.32,-2.69,0.43,-2.1,0.05,0.36
5.489,-4.32,-2.69,0.43,-2.1,0.05,0.36
5.496,-4.32,-2.69,0.43,-1.64,0.04,1.03
5.497,-4.32,-2.69,0.43,-1.64,0.04,1.03
5.498,-6.02,-1.11,0.97,-1.64,0.04,1.03
5.498,-6.02,-1.11,0.97,-1.64,0.04,1.03
5.506,-6.02,-1.11,0.97,-1.36,-0.06,1.9
5.506,-6.02,-1.11,0.97,-1.36,-0.06,1.9
5.507,-6.22,-0.55,1.53,-1.36,-0.06,1.9
5.507,-6.22,-0.55,1.53,-1.36,-0.06,1.9
5.515,-6.22,-0.55,1.53,-1.46,-0.12,2.88
5.515,-6.22,-0.55,1.53,-1.46,-0.12,2.88
5.516,-6.17,0.05,1.68,-1.46,-0.12,2.88
5.516,-6.17,0.05,1.68,-1.46,-0.12,2.88
5.53,-6.17,0.05,1.68,-1.53,-0.14,3.79
5.531,-6.17,0.05,1.68,-1.53,-0.14,3.79
5.531,-4.56,0.5,1.41,-1.53,-0.14,3.79
5.532,-4.56,0.5,1.41,-1.53,-0.14,3.79
5.534,-4.56,0.5,1.41,-0.99,-0.17,4.45
5.536,-4.56,0.5,1.41,-0.99,-0.17,4.45
5.537,-2.91,0.68,-0.22,-0.99,-0.17,4.45
5.537,-2.91,0.68,-0.22,-0.99,-0.17,4.45
5.543,-2.91,0.68,-0.22,-0.09,-0.27,4.69
5.544,-2.91,0.68,-0.22,-0.09,-0.27,4.69
5.544,-1.27,0.58,-0.46,-0.09,-0.27,4.69
5.545,-1.27,0.58,-0.46,-0.09,-0.27,4.69
5.553,-1.27,0.58,-0.46,0.34,-0.27,4.44
5.554,-1.27,0.58,-0.46,0.34,-0.27,4.44
5.555,-0.86,0.36,-0.96,0.34,-0.27,4.44
5.555,-0.86,0.36,-0.96,0.34,-0.27,4.44
5.563,-0.86,0.36,-0.96,0.37,-0.26,3.74
5.564,-0.86,0.36,-0.96,0.37,-0.26,3.74
5.565,0.55,0.12,-1.39,0.37,-0.26,3.74
5.565,0.55,0.12,-1.39,0.37,-0.26,3.74
5.572,0.55,0.12,-1.39,0.13,-0.35,2.76
5.573,0.55,0.12,-1.39,0.13,-0.35,2.76
5.574,0.76,-0.05,-1.64,0.13,-0.35,2.76
5.574,0.76,-0.05,-1.64,0.13,-0.35,2.76
5.581,0.76,-0.05,-1.64,-0.25,-0.4,1.64
5.583,0.76,-0.05,-1.64,-0.25,-0.4,1.64
5.583,0.88,-0.05,-1.69,-0.25,-0.4,1.64
5.584,0.88,-0.05,-1.69,-0.25,-0.4,1.64
5.592,0.88,-0.05,-1.69,-0.65,-0.42,0.52
5.594,0.88,-0.05,-1.69,-0.65,-0.42,0.52
5.595,0.84,0.09,-1.51,-0.65,-0.42,0.52
5.595,0.84,0.09,-1.51,-0.65,-0.42,0.52
5.6,0.84,0.09,-1.51,-1,-0.4,-0.45
5.601,0.84,0.09,-1.51,-1,-0.4,-0.45
5.602,0.65,0.42,-1.27,-1,-0.4,-0.45
5.602,0.65,0.42,-1.27,-1,-0.4,-0.45
5.61,0.65,0.42,-1.27,-1.24,-0.36,-1.19
5.611,0.65,0.42,-1.27,-1.24,-0.36,-1.19
5.611,0.42,0.9,-0.97,-1.24,-0.36,-1.19
5.612,0.42,0.9,-0.97,-1.24,-0.36,-1.19
5.621,0.42,0.9,-0.97,-1.36,-0.31,-1.64
5.622,0.42,0.9,-0.97,-1.36,-0.31,-1.64
5.622,0.24,1.45,-0.62,-1.36,-0.31,-1.64
5.623,0.24,1.45,-0.62,-1.36,-0.31,-1.64
5.631,0.24,1.45,-0.62,-1.36,-0.31,-1.64
5.632,0.24,1.45,-0.62,-1.36,-0.31,-1.64
5.633,0.24,1.45,-0.62,-1.36,-0.31,-1.64
5.633,0.24,1.45,-0.62,-1.36,-0.31,-1.64
5.639,0.24,1.45,-0.62,-1.35,-0.26,-1.85
5.64,0.24,1.45,-0.62,-1.35,-0.26,-1.85
5.64,0.2,2.7,0.02,-1.35,-0.26,-1.85
5.64,0.2,2.7,0.02,-1.35,-0.26,-1.85
5.648,0.2,2.7,0.02,-1.25,-0.23,-1.87
5.649,0.2,2.7,0.02,-1.25,-0.23,-1.87
5.649,0.22,3.3,0.24,-1.25,-0.23,-1.87
5.65,0.22,3.3,0.24,-1.25,-0.23,-1.87
5.659,0.22,3.3,0.24,-1.05,-0.21,-1.76
5.66,0.22,3.3,0.24,-1.05,-0.21,-1.76
5.661,0.25,3.88,0.32,-1.05,-0.21,-1.76
5.661,0.25,3.88,0.32,-1.05,-0.21,-1.76
5.668,0.25,3.88,0.32,-0.79,-0.21,-1.59
5.669,0.25,3.88,0.32,-0.79,-0.21,-1.59
5.67,0.25,4.44,0.28,-0.79,-0.21,-1.59
5.67,0.25,4.44,0.28,-0.79,-0.21,-1.59
5.677,0.25,4.44,0.28,-0.54,-0.23,-1.42
5.679,0.25,4.44,0.28,-0.54,-0.23,-1.42
5.679,0.25,5.01,0.13,-0.54,-0.23,-1.42
5.68,0.25,5.01,0.13,-0.54,-0.23,-1.42
5.687,0.25,5.01,0.13,-0.35,-0.25,-1.27
5.688,0.25,5.54,-0.12,-0.35,-0.25,-1.27
5.688,0.25,5.54,-0.12,-0.35,-0.25,-1.27
5.689,0.25,5.54,-0.12,-0.35,-0.25,-1.27
5.697,0.25,5.54,-0.12,-0.28,-0.27,-1.13
5.698,0.25,5.54,-0.12,-0.28,-0.27,-1.13
5.699,0.26,5.96,-0.42,-0.28,-0.27,-1.13
5.699,0.26,5.96,-0.42,-0.28,-0.27,-1.13
5.707,0.26,5.96,-0.42,-0.35,-0.29,-1.01
5.708,0.26,5.96,-0.42,-0.35,-0.29,-1.01
5.709,0.31,6.23,-0.69,-0.35,-0.29,-1.01
5.71,0.31,6.23,-0.69,-0.35,-0.29,-1.01
5.715,0.31,6.23,-0.69,-0.58,-0.29,-0.9
5.716,0.31,6.23,-0.69,-0.58,-0.29,-0.9
5.716,0.42,6.35,-0.85,-0.58,-0.29,-0.9
5.717,0.42,6.35,-0.85,-0.58,-0.29,-0.9
5.731,0.42,6.35,-0.85,-0.96,-0.28,-0.83
5.732,0.42,6.35,-0.85,-0.96,-0.28,-0.83
5.733,0.59,6.39,-0.82,-0.96,-0.28,-0.83
5.734,0.59,6.39,-0.82,-0.96,-0.28,-0.83
5.734,0.59,6.39,-0.82,-1.44,-0.27,-0.81
5.735,0.59,6.39,-0.82,-1.44,-0.27,-0.81
5.735,0.74,6.39,-0.66,-1.44,-0.27,-0.81
5.736,0.74,6.39,-0.66,-1.44,-0.27,-0.81
5.743,0.74,6.39,-0.66,-1.9,-0.25,-0.88
5.744,0.74,6.39,-0.66,-1.9,-0.25,-0.88
5.745,0.87,6.37,-0.45,-1.9,-0.25,-0.88
5.745,0.87,6.37,-0.45,-1.9,-0.25,-0.88
5.753,0.87,6.37,-0.45,-2.24,-0.23,-1.02
5.754,0.87,6.37,-0.45,-2.24,-0.23,-1.02
5.755,0.92,6.27,-0.26,-2.24,-0.23,-1.02
5.755,0.92,6.27,-0.26,-2.24,-0.23,-1.02
5.762,0.92,6.27,-0.26,-2.37,-0.2,-1.17
5.763,0.92,6.27,-0.26,-2.37,-0.2,-1.17
5.764,0.88,6.06,-0.18,-2.37,-0.2,-1.17
5.765,0.88,6.06,-0.18,-2.37,-0.2,-1.17
5.772,0.88,6.06,-0.18,-2.29,-0.16,-1.33
5.773,0.88,6.06,-0.18,-2.29,-0.16,-1.33
5.774,0.79,5.77,-0.23,-2.29,-0.16,-1.33
5.774,0.79,5.77,-0.23,-2.29,-0.16,-1.33
5.782,0.79,5.77,-0.23,-2.04,-0.12,-1.5
5.784,0.79,5.77,-0.23,-2.04,-0.12,-1.5
5.784,0.65,5.4,-0.41,-2.04,-0.12,-1.5
5.785,0.65,5.4,-0.41,-2.04,-0.12,-1.5
5.792,0.65,5.4,-0.41,-1.73,-0.07,-1.55
5.793,0.65,5.4,-0.41,-1.73,-0.07,-1.55
5.794,0.46,4.99,-0.73,-1.73,-0.07,-1.55
5.795,0.46,4.99,-0.73,-1.73,-0.07,-1.55
5.801,0.46,4.99,-0.73,-1.43,-0.05,-1.45
5.802,0.46,4.99,-0.73,-1.43,-0.05,-1.45
5.802,0.28,4.56,-1.19,-1.43,-0.05,-1.45
5.803,0.28,4.56,-1.19,-1.43,-0.05,-1.45
5.81,0.28,4.56,-1.19,-1.25,-0.07,-1.22
5.812,0.28,4.56,-1.19,-1.25,-0.07,-1.22
5.813,0.12,4.08,-1.79,-1.25,-0.07,-1.22
5.813,0.12,4.08,-1.79,-1.25,-0.07,-1.22
5.82,0.12,4.08,-1.79,-1.25,-0.07,-1.22
5.82,0.12,4.08,-1.79,-1.25,-0.07,-1.22
5.821,0.12,4.08,-1.79,-1.25,-0.07,-1.22
5.822,0.12,4.08,-1.79,-1.25,-0.07,-1.22
5.83,0.12,4.08,-1.79,-1.23,-0.13,-0.88
5.831,0.12,4.08,-1.79,-1.23,-0.13,-0.88
5.832,-0.06,3.25,-3.64,-1.23,-0.13,-0.88
5.833,-0.06,3.25,-3.64,-1.23,-0.13,-0.88
5.839,-0.06,3.25,-3.64,-1.46,-0.22,-0.49
5.841,-0.06,3.25,-3.64,-1.46,-0.22,-0.49
5.841,-0.08,2.9,-4.07,-1.46,-0.22,-0.49
5.841,-0.08,2.9,-4.07,-1.46,-0.22,-0.49
5.848,-0.08,2.9,-4.07,-1.94,-0.34,-0.14
5.849,-0.08,2.9,-4.07,-1.94,-0.34,-0.14
5.849,-0.06,2.57,-4.38,-1.94,-0.34,-0.14
5.85,-0.06,2.57,-4.38,-1.94,-0.34,-0.14
5.859,-0.06,2.57,-4.38,-2.54,-0.48,0.12
5.86,-0.06,2.57,-4.38,-2.54,-0.48,0.12
5.861,-0.1,2.14,-4.47,-2.54,-0.48,0.12
5.861,-0.1,2.14,-4.47,-2.54,-0.48,0.12
5.868,-0.1,2.14,-4.47,-3,-0.6,0.25
5.87,-0.1,2.14,-4.47,-3,-0.6,0.25
5.87,-0.24,1.56,-4.21,-3,-0.6,0.25
5.871,-0.24,1.56,-4.21,-3,-0.6,0.25
5.876,-0.24,1.56,-4.21,-3.15,-0.69,0.3
5.878,-0.24,1.56,-4.21,-3.15,-0.69,0.3
5.878,-0.53,-0.03,-3.63,-3.15,-0.69,0.3
5.879,-0.53,-0.03,-3.63,-3.15,-0.69,0.3
5.886,-0.53,-0.03,-3.63,-2.95,-0.69,0.33
5.887,-0.53,-0.03,-3.63,-2.95,-0.69,0.33
5.888,-0.89,-0.49,-2.94,-2.95,-0.69,0.33
5.889,-0.89,-0.49,-2.94,-2.95,-0.69,0.33
5.908,-0.89,-0.49,-2.94,-2.4,-0.6,0.44
5.91,-0.89,-0.49,-2.94,-2.4,-0.6,0.44
5.911,-1.04,-0.81,-2.35,-2.4,-0.6,0.44
5.912,-1.04,-0.81,-2.35,-2.4,-0.6,0.44
5.913,-1.04,-0.81,-2.35,-1.61,-0.43,0.63
5.914,-1.04,-0.81,-2.35,-1.61,-0.43,0.63
5.915,-0.85,-0.64,-2.01,-1.61,-0.43,0.63
5.915,-0.85,-0.64,-2.01,-1.61,-0.43,0.63
5.916,-0.85,-0.64,-2.01,-0.74,-0.25,0.84
5.917,-0.85,-0.64,-2.01,-0.74,-0.25,0.84
5.918,-0.32,0.91,-1.88,-0.74,-0.25,0.84
5.918,-0.32,0.91,-1.88,-0.74,-0.25,0.84
5.925,-0.32,0.91,-1.88,0,-0.11,0.95
5.926,-0.32,0.91,-1.88,0,-0.11,0.95
5.926,1.36,2.84,-1.62,0,-0.11,0.95
5.926,1.36,2.84,-1.62,0,-0.11,0.95
5.934,1.36,2.84,-1.62,0.49,-0.02,0.89
5.935,1.36,2.84,-1.62,0.49,-0.02,0.89
5.935,1.46,4.52,0.02,0.49,-0.02,0.89
5.936,1.46,4.52,0.02,0.49,-0.02,0.89
5.943,1.46,4.52,0.02,0.7,0.05,0.59
5.944,1.46,4.52,0.02,0.7,0.05,0.59
5.945,1.41,4.95,0.62,0.7,0.05,0.59
5.946,1.41,4.95,0.62,0.7,0.05,0.59
5.953,1.41,4.95,0.62,0.77,0.1,0.11
5.953,1.41,4.95,0.62,0.77,0.1,0.11
5.954,1,5.19,2.58,0.77,0.1,0.11
5.955,1,5.19,2.58,0.77,0.1,0.11
5.963,1,5.19,2.58,0.92,0.14,-0.42
5.965,1,5.19,2.58,0.92,0.14,-0.42
5.967,-0.63,5.05,2.95,0.92,0.14,-0.42
5.967,-0.63,5.05,2.95,0.92,0.14,-0.42
5.972,-0.63,5.05,2.95,1.35,0.13,-0.77
5.972,-0.63,5.05,2.95,1.35,0.13,-0.77
5.972,-2.68,3.28,2.82,1.35,0.13,-0.77
5.973,-2.68,3.28,2.82,1.35,0.13,-0.77
6.001,-2.68,3.28,2.82,2.09,0.02,-0.67
6.002,-2.68,3.28,2.82,2.09,0.02,-0.67
6.003,-6.43,1.08,-0.33,2.09,0.02,-0.67
6.003,-6.43,1.08,-0.33,2.09,0.02,-0.67
6.004,-6.43,1.08,-0.33,2.83,-0.25,0.18
6.004,-6.43,1.08,-0.33,2.83,-0.25,0.18
6.005,-8.53,-2.31,-2.49,2.83,-0.25,0.18
6.005,-8.53,-2.31,-2.49,2.83,-0.25,0.18
6.006,-8.53,-2.31,-2.49,2.75,-0.29,1.88
6.006,-8.53,-2.31,-2.49,2.75,-0.29,1.88
6.006,-8.78,-6.26,-2.65,2.75,-0.29,1.88
6.006,-8.78,-6.26,-2.65,2.75,-0.29,1.88
6.01,-8.78,-6.26,-2.65,2.03,0,3.77
6.011,-8.78,-6.26,-2.65,2.03,0,3.77
6.012,-8.43,-9.72,-2.32,2.03,0,3.77
6.012,-8.43,-9.72,-2.32,2.03,0,3.77
6.02,-8.43,-9.72,-2.32,2.03,0,3.77
6.021,-8.43,-9.72,-2.32,2.03,0,3.77
6.021,-8.43,-9.72,-2.32,2.03,0,3.77
6.021,-8.43,-9.72,-2.32,2.03,0,3.77
6.029,-8.43,-9.72,-2.32,1.44,0.04,4.85
6.03,-8.43,-9.72,-2.32,1.44,0.04,4.85
6.03,-0.96,-10.23,1.67,1.44,0.04,4.85
6.031,-0.96,-10.23,1.67,1.44,0.04,4.85
6.039,-0.96,-10.23,1.67,1.07,-0.18,4.65
6.04,-0.96,-10.23,1.67,1.07,-0.18,4.65
6.04,1.25,-8.31,1.88,1.07,-0.18,4.65
6.041,1.25,-8.31,1.88,1.07,-0.18,4.65
6.048,1.25,-8.31,1.88,0.79,-0.16,3.37
6.05,1.25,-8.31,1.88,0.79,-0.16,3.37
6.05,1.28,-6.12,0.39,0.79,-0.16,3.37
6.05,1.28,-6.12,0.39,0.79,-0.16,3.37
6.063,1.28,-6.12,0.39,0.77,-0.15,1.63
6.064,1.28,-6.12,0.39,0.77,-0.15,1.63
6.064,0.81,-5.88,0.2,0.77,-0.15,1.63
6.064,0.81,-5.88,0.2,0.77,-0.15,1.63
6.067,0.81,-5.88,0.2,0.99,-0.34,-0.01
6.068,0.81,-5.88,0.2,0.99,-0.34,-0.01
6.068,-1.21,-6.36,0.2,0.99,-0.34,-0.01
6.069,-1.21,-6.36,0.2,0.99,-0.34,-0.01
6.076,-1.21,-6.36,0.2,0.99,-0.32,-1.14
6.077,-1.21,-6.36,0.2,0.99,-0.32,-1.14
6.078,-1.8,-7.97,0.53,0.99,-0.32,-1.14
6.078,-1.8,-7.97,0.53,0.99,-0.32,-1.14
6.087,-1.8,-7.97,0.53,0.86,-0.16,-1.62
6.088,-1.8,-7.97,0.53,0.86,-0.16,-1.62
6.089,-2.13,-7.81,1.13,0.86,-0.16,-1.62
6.09,-2.13,-7.81,1.13,0.86,-0.16,-1.62
6.096,-2.13,-7.81,1.13,0.74,0.08,-1.62
6.097,-2.13,-7.81,1.13,0.74,0.08,-1.62
6.097,-2.06,-6.07,1.67,0.74,0.08,-1.62
6.098,-2.06,-6.07,1.67,0.74,0.08,-1.62
6.105,-2.06,-6.07,1.67,0.72,0.33,-1.35
6.106,-2.06,-6.07,1.67,0.72,0.33,-1.35
6.107,-1.91,-3.66,1.98,0.72,0.33,-1.35
6.107,-1.91,-3.66,1.98,0.72,0.33,-1.35
6.114,-1.91,-3.66,1.98,0.76,0.57,-1.01
6.116,-1.91,-3.66,1.98,0.76,0.57,-1.01
6.117,-1.94,-1.55,2.33,0.76,0.57,-1.01
6.118,-1.94,-1.55,2.33,0.76,0.57,-1.01
6.124,-1.94,-1.55,2.33,0.84,0.79,-0.68
6.125,-1.94,-1.55,2.33,0.84,0.79,-0.68
6.126,-2.15,-1.1,3.94,0.84,0.79,-0.68
6.127,-2.15,-1.1,3.94,0.84,0.79,-0.68
6.137,-2.15,-1.1,3.94,0.94,0.97,-0.36
6.138,-2.15,-1.1,3.94,0.94,0.97,-0.36
6.138,-2.35,-0.8,4.33,0.94,0.97,-0.36
6.139,-2.35,-0.8,4.33,0.94,0.97,-0.36
6.143,-2.35,-0.8,4.33,1.11,1.1,-0.13
6.143,-2.35,-0.8,4.33,1.11,1.1,-0.13
6.144,-2.3,-0.73,4.93,1.11,1.1,-0.13
6.144,-2.3,-0.73,4.93,1.11,1.1,-0.13
6.152,-2.3,-0.73,4.93,1.42,1.19,0.1
6.153,-2.3,-0.73,4.93,1.42,1.19,0.1
6.154,-1.96,-0.91,5.37,1.42,1.19,0.1
6.154,-1.96,-0.91,5.37,1.42,1.19,0.1
6.163,-1.96,-0.91,5.37,1.82,1.12,0.38
6.164,-1.96,-0.91,5.37,1.82,1.12,0.38
6.164,-1.39,-1.21,5.41,1.82,1.12,0.38
6.165,-1.39,-1.21,5.41,1.82,1.12,0.38
6.172,-1.39,-1.21,5.41,2.23,0.87,0.55
6.172,-1.39,-1.21,5.41,2.23,0.87,0.55
6.173,0.13,-1.55,4.95,2.23,0.87,0.55
6.173,0.13,-1.55,4.95,2.23,0.87,0.55
6.182,0.13,-1.55,4.95,2.57,0.77,0.54
6.183,0.13,-1.55,4.95,2.57,0.77,0.54
6.184,0.74,-1.78,3.12,2.57,0.77,0.54
6.184,0.74,-1.78,3.12,2.57,0.77,0.54
6.192,0.74,-1.78,3.12,2.72,0.84,0.29
6.193,0.74,-1.78,3.12,2.72,0.84,0.29
6.194,2.4,-1.85,2.7,2.72,0.84,0.29
6.194,2.4,-1.85,2.7,2.72,0.84,0.29
6.201,2.4,-1.85,2.7,2.58,0.9,-0.18
6.202,2.4,-1.85,2.7,2.58,0.9,-0.18
6.203,2.81,-1.76,2.15,2.58,0.9,-0.18
6.203,2.81,-1.76,2.15,2.58,0.9,-0.18
6.21,2.81,-1.76,2.15,2.58,0.9,-0.18
6.211,2.81,-1.76,2.15,2.58,0.9,-0.18
6.211,2.81,-1.76,2.15,2.58,0.9,-0.18
6.212,2.81,-1.76,2.15,2.58,0.9,-0.18
6.219,2.81,-1.76,2.15,2.15,0.95,-0.83
6.22,2.81,-1.76,2.15,2.15,0.95,-0.83
6.221,2.98,-1.12,1.6,2.15,0.95,-0.83
6.222,2.98,-1.12,1.6,2.15,0.95,-0.83
6.229,2.98,-1.12,1.6,1.56,0.98,-1.51
6.23,2.98,-1.12,1.6,1.56,0.98,-1.51
6.23,2.67,-0.65,1.61,1.56,0.98,-1.51
6.231,2.67,-0.65,1.61,1.56,0.98,-1.51
6.239,2.67,-0.65,1.61,0.96,0.98,-2.09
6.24,2.67,-0.65,1.61,0.96,0.98,-2.09
6.24,2.2,-0.15,1.81,0.96,0.98,-2.09
6.241,2.2,-0.15,1.81,0.96,0.98,-2.09
6.249,2.2,-0.15,1.81,0.44,0.98,-2.45
6.25,2.2,-0.15,1.81,0.44,0.98,-2.45
6.251,1.68,0.31,2.09,0.44,0.98,-2.45
6.251,1.68,0.31,2.09,0.44,0.98,-2.45
6.259,1.68,0.31,2.09,0.07,0.97,-2.54
6.26,1.68,0.31,2.09,0.07,0.97,-2.54
6.26,1.17,0.68,2.38,0.07,0.97,-2.54
6.261,1.17,0.68,2.38,0.07,0.97,-2.54
6.267,1.17,0.68,2.38,-0.12,0.97,-2.39
6.267,1.17,0.68,2.38,-0.12,0.97,-2.39
6.268,0.73,0.92,2.56,-0.12,0.97,-2.39
6.269,0.73,0.92,2.56,-0.12,0.97,-2.39
6.277,0.73,0.92,2.56,-0.15,0.98,-2.04
6.278,0.73,0.92,2.56,-0.15,0.98,-2.04
6.278,0.41,1.07,2.58,-0.15,0.98,-2.04
6.279,0.41,1.07,2.58,-0.15,0.98,-2.04
6.286,0.41,1.07,2.58,-0.06,1,-1.6
6.287,0.41,1.07,2.58,-0.06,1,-1.6
6.288,0.29,1.07,2.45,-0.06,1,-1.6
6.288,0.29,1.07,2.45,-0.06,1,-1.6
6.295,0.29,1.07,2.45,0.09,1.02,-1.1
6.297,0.29,1.07,2.45,0.09,1.02,-1.1
6.298,0.33,0.95,2.17,0.09,1.02,-1.1
6.298,0.33,0.95,2.17,0.09,1.02,-1.1
6.306,0.33,0.95,2.17,0.23,1.05,-0.58
6.306,0.33,0.95,2.17,0.23,1.05,-0.58
6.307,0.53,0.74,1.8,0.23,1.05,-0.58
6.308,0.53,0.74,1.8,0.23,1.05,-0.58
6.314,0.53,0.74,1.8,0.31,0.91,-0.16
6.316,0.53,0.74,1.8,0.31,0.91,-0.16
6.316,0.8,0.47,1.39,0.31,0.91,-0.16
6.317,0.8,0.47,1.39,0.31,0.91,-0.16
6.331,0.8,0.47,1.39,0.3,0.77,0.09
6.332,0.8,0.47,1.39,0.3,0.77,0.09
6.333,1.06,0.22,0.96,0.3,0.77,0.09
6.334,1.06,0.22,0.96,0.3,0.77,0.09
6.334,1.06,0.22,0.96,0.18,0.82,0.2
6.335,1.06,0.22,0.96,0.18,0.82,0.2
6.335,1.26,0,0.6,0.18,0.82,0.2
6.336,1.26,0,0.6,0.18,0.82,0.2
6.346,1.26,0,0.6,-0.02,0.81,0.19
6.347,1.26,0,0.6,-0.02,0.81,0.19
6.347,1.34,-0.14,0.37,-0.02,0.81,0.19
6.347,1.34,-0.14,0.37,-0.02,0.81,0.19
6.352,1.34,-0.14,0.37,-0.27,0.75,0.16
6.353,1.34,-0.14,0.37,-0.27,0.75,0.16
6.353,1.29,-0.18,0.26,-0.27,0.75,0.16
6.354,1.29,-0.18,0.26,-0.27,0.75,0.16
6.363,1.29,-0.18,0.26,-0.51,0.65,0.09
6.364,1.29,-0.18,0.26,-0.51,0.65,0.09
6.364,1.15,-0.14,0.32,-0.51,0.65,0.09
6.365,1.15,-0.14,0.32,-0.51,0.65,0.09
6.371,1.15,-0.14,0.32,-0.7,0.52,-0.05
6.372,1.15,-0.14,0.32,-0.7,0.52,-0.05
6.372,0.94,0,0.53,-0.7,0.52,-0.05
6.373,0.94,0,0.53,-0.7,0.52,-0.05
6.383,0.94,0,0.53,-0.79,0.38,-0.14
6.385,0.94,0,0.53,-0.79,0.38,-0.14
6.386,0.71,0.2,0.79,-0.79,0.38,-0.14
6.387,0.71,0.2,0.79,-0.79,0.38,-0.14
6.393,0.71,0.2,0.79,-0.77,0.25,-0.14
6.395,0.71,0.2,0.79,-0.77,0.25,-0.14
6.396,0.56,0.4,1.09,-0.77,0.25,-0.14
6.396,0.56,0.4,1.09,-0.77,0.25,-0.14
6.401,0.56,0.4,1.09,-0.64,0.15,-0.08
6.402,0.56,0.4,1.09,-0.64,0.15,-0.08
6.403,0.51,0.51,1.31,-0.64,0.15,-0.08
6.404,0.51,0.51,1.31,-0.64,0.15,-0.08
6.409,0.51,0.51,1.31,-0.64,0.15,-0.08
6.411,0.51,0.51,1.31,-0.64,0.15,-0.08
6.412,0.51,0.51,1.31,-0.64,0.15,-0.08
6.413,0.51,0.51,1.31,-0.64,0.15,-0.08
6.421,0.51,0.51,1.31,-0.41,0.08,0.03
6.422,0.51,0.51,1.31,-0.41,0.08,0.03
6.423,0.8,0.26,1.38,-0.41,0.08,0.03
6.424,0.8,0.26,1.38,-0.41,0.08,0.03
6.428,0.8,0.26,1.38,-0.13,0.01,0.14
6.43,0.8,0.26,1.38,-0.13,0.01,0.14
6.431,1.04,-0.1,1.15,-0.13,0.01,0.14
6.433,1.04,-0.1,1.15,-0.13,0.01,0.14
6.438,1.04,-0.1,1.15,0.15,-0.07,0.19
6.439,1.04,-0.1,1.15,0.15,-0.07,0.19
6.44,1.26,-0.48,0.84,0.15,-0.07,0.19
6.44,1.26,-0.48,0.84,0.15,-0.07,0.19
6.447,1.26,-0.48,0.84,0.36,-0.16,0.16
6.448,1.26,-0.48,0.84,0.36,-0.16,0.16
6.449,1.36,-0.78,0.5,0.36,-0.16,0.16
6.449,1.36,-0.78,0.5,0.36,-0.16,0.16
6.458,1.36,-0.78,0.5,0.46,-0.27,0.04
6.459,1.36,-0.78,0.5,0.46,-0.27,0.04
6.459,1.3,-0.95,0.21,0.46,-0.27,0.04
6.459,1.3,-0.95,0.21,0.46,-0.27,0.04
6.467,1.3,-0.95,0.21,0.45,-0.38,-0.12
6.468,1.3,-0.95,0.21,0.45,-0.38,-0.12
6.468,1.06,-0.88,0.05,0.45,-0.38,-0.12
6.469,1.06,-0.88,0.05,0.45,-0.38,-0.12
6.476,1.06,-0.88,0.05,0.35,-0.49,-0.25
6.477,1.06,-0.88,0.05,0.35,-0.49,-0.25
6.478,0.69,-0.64,0.08,0.35,-0.49,-0.25
6.478,0.69,-0.64,0.08,0.35,-0.49,-0.25
6.486,0.69,-0.64,0.08,0.21,-0.56,-0.32
6.487,0.69,-0.64,0.08,0.21,-0.56,-0.32
6.487,0.27,-0.28,0.39,0.21,-0.56,-0.32
6.488,0.27,-0.28,0.39,0.21,-0.56,-0.32
6.495,0.27,-0.28,0.39,0.09,-0.59,-0.29
6.496,0.27,-0.28,0.39,0.09,-0.59,-0.29
6.497,-0.18,0.14,0.89,0.09,-0.59,-0.29
6.498,-0.18,0.14,0.89,0.09,-0.59,-0.29
6.505,-0.18,0.14,0.89,0.04,-0.58,-0.17
6.506,-0.18,0.14,0.89,0.04,-0.58,-0.17
6.507,-0.61,0.53,1.39,0.04,-0.58,-0.17
6.507,-0.61,0.53,1.39,0.04,-0.58,-0.17
6.514,-0.61,0.53,1.39,0.11,-0.51,0.05
6.516,-0.61,0.53,1.39,0.11,-0.51,0.05
6.518,-0.98,0.85,1.79,0.11,-0.51,0.05
6.519,-0.98,0.85,1.79,0.11,-0.51,0.05
6.525,-0.98,0.85,1.79,0.25,-0.41,0.32
6.526,-0.98,0.85,1.79,0.25,-0.41,0.32
6.527,-1.28,1.08,1.92,0.25,-0.41,0.32
6.527,-1.28,1.08,1.92,0.25,-0.41,0.32
6.533,-1.28,1.08,1.92,0.38,-0.29,0.63
6.534,-1.28,1.08,1.92,0.38,-0.29,0.63
6.535,-1.48,1.19,1.77,0.38,-0.29,0.63
6.536,-1.48,1.19,1.77,0.38,-0.29,0.63
6.546,-1.48,1.19,1.77,0.61,-0.15,0.93
6.547,-1.48,1.19,1.77,0.61,-0.15,0.93
6.548,-1.61,1.16,1.47,0.61,-0.15,0.93
6.548,-1.61,1.16,1.47,0.61,-0.15,0.93
6.552,-1.61,1.16,1.47,0.9,-0.02,1.2
6.554,-1.61,1.16,1.47,0.9,-0.02,1.2
6.554,-1.6,1.02,1.05,0.9,-0.02,1.2
6.554,-1.6,1.02,1.05,0.9,-0.02,1.2
6.562,-1.6,1.02,1.05,1.05,0.1,1.4
6.563,-1.6,1.02,1.05,1.05,0.1,1.4
6.564,-1.45,0.79,0.56,1.05,0.1,1.4
6.564,-1.45,0.79,0.56,1.05,0.1,1.4
6.572,-1.45,0.79,0.56,1.04,0.18,1.5
6.572,-1.45,0.79,0.56,1.04,0.18,1.5
6.573,-1.08,0.51,0.11,1.04,0.18,1.5
6.574,-1.08,0.51,0.11,1.04,0.18,1.5
6.581,-1.08,0.51,0.11,0.85,0.2,1.5
6.583,-1.08,0.51,0.11,0.85,0.2,1.5
6.584,-0.51,0.25,-0.36,0.85,0.2,1.5
6.584,-0.51,0.25,-0.36,0.85,0.2,1.5
6.592,-0.51,0.25,-0.36,0.52,0.15,1.36
6.594,-0.51,0.25,-0.36,0.52,0.15,1.36
6.594,1,0.09,-0.8,0.52,0.15,1.36
6.595,1,0.09,-0.8,0.52,0.15,1.36
6.601,1,0.09,-0.8,0.09,0.01,1.04
6.602,1,0.09,-0.8,0.09,0.01,1.04
6.603,1.42,0.01,-1.18,0.09,0.01,1.04
6.603,1.42,0.01,-1.18,0.09,0.01,1.04
6.609,1.42,0.01,-1.18,0.09,0.01,1.04
6.61,1.42,0.01,-1.18,0.09,0.01,1.04
6.611,1.42,0.01,-1.18,0.09,0.01,1.04
6.612,1.42,0.01,-1.18,0.09,0.01,1.04
6.619,1.42,0.01,-1.18,-0.39,-0.24,0.5
6.62,1.42,0.01,-1.18,-0.39,-0.24,0.5
6.62,2.53,0.15,-2,-0.39,-0.24,0.5
6.621,2.53,0.15,-2,-0.39,-0.24,0.5
6.628,2.53,0.15,-2,-0.88,-0.61,-0.21
6.63,2.53,0.15,-2,-0.88,-0.61,-0.21
6.631,2.93,0.33,-2.42,-0.88,-0.61,-0.21
6.632,2.93,0.33,-2.42,-0.88,-0.61,-0.21
6.639,2.93,0.33,-2.42,-1.36,-1.02,-1.01
6.64,2.93,0.33,-2.42,-1.36,-1.02,-1.01
6.641,3.04,0.58,-2.91,-1.36,-1.02,-1.01
6.643,3.04,0.58,-2.91,-1.36,-1.02,-1.01
6.655,3.04,0.58,-2.91,-1.81,-1.42,-1.78
6.656,3.04,0.58,-2.91,-1.81,-1.42,-1.78
6.657,2.74,0.88,-3.37,-1.81,-1.42,-1.78
6.657,2.74,0.88,-3.37,-1.81,-1.42,-1.78
6.661,2.74,0.88,-3.37,-2.21,-1.74,-2.42
6.662,2.74,0.88,-3.37,-2.21,-1.74,-2.42
6.662,0.91,1.21,-3.58,-2.21,-1.74,-2.42
6.663,0.91,1.21,-3.58,-2.21,-1.74,-2.42
6.666,0.91,1.21,-3.58,-2.55,-1.92,-2.77
6.667,0.91,1.21,-3.58,-2.55,-1.92,-2.77
6.667,0.43,1.53,-3.33,-2.55,-1.92,-2.77
6.667,0.43,1.53,-3.33,-2.55,-1.92,-2.77
6.675,0.43,1.53,-3.33,-2.8,-1.91,-2.72
6.676,0.43,1.53,-3.33,-2.8,-1.91,-2.72
6.676,-1.2,1.79,-1.74,-2.8,-1.91,-2.72
6.677,-1.2,1.79,-1.74,-2.8,-1.91,-2.72
6.685,-1.2,1.79,-1.74,-2.91,-1.65,-2.23
6.686,-1.2,1.79,-1.74,-2.91,-1.65,-2.23
6.686,-1.66,1.97,0.01,-2.91,-1.65,-2.23
6.687,-1.66,1.97,0.01,-2.91,-1.65,-2.23
6.695,-1.66,1.97,0.01,-2.76,-1.44,-1.35
6.696,-1.66,1.97,0.01,-2.76,-1.44,-1.35
6.696,-2.14,2.06,1.49,-2.76,-1.44,-1.35
6.696,-2.14,2.06,1.49,-2.76,-1.44,-1.35
6.704,-2.14,2.06,1.49,-2.17,-1.44,-0.23
6.706,-2.14,2.06,1.49,-2.17,-1.44,-0.23
6.708,-2.52,2.07,1.83,-2.17,-1.44,-0.23
6.708,-2.52,2.07,1.83,-2.17,-1.44,-0.23
6.715,-2.52,2.07,1.83,-1.14,-0.79,0.92
6.717,-2.52,2.07,1.83,-1.14,-0.79,0.92
6.718,-2.7,2.09,2.06,-1.14,-0.79,0.92
6.719,-2.7,2.09,2.06,-1.14,-0.79,0.92
6.724,-2.7,2.09,2.06,0.13,0.4,1.91
6.725,-2.7,2.09,2.06,0.13,0.4,1.91
6.726,-2.67,2.2,2.12,0.13,0.4,1.91
6.726,-2.67,2.2,2.12,0.13,0.4,1.91
6.733,-2.67,2.2,2.12,1.36,1.29,2.62
6.734,-2.67,2.2,2.12,1.36,1.29,2.62
6.734,-2.37,2.36,2.1,1.36,1.29,2.62
6.735,-2.37,2.36,2.1,1.36,1.29,2.62
6.747,-2.37,2.36,2.1,2.31,1.84,3.04
6.748,-2.37,2.36,2.1,2.31,1.84,3.04
6.749,-1.82,2.55,2.07,2.31,1.84,3.04
6.75,-1.82,2.55,2.07,2.31,1.84,3.04
6.752,-1.82,2.55,2.07,2.94,1.7,3.17
6.754,-1.82,2.55,2.07,2.94,1.7,3.17
6.754,-0.04,2.67,2.03,2.94,1.7,3.17
6.755,-0.04,2.67,2.03,2.94,1.7,3.17
6.761,-0.04,2.67,2.03,3.26,1.36,3
6.762,-0.04,2.67,2.03,3.26,1.36,3
6.763,0.3,2.62,1.99,3.26,1.36,3
6.763,0.3,2.62,1.99,3.26,1.36,3
6.771,0.3,2.62,1.99,3.35,1.24,2.49
6.772,0.3,2.62,1.99,3.35,1.24,2.49
6.773,0.76,2.36,1.83,3.35,1.24,2.49
6.774,0.76,2.36,1.83,3.35,1.24,2.49
6.78,0.76,2.36,1.83,3.26,0.97,1.72
6.782,0.76,2.36,1.83,3.26,0.97,1.72
6.783,1.21,1.92,1.45,3.26,0.97,1.72
6.785,1.21,1.92,1.45,3.26,0.97,1.72
6.791,1.21,1.92,1.45,3.05,0.66,0.83
6.793,1.21,1.92,1.45,3.05,0.66,0.83
6.794,1.56,1.37,0.87,3.05,0.66,0.83
6.795,1.56,1.37,0.87,3.05,0.66,0.83
6.8,1.56,1.37,0.87,3.05,0.66,0.83
6.801,1.56,1.37,0.87,3.05,0.66,0.83
6.802,1.56,1.37,0.87,3.05,0.66,0.83
6.803,1.56,1.37,0.87,3.05,0.66,0.83
6.809,1.56,1.37,0.87,2.71,0.4,-0.02
6.81,1.56,1.37,0.87,2.71,0.4,-0.02
6.81,1.72,0.62,-0.11,2.71,0.4,-0.02
6.811,1.72,0.62,-0.11,2.71,0.4,-0.02
6.82,1.72,0.62,-0.11,2.31,0.2,-0.75
6.822,1.72,0.62,-0.11,2.31,0.2,-0.75
6.823,1.52,0.56,-0.42,2.31,0.2,-0.75
6.824,1.52,0.56,-0.42,2.31,0.2,-0.75
6.829,1.52,0.56,-0.42,1.98,0.07,-1.32
6.831,1.52,0.56,-0.42,1.98,0.07,-1.32
6.833,1.1,0.66,-0.56,1.98,0.07,-1.32
6.834,1.1,0.66,-0.56,1.98,0.07,-1.32
6.838,1.1,0.66,-0.56,1.38,0.04,-1.66
6.838,1.1,0.66,-0.56,1.38,0.04,-1.66
6.839,0.59,0.79,-0.64,1.38,0.04,-1.66
6.839,0.59,0.79,-0.64,1.38,0.04,-1.66
6.847,0.59,0.79,-0.64,0.55,0.1,-1.75
6.848,0.59,0.79,-0.64,0.55,0.1,-1.75
6.848,0.15,0.86,-0.72,0.55,0.1,-1.75
6.849,0.15,0.86,-0.72,0.55,0.1,-1.75
6.866,0.15,0.86,-0.72,-0.1,0.25,-1.6
6.868,0.15,0.86,-0.72,-0.1,0.25,-1.6
6.869,-0.1,0.86,-0.69,-0.1,0.25,-1.6
6.87,-0.1,0.86,-0.69,-0.1,0.25,-1.6
6.871,-0.1,0.86,-0.69,-0.54,0.42,-1.27
6.872,-0.1,0.86,-0.69,-0.54,0.42,-1.27
6.872,-0.07,0.83,-0.48,-0.54,0.42,-1.27
6.873,-0.07,0.83,-0.48,-0.54,0.42,-1.27
6.876,-0.07,0.83,-0.48,-0.82,0.58,-0.86
6.876,-0.07,0.83,-0.48,-0.82,0.58,-0.86
6.877,0.22,0.89,-0.15,-0.82,0.58,-0.86
6.877,0.22,0.89,-0.15,-0.82,0.58,-0.86
6.886,0.22,0.89,-0.15,-0.83,0.68,-0.48
6.887,0.22,0.89,-0.15,-0.83,0.68,-0.48
6.888,0.6,1.05,0.24,-0.83,0.68,-0.48
6.888,0.6,1.05,0.24,-0.83,0.68,-0.48
6.908,0.6,1.05,0.24,-0.71,0.7,-0.22
6.909,0.6,1.05,0.24,-0.71,0.7,-0.22
6.91,0.96,1.3,0.71,-0.71,0.7,-0.22
6.911,0.96,1.3,0.71,-0.71,0.7,-0.22
6.912,0.96,1.3,0.71,-0.71,0.7,-0.22
6.913,0.96,1.3,0.71,-0.71,0.7,-0.22
6.913,0.96,1.3,0.71,-0.71,0.7,-0.22
6.913,0.96,1.3,0.71,-0.71,0.7,-0.22
6.914,0.96,1.3,0.71,-0.3,0.54,-0.21
6.914,0.96,1.3,0.71,-0.3,0.54,-0.21
6.915,1.51,1.64,1.52,-0.3,0.54,-0.21
6.915,1.51,1.64,1.52,-0.3,0.54,-0.21
6.924,1.51,1.64,1.52,0.1,0.42,-0.41
6.925,1.51,1.64,1.52,0.1,0.42,-0.41
6.925,1.76,1.31,1.56,0.1,0.42,-0.41
6.925,1.76,1.31,1.56,0.1,0.42,-0.41
6.933,1.76,1.31,1.56,0.54,0.32,-0.67
6.933,1.76,1.31,1.56,0.54,0.32,-0.67
6.934,2.07,-0.38,1.21,0.54,0.32,-0.67
6.934,2.07,-0.38,1.21,0.54,0.32,-0.67
6.942,2.07,-0.38,1.21,0.91,0.24,-0.92
6.944,2.07,-0.38,1.21,0.91,0.24,-0.92
6.944,2.36,-2.21,-0.47,0.91,0.24,-0.92
6.945,2.36,-2.21,-0.47,0.91,0.24,-0.92
6.954,2.36,-2.21,-0.47,0.95,0.19,-1.14
6.955,2.36,-2.21,-0.47,0.95,0.19,-1.14
6.956,2.55,-3.84,-0.83,0.95,0.19,-1.14
6.957,2.55,-3.84,-0.83,0.95,0.19,-1.14
6.969,2.55,-3.84,-0.83,0.67,0.15,-1.31
6.97,2.55,-3.84,-0.83,0.67,0.15,-1.31
6.97,2.58,-4.22,-1.42,0.67,0.15,-1.31
6.97,2.58,-4.22,-1.42,0.67,0.15,-1.31
6.97,2.58,-4.22,-1.42,0.18,0.11,-1.4
6.971,2.58,-4.22,-1.42,0.18,0.11,-1.4
6.971,2.4,-4.41,-3,0.18,0.11,-1.4
6.971,2.4,-4.41,-3,0.18,0.11,-1.4
6.981,2.4,-4.41,-3,-0.42,0.07,-1.39
6.981,2.4,-4.41,-3,-0.42,0.07,-1.39
6.982,2.04,-4.33,-3.58,-0.42,0.07,-1.39
6.982,2.04,-4.33,-3.58,-0.42,0.07,-1.39
6.991,2.04,-4.33,-3.58,-1.04,0.04,-1.29
6.992,2.04,-4.33,-3.58,-1.04,0.04,-1.29
6.992,1.61,-4.17,-5.28,-1.04,0.04,-1.29
6.993,1.61,-4.17,-5.28,-1.04,0.04,-1.29
6.999,1.61,-4.17,-5.28,-1.04,0.04,-1.29
7,1.61,-4.17,-5.28,-1.04,0.04,-1.29
7,1.61,-4.17,-5.28,-1.04,0.04,-1.29
7.001,1.61,-4.17,-5.28,-1.04,0.04,-1.29
7.009,1.61,-4.17,-5.28,-1.64,0.04,-1.11
7.01,1.61,-4.17,-5.28,-1.64,0.04,-1.11
7.011,0.48,-4.34,-6.09,-1.64,0.04,-1.11
7.011,0.48,-4.34,-6.09,-1.64,0.04,-1.11
7.018,0.48,-4.34,-6.09,-2.25,0.06,-0.84
7.02,0.48,-4.34,-6.09,-2.25,0.06,-0.84
7.021,-0.15,-4.82,-6.29,-2.25,0.06,-0.84
7.022,-0.15,-4.82,-6.29,-2.25,0.06,-0.84
7.028,-0.15,-4.82,-6.29,-2.81,0.08,-0.47
7.029,-0.15,-4.82,-6.29,-2.81,0.08,-0.47
7.03,-0.81,-6.54,-6.21,-2.81,0.08,-0.47
7.03,-0.81,-6.54,-6.21,-2.81,0.08,-0.47
7.038,-0.81,-6.54,-6.21,-3.22,0.14,-0.01
7.039,-0.81,-6.54,-6.21,-3.22,0.14,-0.01
7.039,-1.39,-6.8,-5.79,-3.22,0.14,-0.01
7.04,-1.39,-6.8,-5.79,-3.22,0.14,-0.01
7.048,-1.39,-6.8,-5.79,-3.38,0.2,0.39
7.049,-1.39,-6.8,-5.79,-3.38,0.2,0.39
7.049,-1.78,-7.01,-4.23,-3.38,0.2,0.39
7.05,-1.78,-7.01,-4.23,-3.38,0.2,0.39
7.059,-1.78,-7.01,-4.23,-3.01,0.24,0.76
7.06,-1.78,-7.01,-4.23,-3.01,0.24,0.76
7.06,-1.91,-6.86,-2.61,-3.01,0.24,0.76
7.061,-1.91,-6.86,-2.61,-3.01,0.24,0.76
7.066,-1.91,-6.86,-2.61,-2.4,0.21,1.14
7.066,-1.91,-6.86,-2.61,-2.4,0.21,1.14
7.067,-1.84,-5.15,-2.23,-2.4,0.21,1.14
7.067,-1.84,-5.15,-2.23,-2.4,0.21,1.14
7.076,-1.84,-5.15,-2.23,-1.97,0.2,1.37
7.077,-1.84,-5.15,-2.23,-1.97,0.2,1.37
7.078,-1.61,-3.52,-1.71,-1.97,0.2,1.37
7.078,-1.61,-3.52,-1.71,-1.97,0.2,1.37
7.085,-1.61,-3.52,-1.71,-1.43,0.12,1.46
7.086,-1.61,-3.52,-1.71,-1.43,0.12,1.46
7.087,-1.43,-3.01,-1.25,-1.43,0.12,1.46
7.087,-1.43,-3.01,-1.25,-1.43,0.12,1.46
7.095,-1.43,-3.01,-1.25,-0.8,-0.07,1.44
7.096,-1.43,-3.01,-1.25,-0.8,-0.07,1.44
7.096,-1.43,-1.34,-0.88,-0.8,-0.07,1.44
7.097,-1.43,-1.34,-0.88,-0.8,-0.07,1.44
7.104,-1.43,-1.34,-0.88,-0.3,-0.25,1.35
7.105,-1.43,-1.34,-0.88,-0.3,-0.25,1.35
7.106,-1.6,-0.9,-0.66,-0.3,-0.25,1.35
7.106,-1.6,-0.9,-0.66,-0.3,-0.25,1.35
7.114,-1.6,-0.9,-0.66,0.09,-0.41,1.23
7.116,-1.6,-0.9,-0.66,0.09,-0.41,1.23
7.116,-1.86,-0.38,-0.59,0.09,-0.41,1.23
7.117,-1.86,-0.38,-0.59,0.09,-0.41,1.23
7.125,-1.86,-0.38,-0.59,0.39,-0.54,1.13
7.126,-1.86,-0.38,-0.59,0.39,-0.54,1.13
7.127,-2.09,0.09,-0.71,0.39,-0.54,1.13
7.128,-2.09,0.09,-0.71,0.39,-0.54,1.13
7.134,-2.09,0.09,-0.71,0.61,-0.6,1.07
7.135,-2.09,0.09,-0.71,0.61,-0.6,1.07
7.136,-2.21,0.46,-0.92,0.61,-0.6,1.07
7.137,-2.21,0.46,-0.92,0.61,-0.6,1.07
7.143,-2.21,0.46,-0.92,0.74,-0.61,1.08
7.144,-2.21,0.46,-0.92,0.74,-0.61,1.08
7.145,-2.12,0.77,-1.15,0.74,-0.61,1.08
7.146,-2.12,0.77,-1.15,0.74,-0.61,1.08
7.152,-2.12,0.77,-1.15,0.76,-0.58,1.12
7.154,-2.12,0.77,-1.15,0.76,-0.58,1.12
7.155,-1.9,1.05,-1.29,0.76,-0.58,1.12
7.156,-1.9,1.05,-1.29,0.76,-0.58,1.12
7.171,-1.9,1.05,-1.29,0.7,-0.55,1.17
7.171,-1.9,1.05,-1.29,0.7,-0.55,1.17
7.172,-1.59,1.33,-1.31,0.7,-0.55,1.17
7.172,-1.59,1.33,-1.31,0.7,-0.55,1.17
7.172,-1.59,1.33,-1.31,0.55,-0.51,1.18
7.173,-1.59,1.33,-1.31,0.55,-0.51,1.18
7.173,-1.26,1.58,-1.31,0.55,-0.51,1.18
7.173,-1.26,1.58,-1.31,0.55,-0.51,1.18
7.182,-1.26,1.58,-1.31,0.37,-0.49,1.11
7.183,-1.26,1.58,-1.31,0.37,-0.49,1.11
7.183,-1.04,1.8,-1.28,0.37,-0.49,1.11
7.184,-1.04,1.8,-1.28,0.37,-0.49,1.11
7.191,-1.04,1.8,-1.28,0.37,-0.49,1.11
7.191,-1.04,1.8,-1.28,0.37,-0.49,1.11
7.192,-1.04,1.8,-1.28,0.37,-0.49,1.11
7.192,-1.04,1.8,-1.28,0.37,-0.49,1.11
7.199,-1.04,1.8,-1.28,0.19,-0.47,0.98
7.2,-1.04,1.8,-1.28,0.19,-0.47,0.98
7.201,-0.7,2.12,-1.52,0.19,-0.47,0.98
7.201,-0.7,2.12,-1.52,0.19,-0.47,0.98
7.209,-0.7,2.12,-1.52,0.03,-0.44,0.78
7.21,-0.7,2.12,-1.52,0.03,-0.44,0.78
7.21,-0.62,2.22,-1.44,0.03,-0.44,0.78
7.211,-0.62,2.22,-1.44,0.03,-0.44,0.78
7.218,-0.62,2.22,-1.44,-0.13,-0.4,0.54
7.219,-0.62,2.22,-1.44,-0.13,-0.4,0.54
7.22,-0.56,2.3,-1.19,-0.13,-0.4,0.54
7.22,-0.56,2.3,-1.19,-0.13,-0.4,0.54
7.228,-0.56,2.3,-1.19,-0.28,-0.39,0.31
7.229,-0.56,2.3,-1.19,-0.28,-0.39,0.31
7.23,-0.55,2.41,-0.81,-0.28,-0.39,0.31
7.23,-0.55,2.41,-0.81,-0.28,-0.39,0.31
7.237,-0.55,2.41,-0.81,-0.39,-0.42,0.09
7.238,-0.55,2.41,-0.81,-0.39,-0.42,0.09
7.239,-0.63,2.52,-0.37,-0.39,-0.42,0.09
7.24,-0.63,2.52,-0.37,-0.39,-0.42,0.09
7.248,-0.63,2.52,-0.37,-0.4,-0.5,-0.07
7.249,-0.63,2.52,-0.37,-0.4,-0.5,-0.07
7.25,-0.73,2.64,-0.06,-0.4,-0.5,-0.07
7.25,-0.73,2.64,-0.06,-0.4,-0.5,-0.07
7.26,-0.73,2.64,-0.06,-0.31,-0.61,-0.17
7.261,-0.73,2.64,-0.06,-0.31,-0.61,-0.17
7.262,-0.86,2.76,0.17,-0.31,-0.61,-0.17
7.262,-0.86,2.76,0.17,-0.31,-0.61,-0.17
7.266,-0.86,2.76,0.17,-0.12,-0.75,-0.2
7.267,-0.86,2.76,0.17,-0.12,-0.75,-0.2
7.268,-1.02,2.86,0.35,-0.12,-0.75,-0.2
7.268,-1.02,2.86,0.35,-0.12,-0.75,-0.2
7.275,-1.02,2.86,0.35,0.1,-0.92,-0.15
7.277,-1.02,2.86,0.35,0.1,-0.92,-0.15
7.277,-1.18,2.93,0.54,0.1,-0.92,-0.15
7.278,-1.18,2.93,0.54,0.1,-0.92,-0.15
7.285,-1.18,2.93,0.54,0.32,-1.09,-0.04
7.286,-1.18,2.93,0.54,0.32,-1.09,-0.04
7.287,-1.3,2.99,0.65,0.32,-1.09,-0.04
7.288,-1.3,2.99,0.65,0.32,-1.09,-0.04
7.294,-1.3,2.99,0.65,0.5,-1.24,0.13
7.296,-1.3,2.99,0.65,0.5,-1.24,0.13
7.297,-1.4,2.98,0.67,0.5,-1.24,0.13
7.298,-1.4,2.98,0.67,0.5,-1.24,0.13
7.304,-1.4,2.98,0.67,0.64,-1.38,0.33
7.304,-1.4,2.98,0.67,0.64,-1.38,0.33
7.305,-1.46,2.94,0.59,0.64,-1.38,0.33
7.306,-1.46,2.94,0.59,0.64,-1.38,0.33
7.314,-1.46,2.94,0.59,0.71,-1.47,0.55
7.315,-1.46,2.94,0.59,0.71,-1.47,0.55
7.315,-1.52,2.87,0.51,0.71,-1.47,0.55
7.316,-1.52,2.87,0.51,0.71,-1.47,0.55
7.324,-1.52,2.87,0.51,0.61,-1.41,0.75
7.325,-1.52,2.87,0.51,0.61,-1.41,0.75
7.326,-1.54,2.8,0.47,0.61,-1.41,0.75
7.327,-1.54,2.8,0.47,0.61,-1.41,0.75
7.332,-1.54,2.8,0.47,0.47,-1.29,0.93
7.333,-1.54,2.8,0.47,0.47,-1.29,0.93
7.334,-1.48,2.77,0.45,0.47,-1.29,0.93
7.334,-1.48,2.77,0.45,0.47,-1.29,0.93
7.343,-1.48,2.77,0.45,0.41,-1.22,1.06
7.345,-1.48,2.77,0.45,0.41,-1.22,1.06
7.346,-1.32,2.75,0.4,0.41,-1.22,1.06
7.347,-1.32,2.75,0.4,0.41,-1.22,1.06
7.352,-1.32,2.75,0.4,0.32,-1.1,1.13
7.353,-1.32,2.75,0.4,0.32,-1.1,1.13
7.354,-1.09,2.73,0.3,0.32,-1.1,1.13
7.356,-1.09,2.73,0.3,0.32,-1.1,1.13
7.37,-1.09,2.73,0.3,0.22,-0.94,1.13
7.371,-1.09,2.73,0.3,0.22,-0.94,1.13
7.371,-0.81,2.7,0.08,0.22,-0.94,1.13
7.372,-0.81,2.7,0.08,0.22,-0.94,1.13
7.377,-0.81,2.7,0.08,0.13,-0.74,1.05
7.378,-0.81,2.7,0.08,0.13,-0.74,1.05
7.378,-0.53,2.64,-0.22,0.13,-0.74,1.05
7.379,-0.53,2.64,-0.22,0.13,-0.74,1.05
7.381,-0.53,2.64,-0.22,0,-0.51,0.89
7.382,-0.53,2.64,-0.22,0,-0.51,0.89
7.383,-0.21,2.5,-0.53,0,-0.51,0.89
7.383,-0.21,2.5,-0.53,0,-0.51,0.89
7.39,-0.21,2.5,-0.53,0,-0.51,0.89
7.391,-0.21,2.5,-0.53,0,-0.51,0.89
7.392,-0.21,2.5,-0.53,0,-0.51,0.89
7.392,-0.21,2.5,-0.53,0,-0.51,0.89
7.4,-0.21,2.5,-0.53,-0.16,-0.25,0.67
7.402,-0.21,2.5,-0.53,-0.16,-0.25,0.67
7.403,0.77,1.86,-1.22,-0.16,-0.25,0.67
7.403,0.77,1.86,-1.22,-0.16,-0.25,0.67
7.408,0.77,1.86,-1.22,-0.39,0.04,0.35
7.41,0.77,1.86,-1.22,-0.39,0.04,0.35
7.41,2.56,1.3,-1.52,-0.39,0.04,0.35
7.411,2.56,1.3,-1.52,-0.39,0.04,0.35
7.418,2.56,1.3,-1.52,-0.7,0.33,-0.14
7.42,2.56,1.3,-1.52,-0.7,0.33,-0.14
7.421,2.91,0.72,-1.75,-0.7,0.33,-0.14
7.422,2.91,0.72,-1.75,-0.7,0.33,-0.14
7.428,2.91,0.72,-1.75,-1.06,0.6,-0.88
7.429,2.91,0.72,-1.75,-1.06,0.6,-0.88
7.429,3.4,0.25,-1.86,-1.06,0.6,-0.88
7.43,3.4,0.25,-1.86,-1.06,0.6,-0.88
7.437,3.4,0.25,-1.86,-1.25,0.61,-1.79
7.437,3.4,0.25,-1.86,-1.25,0.61,-1.79
7.437,3.78,0.07,-1.8,-1.25,0.61,-1.79
7.438,3.78,0.07,-1.8,-1.25,0.61,-1.79
7.447,3.78,0.07,-1.8,-1.25,0.39,-2.64
7.448,3.78,0.07,-1.8,-1.25,0.39,-2.64
7.448,3.95,0.2,-1.63,-1.25,0.39,-2.64
7.449,3.95,0.2,-1.63,-1.25,0.39,-2.64
7.458,3.95,0.2,-1.63,-1.24,0.29,-3.26
7.459,3.95,0.2,-1.63,-1.24,0.29,-3.26
7.46,3.81,0.57,-1.49,-1.24,0.29,-3.26
7.46,3.81,0.57,-1.49,-1.24,0.29,-3.26
7.466,3.81,0.57,-1.49,-1.21,0.24,-3.61
7.467,3.81,0.57,-1.49,-1.21,0.24,-3.61
7.468,3.4,1.02,-1.42,-1.21,0.24,-3.61
7.468,3.4,1.02,-1.42,-1.21,0.24,-3.61
7.475,3.4,1.02,-1.42,-1.14,0.14,-3.71
7.476,3.4,1.02,-1.42,-1.14,0.14,-3.71
7.477,2.82,1.45,-1.39,-1.14,0.14,-3.71
7.477,2.82,1.45,-1.39,-1.14,0.14,-3.71
7.484,2.82,1.45,-1.39,-1.04,0.01,-3.59
7.485,2.82,1.45,-1.39,-1.04,0.01,-3.59
7.486,1.34,1.7,-1.34,-1.04,0.01,-3.59
7.486,1.34,1.7,-1.34,-1.04,0.01,-3.59
7.495,1.34,1.7,-1.34,-0.94,-0.14,-3.22
7.496,1.34,1.7,-1.34,-0.94,-0.14,-3.22
7.497,0.96,1.74,-1.13,-0.94,-0.14,-3.22
7.497,0.96,1.74,-1.13,-0.94,-0.14,-3.22
7.504,0.96,1.74,-1.13,-0.86,-0.29,-2.6
7.504,0.96,1.74,-1.13,-0.86,-0.29,-2.6
7.505,0.45,1.6,-0.78,-0.86,-0.29,-2.6
7.506,0.45,1.6,-0.78,-0.86,-0.29,-2.6
7.513,0.45,1.6,-0.78,-0.75,-0.34,-1.78
7.515,0.45,1.6,-0.78,-0.75,-0.34,-1.78
7.515,-0.08,1.29,-0.35,-0.75,-0.34,-1.78
7.516,-0.08,1.29,-0.35,-0.75,-0.34,-1.78
7.524,-0.08,1.29,-0.35,-0.61,-0.29,-0.87
7.526,-0.08,1.29,-0.35,-0.61,-0.29,-0.87
7.526,-0.5,0.94,0.04,-0.61,-0.29,-0.87
7.527,-0.5,0.94,0.04,-0.61,-0.29,-0.87
7.532,-0.5,0.94,0.04,-0.5,-0.25,0.01
7.533,-0.5,0.94,0.04,-0.5,-0.25,0.01
7.534,-0.79,0.64,0.23,-0.5,-0.25,0.01
7.534,-0.79,0.64,0.23,-0.5,-0.25,0.01
7.543,-0.79,0.64,0.23,-0.41,-0.21,0.81
7.544,-0.79,0.64,0.23,-0.41,-0.21,0.81
7.545,-0.89,0.42,0.2,-0.41,-0.21,0.81
7.546,-0.89,0.42,0.2,-0.41,-0.21,0.81
7.551,-0.89,0.42,0.2,-0.34,-0.19,1.48
7.553,-0.89,0.42,0.2,-0.34,-0.19,1.48
7.554,-0.83,0.28,0,-0.34,-0.19,1.48
7.556,-0.83,0.28,0,-0.34,-0.19,1.48
7.569,-0.83,0.28,0,-0.28,-0.16,1.98
7.57,-0.83,0.28,0,-0.28,-0.16,1.98
7.571,-0.66,0.22,-0.24,-0.28,-0.16,1.98
7.571,-0.66,0.22,-0.24,-0.28,-0.16,1.98
7.571,-0.66,0.22,-0.24,-0.09,-0.16,2.27
7.572,-0.66,0.22,-0.24,-0.09,-0.16,2.27
7.572,-0.42,0.21,-0.35,-0.09,-0.16,2.27
7.572,-0.42,0.21,-0.35,-0.09,-0.16,2.27
7.582,-0.42,0.21,-0.35,0.15,-0.15,2.36
7.583,-0.42,0.21,-0.35,0.15,-0.15,2.36
7.584,-0.19,0.26,-0.31,0.15,-0.15,2.36
7.584,-0.19,0.26,-0.31,0.15,-0.15,2.36
7.59,-0.19,0.26,-0.31,0.15,-0.15,2.36
7.591,-0.19,0.26,-0.31,0.15,-0.15,2.36
7.591,-0.19,0.26,-0.31,0.15,-0.15,2.36
7.592,-0.19,0.26,-0.31,0.15,-0.15,2.36
7.599,-0.19,0.26,-0.31,0.23,-0.13,2.27
7.6,-0.19,0.26,-0.31,0.23,-0.13,2.27
7.6,0.01,0.48,0.12,0.23,-0.13,2.27
7.601,0.01,0.48,0.12,0.23,-0.13,2.27
7.608,0.01,0.48,0.12,0.25,-0.13,2.05
7.61,0.01,0.48,0.12,0.25,-0.13,2.05
7.61,0.01,0.55,0.38,0.25,-0.13,2.05
7.611,0.01,0.55,0.38,0.25,-0.13,2.05
7.618,0.01,0.55,0.38,0.26,-0.16,1.76
7.618,0.01,0.55,0.38,0.26,-0.16,1.76
7.619,-0.02,0.68,0.49,0.26,-0.16,1.76
7.619,-0.02,0.68,0.49,0.26,-0.16,1.76
7.627,-0.02,0.68,0.49,0.32,-0.21,1.46
7.628,-0.02,0.68,0.49,0.32,-0.21,1.46
7.629,-0.06,0.83,0.46,0.32,-0.21,1.46
7.63,-0.06,0.83,0.46,0.32,-0.21,1.46
7.637,-0.06,0.83,0.46,0.41,-0.26,1.2
7.638,-0.06,0.83,0.46,0.41,-0.26,1.2
7.639,-0.14,1.02,0.3,0.41,-0.26,1.2
7.64,-0.14,1.02,0.3,0.41,-0.26,1.2
7.652,-0.14,1.02,0.3,0.48,-0.3,1.01
7.653,-0.14,1.02,0.3,0.48,-0.3,1.01
7.653,-0.19,1.25,0.05,0.48,-0.3,1.01
7.653,-0.19,1.25,0.05,0.48,-0.3,1.01
7.661,-0.19,1.25,0.05,0.49,-0.33,0.87
7.662,-0.19,1.25,0.05,0.49,-0.33,0.87
7.662,-0.21,1.41,-0.13,0.49,-0.33,0.87
7.663,-0.21,1.41,-0.13,0.49,-0.33,0.87
7.665,-0.21,1.41,-0.13,0.41,-0.34,0.78
7.666,-0.21,1.41,-0.13,0.41,-0.34,0.78
7.666,-0.17,1.43,-0.2,0.41,-0.34,0.78
7.666,-0.17,1.43,-0.2,0.41,-0.34,0.78
7.675,-0.17,1.43,-0.2,0.25,-0.34,0.72
7.676,-0.17,1.43,-0.2,0.25,-0.34,0.72
7.677,-0.1,1.21,-0.15,0.25,-0.34,0.72
7.678,-0.1,1.21,-0.15,0.25,-0.34,0.72
7.684,-0.1,1.21,-0.15,0.05,-0.34,0.66
7.686,-0.1,1.21,-0.15,0.05,-0.34,0.66
7.687,-0.08,0.72,0.01,0.05,-0.34,0.66
7.688,-0.08,0.72,0.01,0.05,-0.34,0.66
7.694,-0.08,0.72,0.01,-0.12,-0.36,0.59
7.696,-0.08,0.72,0.01,-0.12,-0.36,0.59
7.697,-0.18,-0.96,0.26,-0.12,-0.36,0.59
7.698,-0.18,-0.96,0.26,-0.12,-0.36,0.59
7.703,-0.18,-0.96,0.26,-0.21,-0.37,0.48
7.704,-0.18,-0.96,0.26,-0.21,-0.37,0.48
7.704,-0.41,-2.84,0.48,-0.21,-0.37,0.48
7.705,-0.41,-2.84,0.48,-0.21,-0.37,0.48
7.713,-0.41,-2.84,0.48,-0.17,-0.37,0.32
7.715,-0.41,-2.84,0.48,-0.17,-0.37,0.32
7.715,-0.72,-3.22,0.63,-0.17,-0.37,0.32
7.716,-0.72,-3.22,0.63,-0.17,-0.37,0.32
7.724,-0.72,-3.22,0.63,-0.01,-0.37,0.15
7.726,-0.72,-3.22,0.63,-0.01,-0.37,0.15
7.727,-1.01,-3.64,0.69,-0.01,-0.37,0.15
7.727,-1.01,-3.64,0.69,-0.01,-0.37,0.15
7.732,-1.01,-3.64,0.69,0.21,-0.36,0.02
7.733,-1.01,-3.64,0.69,0.21,-0.36,0.02
7.734,-1.18,-3.72,0.7,0.21,-0.36,0.02
7.734,-1.18,-3.72,0.7,0.21,-0.36,0.02
7.742,-1.18,-3.72,0.7,0.41,-0.33,-0.03
7.743,-1.18,-3.72,0.7,0.41,-0.33,-0.03
7.744,-1.26,-3.39,0.74,0.41,-0.33,-0.03
7.744,-1.26,-3.39,0.74,0.41,-0.33,-0.03
7.751,-1.26,-3.39,0.74,0.56,-0.26,0
7.752,-1.26,-3.39,0.74,0.56,-0.26,0
7.752,-1.26,-1.74,0.77,0.56,-0.26,0
7.753,-1.26,-1.74,0.77,0.56,-0.26,0
7.762,-1.26,-1.74,0.77,0.65,-0.14,0.09
7.763,-1.26,-1.74,0.77,0.65,-0.14,0.09
7.764,-1.26,-1.52,0.83,0.65,-0.14,0.09
7.764,-1.26,-1.52,0.83,0.65,-0.14,0.09
7.77,-1.26,-1.52,0.83,0.68,0,0.21
7.771,-1.26,-1.52,0.83,0.68,0,0.21
7.772,-1.29,-1.26,0.97,0.68,0,0.21
7.772,-1.29,-1.26,0.97,0.68,0,0.21
7.78,-1.29,-1.26,0.97,0.68,0,0.21
7.78,-1.29,-1.26,0.97,0.68,0,0.21
7.781,-1.29,-1.26,0.97,0.68,0,0.21
7.781,-1.29,-1.26,0.97,0.68,0,0.21
7.79,-1.29,-1.26,0.97,0.7,0.17,0.34
7.791,-1.29,-1.26,0.97,0.7,0.17,0.34
7.792,-1.13,-1.18,1.82,0.7,0.17,0.34
7.792,-1.13,-1.18,1.82,0.7,0.17,0.34
7.799,-1.13,-1.18,1.82,0.72,0.32,0.46
7.8,-1.13,-1.18,1.82,0.72,0.32,0.46
7.802,-0.65,-1.49,3.47,0.72,0.32,0.46
7.802,-0.65,-1.49,3.47,0.72,0.32,0.46
7.808,-0.65,-1.49,3.47,0.85,0.44,0.53
7.809,-0.65,-1.49,3.47,0.85,0.44,0.53
7.81,1.03,-2,5.46,0.85,0.44,0.53
7.81,1.03,-2,5.46,0.85,0.44,0.53
7.818,1.03,-2,5.46,1.2,0.46,0.48
7.819,1.03,-2,5.46,1.2,0.46,0.48
7.82,2.71,-2.61,5.94,1.2,0.46,0.48
7.822,2.71,-2.61,5.94,1.2,0.46,0.48
7.827,2.71,-2.61,5.94,1.78,0.33,0.18
7.828,2.71,-2.61,5.94,1.78,0.33,0.18
7.83,4.68,-3.22,7.61,1.78,0.33,0.18
7.831,4.68,-3.22,7.61,1.78,0.33,0.18
7.837,4.68,-3.22,7.61,2.5,0.03,-0.43
7.838,4.68,-3.22,7.61,2.5,0.03,-0.43
7.838,6.57,-3.79,7.62,2.5,0.03,-0.43
7.839,6.57,-3.79,7.62,2.5,0.03,-0.43
7.854,6.57,-3.79,7.62,3.22,-0.37,-1.33
7.855,6.57,-3.79,7.62,3.22,-0.37,-1.33
7.855,8.06,-4.34,5.04,3.22,-0.37,-1.33
7.856,8.06,-4.34,5.04,3.22,-0.37,-1.33
7.856,8.06,-4.34,5.04,3.7,-0.77,-2.39
7.857,8.06,-4.34,5.04,3.7,-0.77,-2.39
7.857,8.05,-4.77,1.8,3.7,-0.77,-2.39
7.858,8.05,-4.77,1.8,3.7,-0.77,-2.39
7.865,8.05,-4.77,1.8,3.51,-0.81,-3.41
7.866,8.05,-4.77,1.8,3.51,-0.81,-3.41
7.866,6.02,-4.92,0.02,3.51,-0.81,-3.41
7.866,6.02,-4.92,0.02,3.51,-0.81,-3.41
7.875,6.02,-4.92,0.02,2.71,-0.83,-4.14
7.876,6.02,-4.92,0.02,2.71,-0.83,-4.14
7.876,3.25,-4.72,-1.61,2.71,-0.83,-4.14
7.876,3.25,-4.72,-1.61,2.71,-0.83,-4.14
7.884,3.25,-4.72,-1.61,1.63,-0.98,-4.3
7.885,3.25,-4.72,-1.61,1.63,-0.98,-4.3
7.885,0.38,-2.98,-1.32,1.63,-0.98,-4.3
7.886,0.38,-2.98,-1.32,1.63,-0.98,-4.3
7.907,0.38,-2.98,-1.32,0.37,-0.95,-3.82
7.908,0.38,-2.98,-1.32,0.37,-0.95,-3.82
7.909,-1.5,-2.51,0.75,0.37,-0.95,-3.82
7.909,-1.5,-2.51,0.75,0.37,-0.95,-3.82
7.91,-1.5,-2.51,0.75,0.37,-0.95,-3.82
7.911,-1.5,-2.51,0.75,0.37,-0.95,-3.82
7.911,-1.5,-2.51,0.75,0.37,-0.95,-3.82
7.912,-1.5,-2.51,0.75,0.37,-0.95,-3.82
7.913,-1.5,-2.51,0.75,-1.28,-0.56,-1.48
7.914,-1.5,-2.51,0.75,-1.28,-0.56,-1.48
7.914,-2.17,0.85,4.62,-1.28,-0.56,-1.48
7.915,-2.17,0.85,4.62,-1.28,-0.56,-1.48
7.924,-2.17,0.85,4.62,-1.18,-0.07,-0.07
7.925,-2.17,0.85,4.62,-1.18,-0.07,-0.07
7.926,-2.29,1.16,5.2,-1.18,-0.07,-0.07
7.926,-2.29,1.16,5.2,-1.18,-0.07,-0.07
7.932,-2.29,1.16,5.2,-0.48,0.44,1.17
7.933,-2.29,1.16,5.2,-0.48,0.44,1.17
7.934,-2.22,1.65,5.73,-0.48,0.44,1.17
7.934,-2.22,1.65,5.73,-0.48,0.44,1.17
7.943,-2.22,1.65,5.73,0.5,0.82,2.13
7.944,-2.22,1.65,5.73,0.5,0.82,2.13
7.945,-2.09,2.05,5.87,0.5,0.82,2.13
7.945,-2.09,2.05,5.87,0.5,0.82,2.13
7.95,-2.09,2.05,5.87,1.44,1.01,2.79
7.952,-2.09,2.05,5.87,1.44,1.01,2.79
7.953,-1.93,2.22,5.56,1.44,1.01,2.79
7.954,-1.93,2.22,5.56,1.44,1.01,2.79
7.965,-1.93,2.22,5.56,2.21,1.05,3.19
7.967,-1.93,2.22,5.56,2.21,1.05,3.19
7.968,-1.75,2.16,3.68,2.21,1.05,3.19
7.968,-1.75,2.16,3.68,2.21,1.05,3.19
7.976,-1.75,2.16,3.68,2.72,1.01,2.69
7.977,-1.75,2.16,3.68,2.72,1.01,2.69
7.978,-1.45,1.9,3.22,2.72,1.01,2.69
7.978,-1.45,1.9,3.22,2.72,1.01,2.69
7.979,-1.45,1.9,3.22,2.72,1.01,2.69
7.98,-1.45,1.9,3.22,2.72,1.01,2.69
7.98,-1.45,1.9,3.22,2.72,1.01,2.69
7.98,-1.45,1.9,3.22,2.72,1.01,2.69
7.99,-1.45,1.9,3.22,2.86,0.99,2.12
7.991,-1.45,1.9,3.22,2.86,0.99,2.12
7.992,-0.37,1.09,1.98,2.86,0.99,2.12
7.992,-0.37,1.09,1.98,2.86,0.99,2.12
7.998,-0.37,1.09,1.98,2.57,0.81,2.14
7.999,-0.37,1.09,1.98,2.57,0.81,2.14
8,0.28,0.76,1.54,2.57,0.81,2.14
8,0.28,0.76,1.54,2.57,0.81,2.14
8.008,0.28,0.76,1.54,1.95,0.48,1.9
8.009,0.28,0.76,1.54,1.95,0.48,1.9
8.01,0.87,0.51,1.31,1.95,0.48,1.9
8.01,0.87,0.51,1.31,1.95,0.48,1.9
8.018,0.87,0.51,1.31,1.18,0.36,1.42
8.018,0.87,0.51,1.31,1.18,0.36,1.42
8.019,1.34,0.4,1.23,1.18,0.36,1.42
8.02,1.34,0.4,1.23,1.18,0.36,1.42
8.027,1.34,0.4,1.23,0.39,0.35,0.78
8.028,1.34,0.4,1.23,0.39,0.35,0.78
8.028,1.7,0.38,1.15,0.39,0.35,0.78
8.029,1.7,0.38,1.15,0.39,0.35,0.78
8.037,1.7,0.38,1.15,-0.28,0.24,0.1
8.038,1.7,0.38,1.15,-0.28,0.24,0.1
8.038,2.07,0.41,0.97,-0.28,0.24,0.1
8.039,2.07,0.41,0.97,-0.28,0.24,0.1
8.047,2.07,0.41,0.97,-0.77,0.08,-0.53
8.048,2.07,0.41,0.97,-0.77,0.08,-0.53
8.048,2.43,0.39,0.6,-0.77,0.08,-0.53
8.049,2.43,0.39,0.6,-0.77,0.08,-0.53
8.062,2.43,0.39,0.6,-0.91,-0.09,-1.08
8.062,2.43,0.39,0.6,-0.91,-0.09,-1.08
8.063,2.71,0.29,0.07,-0.91,-0.09,-1.08
8.063,2.71,0.29,0.07,-0.91,-0.09,-1.08
8.065,2.71,0.29,0.07,-0.8,-0.25,-1.53
8.066,2.71,0.29,0.07,-0.8,-0.25,-1.53
8.066,2.85,0.13,-0.46,-0.8,-0.25,-1.53
8.066,2.85,0.13,-0.46,-0.8,-0.25,-1.53
8.074,2.85,0.13,-0.46,-0.71,-0.39,-1.9
8.075,2.85,0.13,-0.46,-0.71,-0.39,-1.9
8.076,2.79,-0.09,-0.84,-0.71,-0.39,-1.9
8.077,2.79,-0.09,-0.84,-0.71,-0.39,-1.9
8.084,2.79,-0.09,-0.84,-0.9,-0.57,-2.17
8.085,2.79,-0.09,-0.84,-0.9,-0.57,-2.17
8.086,2.62,-0.2,-0.97,-0.9,-0.57,-2.17
8.087,2.62,-0.2,-0.97,-0.9,-0.57,-2.17
8.094,2.62,-0.2,-0.97,-1.31,-0.77,-2.32
8.095,2.62,-0.2,-0.97,-1.31,-0.77,-2.32
8.096,2.5,-0.2,-0.88,-1.31,-0.77,-2.32
8.097,2.5,-0.2,-0.88,-1.31,-0.77,-2.32
8.103,2.5,-0.2,-0.88,-1.63,-0.9,-2.35
8.104,2.5,-0.2,-0.88,-1.63,-0.9,-2.35
8.105,2.53,-0.09,-0.77,-1.63,-0.9,-2.35
8.106,2.53,-0.09,-0.77,-1.63,-0.9,-2.35
8.113,2.53,-0.09,-0.77,-1.8,-0.96,-2.28
8.114,2.53,-0.09,-0.77,-1.8,-0.96,-2.28
8.115,2.7,0.07,-0.86,-1.8,-0.96,-2.28
8.116,2.7,0.07,-0.86,-1.8,-0.96,-2.28
8.124,2.7,0.07,-0.86,-1.83,-0.96,-2.14
8.125,2.7,0.07,-0.86,-1.83,-0.96,-2.14
8.126,3.02,0.21,-1.32,-1.83,-0.96,-2.14
8.126,3.02,0.21,-1.32,-1.83,-0.96,-2.14
8.132,3.02,0.21,-1.32,-1.76,-0.93,-2
8.133,3.02,0.21,-1.32,-1.76,-0.93,-2
8.134,3.41,0.3,-2.94,-1.76,-0.93,-2
8.134,3.41,0.3,-2.94,-1.76,-0.93,-2
8.143,3.41,0.3,-2.94,-1.73,-0.92,-1.92
8.143,3.41,0.3,-2.94,-1.73,-0.92,-1.92
8.144,3.7,0.37,-3.53,-1.73,-0.92,-1.92
8.145,3.7,0.37,-3.53,-1.73,-0.92,-1.92
8.15,3.7,0.37,-3.53,-1.86,-0.98,-1.93
8.151,3.7,0.37,-3.53,-1.86,-0.98,-1.93
8.152,3.74,0.46,-4.16,-1.86,-0.98,-1.93
8.152,3.74,0.46,-4.16,-1.86,-0.98,-1.93
8.161,3.74,0.46,-4.16,-2.17,-1.12,-2.02
8.162,3.74,0.46,-4.16,-2.17,-1.12,-2.02
8.162,3.4,0.58,-4.53,-2.17,-1.12,-2.02
8.163,3.4,0.58,-4.53,-2.17,-1.12,-2.02
8.171,3.4,0.58,-4.53,-2.17,-1.12,-2.02
8.171,3.4,0.58,-4.53,-2.17,-1.12,-2.02
8.172,3.4,0.58,-4.53,-2.17,-1.12,-2.02
8.172,3.4,0.58,-4.53,-2.17,-1.12,-2.02
8.179,3.4,0.58,-4.53,-2.56,-1.29,-2.12
8.18,3.4,0.58,-4.53,-2.56,-1.29,-2.12
8.18,1.03,1.06,-2.28,-2.56,-1.29,-2.12
8.18,1.03,1.06,-2.28,-2.56,-1.29,-2.12
8.19,1.03,1.06,-2.28,-2.84,-1.35,-2.06
8.191,1.03,1.06,-2.28,-2.84,-1.35,-2.06
8.191,-0.54,1.43,-0.49,-2.84,-1.35,-2.06
8.192,-0.54,1.43,-0.49,-2.84,-1.35,-2.06
8.198,-0.54,1.43,-0.49,-2.81,-1.1,-1.64
8.199,-0.54,1.43,-0.49,-2.81,-1.1,-1.64
8.2,-0.96,1.87,1.34,-2.81,-1.1,-1.64
8.2,-0.96,1.87,1.34,-2.81,-1.1,-1.64
8.208,-0.96,1.87,1.34,-2.48,-0.77,-0.74
8.209,-0.96,1.87,1.34,-2.48,-0.77,-0.74
8.21,-1.28,2.31,1.79,-2.48,-0.77,-0.74
8.21,-1.28,2.31,1.79,-2.48,-0.77,-0.74
8.217,-1.28,2.31,1.79,-1.64,-0.12,0.46
8.218,-1.28,2.31,1.79,-1.64,-0.12,0.46
8.219,-1.41,2.63,3.2,-1.64,-0.12,0.46
8.22,-1.41,2.63,3.2,-1.64,-0.12,0.46
8.227,-1.41,2.63,3.2,-0.27,0.86,1.59
8.228,-1.41,2.63,3.2,-0.27,0.86,1.59
8.23,-1.26,2.77,3.37,-0.27,0.86,1.59
8.231,-1.26,2.77,3.37,-0.27,0.86,1.59
8.237,-1.26,2.77,3.37,1.23,1.56,2.42
8.238,-1.26,2.77,3.37,1.23,1.56,2.42
8.239,-0.83,2.71,3.32,1.23,1.56,2.42
8.24,-0.83,2.71,3.32,1.23,1.56,2.42
8.251,-0.83,2.71,3.32,2.62,1.91,2.89
8.252,-0.83,2.71,3.32,2.62,1.91,2.89
8.253,0.59,2.47,2.83,2.62,1.91,2.89
8.253,0.59,2.47,2.83,2.62,1.91,2.89
8.266,0.59,2.47,2.83,3.7,1.88,2.62
8.267,0.59,2.47,2.83,3.7,1.88,2.62
8.267,1.03,2.14,1.06,3.7,1.88,2.62
8.267,1.03,2.14,1.06,3.7,1.88,2.62
8.268,1.03,2.14,1.06,4.26,1.61,2.01
8.268,1.03,2.14,1.06,4.26,1.61,2.01
8.268,1.51,1.85,0.44,4.26,1.61,2.01
8.268,1.51,1.85,0.44,4.26,1.61,2.01
8.274,1.51,1.85,0.44,4.18,1.38,1.54
8.276,1.51,1.85,0.44,4.18,1.38,1.54
8.276,1.77,1.63,-0.04,4.18,1.38,1.54
8.277,1.77,1.63,-0.04,4.18,1.38,1.54
8.284,1.77,1.63,-0.04,3.56,1.1,0.85
8.285,1.77,1.63,-0.04,3.56,1.1,0.85
8.285,1.73,1.5,0.01,3.56,1.1,0.85
8.286,1.73,1.5,0.01,3.56,1.1,0.85
8.293,1.73,1.5,0.01,2.65,0.75,0.09
8.295,1.73,1.5,0.01,2.65,0.75,0.09
8.295,1.45,1.44,1.64,2.65,0.75,0.09
8.296,1.45,1.44,1.64,2.65,0.75,0.09
8.303,1.45,1.44,1.64,1.8,0.47,-0.55
8.304,1.45,1.44,1.64,1.8,0.47,-0.55
8.304,1.05,1.35,1.99,1.8,0.47,-0.55
8.305,1.05,1.35,1.99,1.8,0.47,-0.55
8.312,1.05,1.35,1.99,1.3,0.27,-0.99
8.314,1.05,1.35,1.99,1.3,0.27,-0.99
8.314,0.64,1.22,2.26,1.3,0.27,-0.99
8.315,0.64,1.22,2.26,1.3,0.27,-0.99
8.323,0.64,1.22,2.26,1.17,0.17,-1.2
8.324,0.64,1.22,2.26,1.17,0.17,-1.2
8.324,0.29,1.01,2.06,1.17,0.17,-1.2
8.325,0.29,1.01,2.06,1.17,0.17,-1.2
8.331,0.29,1.01,2.06,1.25,0.14,-1.2
8.332,0.29,1.01,2.06,1.25,0.14,-1.2
8.333,-0.02,0.77,0.48,1.25,0.14,-1.2
8.334,-0.02,0.77,0.48,1.25,0.14,-1.2
8.348,-0.02,0.77,0.48,1.29,0.15,-1.05
8.349,-0.02,0.77,0.48,1.29,0.15,-1.05
8.35,-0.32,0.49,-1.02,1.29,0.15,-1.05
8.35,-0.32,0.49,-1.02,1.29,0.15,-1.05
8.351,-0.32,0.49,-1.02,1.04,0.2,-0.81
8.351,-0.32,0.49,-1.02,1.04,0.2,-0.81
8.351,-0.59,0.17,-1.45,1.04,0.2,-0.81
8.352,-0.59,0.17,-1.45,1.04,0.2,-0.81
8.364,-0.59,0.17,-1.45,1.04,0.2,-0.81
8.365,-0.59,0.17,-1.45,1.04,0.2,-0.81
8.366,-0.59,0.17,-1.45,1.04,0.2,-0.81
8.366,-0.59,0.17,-1.45,1.04,0.2,-0.81
8.37,-0.59,0.17,-1.45,0.43,0.27,-0.55
8.371,-0.59,0.17,-1.45,0.43,0.27,-0.55
8.371,-0.71,-0.33,-1.92,0.43,0.27,-0.55
8.371,-0.71,-0.33,-1.92,0.43,0.27,-0.55
8.379,-0.71,-0.33,-1.92,-0.43,0.37,-0.28
8.38,-0.71,-0.33,-1.92,-0.43,0.37,-0.28
8.381,-0.38,-0.45,-1.88,-0.43,0.37,-0.28
8.381,-0.38,-0.45,-1.88,-0.43,0.37,-0.28
8.39,-0.38,-0.45,-1.88,-1.3,0.48,-0.06
8.392,-0.38,-0.45,-1.88,-1.3,0.48,-0.06
8.392,0.19,-0.42,-1.71,-1.3,0.48,-0.06
8.393,0.19,-0.42,-1.71,-1.3,0.48,-0.06
8.398,0.19,-0.42,-1.71,-1.96,0.56,0.05
8.399,0.19,-0.42,-1.71,-1.96,0.56,0.05
8.4,1.67,-0.42,-1.49,-1.96,0.56,0.05
8.4,1.67,-0.42,-1.49,-1.96,0.56,0.05
8.408,1.67,-0.42,-1.49,-2.33,0.57,-0.02
8.41,1.67,-0.42,-1.49,-2.33,0.57,-0.02
8.411,2.03,-0.59,-1.33,-2.33,0.57,-0.02
8.411,2.03,-0.59,-1.33,-2.33,0.57,-0.02
8.417,2.03,-0.59,-1.33,-2.45,0.5,-0.21
8.417,2.03,-0.59,-1.33,-2.45,0.5,-0.21
8.418,2.45,-1.1,-1.31,-2.45,0.5,-0.21
8.419,2.45,-1.1,-1.31,-2.45,0.5,-0.21
8.426,2.45,-1.1,-1.31,-2.15,0.38,-0.6
8.427,2.45,-1.1,-1.31,-2.15,0.38,-0.6
8.428,2.88,-3.02,-1.55,-2.15,0.38,-0.6
8.428,2.88,-3.02,-1.55,-2.15,0.38,-0.6
8.436,2.88,-3.02,-1.55,-1.78,0.24,-1.15
8.437,2.88,-3.02,-1.55,-1.78,0.24,-1.15
8.438,3.26,-4.93,-1.95,-1.78,0.24,-1.15
8.439,3.26,-4.93,-1.95,-1.78,0.24,-1.15
8.447,3.26,-4.93,-1.95,-1.64,0.13,-1.61
8.448,3.26,-4.93,-1.95,-1.64,0.13,-1.61
8.449,3.52,-5.16,-2.39,-1.64,0.13,-1.61
8.449,3.52,-5.16,-2.39,-1.64,0.13,-1.61
8.461,3.52,-5.16,-2.39,-1.51,0.07,-1.9
8.462,3.52,-5.16,-2.39,-1.51,0.07,-1.9
8.463,3.4,-5.24,-2.82,-1.51,0.07,-1.9
8.463,3.4,-5.24,-2.82,-1.51,0.07,-1.9
8.464,3.4,-5.24,-2.82,-1.44,0.04,-2.03
8.465,3.4,-5.24,-2.82,-1.44,0.04,-2.03
8.465,1.59,-4.97,-3.28,-1.44,0.04,-2.03
8.466,1.59,-4.97,-3.28,-1.44,0.04,-2.03
8.474,1.59,-4.97,-3.28,-1.44,0.04,-1.95
8.475,1.59,-4.97,-3.28,-1.44,0.04,-1.95
8.475,-0.13,-4.46,-3.73,-1.44,0.04,-1.95
8.475,-0.13,-4.46,-3.73,-1.44,0.04,-1.95
8.484,-0.13,-4.46,-3.73,-1.49,0.07,-1.65
8.485,-0.13,-4.46,-3.73,-1.49,0.07,-1.65
8.485,-1.79,-3.95,-4.08,-1.49,0.07,-1.65
8.486,-1.79,-3.95,-4.08,-1.49,0.07,-1.65
8.493,-1.79,-3.95,-4.08,-1.59,0.13,-1.09
8.494,-1.79,-3.95,-4.08,-1.59,0.13,-1.09
8.495,-2.21,-3.61,-4.21,-1.59,0.13,-1.09
8.496,-2.21,-3.61,-4.21,-1.59,0.13,-1.09
8.502,-2.21,-3.61,-4.21,-1.71,0.23,-0.3
8.503,-2.21,-3.61,-4.21,-1.71,0.23,-0.3
8.504,-2.7,-3.45,-4.1,-1.71,0.23,-0.3
8.504,-2.7,-3.45,-4.1,-1.71,0.23,-0.3
8.512,-2.7,-3.45,-4.1,-1.47,0.23,0.56
8.513,-2.7,-3.45,-4.1,-1.47,0.23,0.56
8.514,-3.01,-3.36,-3.82,-1.47,0.23,0.56
8.514,-3.01,-3.36,-3.82,-1.47,0.23,0.56
8.523,-3.01,-3.36,-3.82,-0.91,0.14,1.32
8.524,-3.01,-3.36,-3.82,-0.91,0.14,1.32
8.525,-3.14,-3.43,-3.37,-0.91,0.14,1.32
8.525,-3.14,-3.43,-3.37,-0.91,0.14,1.32
8.531,-3.14,-3.43,-3.37,-0.71,0.06,1.89
8.532,-3.14,-3.43,-3.37,-0.71,0.06,1.89
8.533,-3.13,-3.56,-2.73,-0.71,0.06,1.89
8.533,-3.13,-3.56,-2.73,-0.71,0.06,1.89
8.541,-3.13,-3.56,-2.73,-0.76,0.01,2.26
8.541,-3.13,-3.56,-2.73,-0.76,0.01,2.26
8.542,-3,-3.66,-1.02,-0.76,0.01,2.26
8.542,-3,-3.66,-1.02,-0.76,0.01,2.26
8.551,-3,-3.66,-1.02,-0.63,-0.03,2.44
8.552,-3,-3.66,-1.02,-0.63,-0.03,2.44
8.552,-2.82,-3.72,0.7,-0.63,-0.03,2.44
8.553,-2.82,-3.72,0.7,-0.63,-0.03,2.44
8.567,-2.82,-3.72,0.7,-0.63,-0.03,2.44
8.568,-2.82,-3.72,0.7,-0.63,-0.03,2.44
8.568,-2.82,-3.72,0.7,-0.63,-0.03,2.44
8.569,-2.82,-3.72,0.7,-0.63,-0.03,2.44
8.569,-2.82,-3.72,0.7,-0.31,-0.09,2.45
8.569,-2.82,-3.72,0.7,-0.31,-0.09,2.45
8.569,-2.36,-3.17,1.45,-0.31,-0.09,2.45
8.57,-2.36,-3.17,1.45,-0.31,-0.09,2.45
8.582,-2.36,-3.17,1.45,0.2,-0.15,2.31
8.583,-2.36,-3.17,1.45,0.2,-0.15,2.31
8.584,-2.22,-2.68,1.55,0.2,-0.15,2.31
8.584,-2.22,-2.68,1.55,0.2,-0.15,2.31
8.59,-2.22,-2.68,1.55,0.82,-0.34,2.08
8.591,-2.22,-2.68,1.55,0.82,-0.34,2.08
8.591,-2.25,-2.15,1.2,0.82,-0.34,2.08
8.592,-2.25,-2.15,1.2,0.82,-0.34,2.08
8.598,-2.25,-2.15,1.2,1.38,-0.65,1.8
8.599,-2.25,-2.15,1.2,1.38,-0.65,1.8
8.6,-2.46,-1.68,-0.24,1.38,-0.65,1.8
8.6,-2.46,-1.68,-0.24,1.38,-0.65,1.8
8.607,-2.46,-1.68,-0.24,1.72,-0.88,1.55
8.608,-2.46,-1.68,-0.24,1.72,-0.88,1.55
8.608,-2.72,-1.27,-0.65,1.72,-0.88,1.55
8.609,-2.72,-1.27,-0.65,1.72,-0.88,1.55
8.617,-2.72,-1.27,-0.65,1.75,-0.99,1.36
8.618,-2.72,-1.27,-0.65,1.75,-0.99,1.36
8.619,-2.93,-0.93,-0.98,1.75,-0.99,1.36
8.619,-2.93,-0.93,-0.98,1.75,-0.99,1.36
8.626,-2.93,-0.93,-0.98,1.51,-1.01,1.27
8.627,-2.93,-0.93,-0.98,1.51,-1.01,1.27
8.628,-2.95,-0.56,-0.99,1.51,-1.01,1.27
8.629,-2.95,-0.56,-0.99,1.51,-1.01,1.27
8.636,-2.95,-0.56,-0.99,1.2,-0.95,1.25
8.637,-2.95,-0.56,-0.99,1.2,-0.95,1.25
8.637,-2.79,-0.17,-0.71,1.2,-0.95,1.25
8.638,-2.79,-0.17,-0.71,1.2,-0.95,1.25
8.646,-2.79,-0.17,-0.71,0.96,-0.85,1.27
8.647,-2.79,-0.17,-0.71,0.96,-0.85,1.27
8.648,-2.39,0.29,-0.3,0.96,-0.85,1.27
8.649,-2.39,0.29,-0.3,0.96,-0.85,1.27
8.662,-2.39,0.29,-0.3,0.77,-0.75,1.29
8.663,-2.39,0.29,-0.3,0.77,-0.75,1.29
8.664,-1.82,0.79,0.1,0.77,-0.75,1.29
8.664,-1.82,0.79,0.1,0.77,-0.75,1.29
8.664,-1.82,0.79,0.1,0.57,-0.68,1.26
8.664,-1.82,0.79,0.1,0.57,-0.68,1.26
8.665,-1.22,1.25,0.38,0.57,-0.68,1.26
8.665,-1.22,1.25,0.38,0.57,-0.68,1.26
8.674,-1.22,1.25,0.38,0.43,-0.64,1.15
8.675,-1.22,1.25,0.38,0.43,-0.64,1.15
8.675,-0.62,1.69,0.52,0.43,-0.64,1.15
8.675,-0.62,1.69,0.52,0.43,-0.64,1.15
8.683,-0.62,1.69,0.52,0.39,-0.62,0.94
8.684,-0.62,1.69,0.52,0.39,-0.62,0.94
8.685,-0.17,2.06,0.58,0.39,-0.62,0.94
8.686,-0.17,2.06,0.58,0.39,-0.62,0.94
8.693,-0.17,2.06,0.58,0.42,-0.61,0.64
8.694,-0.17,2.06,0.58,0.42,-0.61,0.64
8.694,0.08,2.38,0.57,0.42,-0.61,0.64
8.695,0.08,2.38,0.57,0.42,-0.61,0.64
8.703,0.08,2.38,0.57,0.46,-0.59,0.28
8.704,0.08,2.38,0.57,0.46,-0.59,0.28
8.705,0.15,2.68,0.51,0.46,-0.59,0.28
8.705,0.15,2.68,0.51,0.46,-0.59,0.28
8.713,0.15,2.68,0.51,0.48,-0.58,-0.09
8.714,0.15,2.68,0.51,0.48,-0.58,-0.09
8.715,0.11,2.95,0.44,0.48,-0.58,-0.09
8.715,0.11,2.95,0.44,0.48,-0.58,-0.09
8.723,0.11,2.95,0.44,0.47,-0.57,-0.4
8.725,0.11,2.95,0.44,0.47,-0.57,-0.4
8.726,-0.01,3.17,0.4,0.47,-0.57,-0.4
8.726,-0.01,3.17,0.4,0.47,-0.57,-0.4
8.731,-0.01,3.17,0.4,0.42,-0.56,-0.61
8.732,-0.01,3.17,0.4,0.42,-0.56,-0.61
8.732,-0.2,3.31,0.45,0.42,-0.56,-0.61
8.733,-0.2,3.31,0.45,0.42,-0.56,-0.61
8.74,-0.2,3.31,0.45,0.33,-0.57,-0.7
8.741,-0.2,3.31,0.45,0.33,-0.57,-0.7
8.741,-0.42,3.39,0.53,0.33,-0.57,-0.7
8.742,-0.42,3.39,0.53,0.33,-0.57,-0.7
8.751,-0.42,3.39,0.53,0.24,-0.61,-0.66
8.752,-0.42,3.39,0.53,0.24,-0.61,-0.66
8.752,-0.68,3.41,0.63,0.24,-0.61,-0.66
8.753,-0.68,3.41,0.63,0.24,-0.61,-0.66
8.762,-0.68,3.41,0.63,0.24,-0.61,-0.66
8.763,-0.68,3.41,0.63,0.24,-0.61,-0.66
8.764,-0.68,3.41,0.63,0.24,-0.61,-0.66
8.765,-0.68,3.41,0.63,0.24,-0.61,-0.66
8.777,-0.68,3.41,0.63,0.12,-0.76,-0.25
8.778,-0.68,3.41,0.63,0.12,-0.76,-0.25
8.778,-1.03,3.32,0.85,0.12,-0.76,-0.25
8.778,-1.03,3.32,0.85,0.12,-0.76,-0.25
8.779,-1.03,3.32,0.85,0.12,-0.76,-0.25
8.779,-1.03,3.32,0.85,0.12,-0.76,-0.25
8.779,-1.03,3.32,0.85,0.12,-0.76,-0.25
8.78,-1.03,3.32,0.85,0.12,-0.76,-0.25
8.79,-1.03,3.32,0.85,0.12,-0.83,0.09
8.791,-1.03,3.32,0.85,0.12,-0.83,0.09
8.791,-1.05,3.17,0.92,0.12,-0.83,0.09
8.792,-1.05,3.17,0.92,0.12,-0.83,0.09
8.799,-1.05,3.17,0.92,0.16,-0.91,0.44
8.8,-1.05,3.17,0.92,0.16,-0.91,0.44
8.802,-0.98,3.1,0.87,0.16,-0.91,0.44
8.802,-0.98,3.1,0.87,0.16,-0.91,0.44
8.808,-0.98,3.1,0.87,0.2,-0.97,0.74
8.81,-0.98,3.1,0.87,0.2,-0.97,0.74
8.811,-0.95,3.03,0.8,0.2,-0.97,0.74
8.812,-0.95,3.03,0.8,0.2,-0.97,0.74
8.816,-0.95,3.03,0.8,0.23,-1,0.94
8.817,-0.95,3.03,0.8,0.23,-1,0.94
8.818,-0.97,2.97,0.73,0.23,-1,0.94
8.818,-0.97,2.97,0.73,0.23,-1,0.94
8.826,-0.97,2.97,0.73,0.23,-0.98,1.05
8.827,-0.97,2.97,0.73,0.23,-0.98,1.05
8.828,-1,2.89,0.64,0.23,-0.98,1.05
8.828,-1,2.89,0.64,0.23,-0.98,1.05
8.836,-1,2.89,0.64,0.21,-0.91,1.1
8.837,-1,2.89,0.64,0.21,-0.91,1.1
8.838,-1.01,2.79,0.53,0.21,-0.91,1.1
8.838,-1.01,2.79,0.53,0.21,-0.91,1.1
8.847,-1.01,2.79,0.53,0.16,-0.81,1.11
8.848,-1.01,2.79,0.53,0.16,-0.81,1.11
8.849,-0.93,2.65,0.35,0.16,-0.81,1.11
8.849,-0.93,2.65,0.35,0.16,-0.81,1.11
8.86,-0.93,2.65,0.35,0.1,-0.67,1.11
8.861,-0.93,2.65,0.35,0.1,-0.67,1.11
8.862,-0.66,2.47,0.13,0.1,-0.67,1.11
8.862,-0.66,2.47,0.13,0.1,-0.67,1.11
8.864,-0.66,2.47,0.13,0.02,-0.5,1.07
8.865,-0.66,2.47,0.13,0.02,-0.5,1.07
8.865,-0.21,2.2,-0.14,0.02,-0.5,1.07
8.866,-0.21,2.2,-0.14,0.02,-0.5,1.07
8.874,-0.21,2.2,-0.14,-0.1,-0.31,0.96
8.875,-0.21,2.2,-0.14,-0.1,-0.31,0.96
8.875,1.6,1.82,-0.56,-0.1,-0.31,0.96
8.875,1.6,1.82,-0.56,-0.1,-0.31,0.96
8.883,1.6,1.82,-0.56,-0.25,-0.08,0.68
8.884,1.6,1.82,-0.56,-0.25,-0.08,0.68
8.885,2.13,1.36,-1.17,-0.25,-0.08,0.68
8.886,2.13,1.36,-1.17,-0.25,-0.08,0.68
8.905,2.13,1.36,-1.17,-0.45,0.19,0.14
8.907,2.13,1.36,-1.17,-0.45,0.19,0.14
8.907,3.73,0.93,-1.8,-0.45,0.19,0.14
8.908,3.73,0.93,-1.8,-0.45,0.19,0.14
8.909,3.73,0.93,-1.8,-0.74,0.47,-0.68
8.909,3.73,0.93,-1.8,-0.74,0.47,-0.68
8.91,4.17,0.57,-2.36,-0.74,0.47,-0.68
8.911,4.17,0.57,-2.36,-0.74,0.47,-0.68
8.912,4.17,0.57,-2.36,-1.12,0.73,-1.69
8.913,4.17,0.57,-2.36,-1.12,0.73,-1.69
8.913,4.5,0.33,-2.64,-1.12,0.73,-1.69
8.914,4.5,0.33,-2.64,-1.12,0.73,-1.69
8.923,4.5,0.33,-2.64,-1.3,0.74,-2.68
8.924,4.5,0.33,-2.64,-1.3,0.74,-2.68
8.925,4.48,0.22,-2.59,-1.3,0.74,-2.68
8.926,4.48,0.22,-2.59,-1.3,0.74,-2.68
8.931,4.48,0.22,-2.59,-1.2,0.54,-3.46
8.932,4.48,0.22,-2.59,-1.2,0.54,-3.46
8.932,4.17,0.2,-2.4,-1.2,0.54,-3.46
8.933,4.17,0.2,-2.4,-1.2,0.54,-3.46
8.94,4.17,0.2,-2.4,-1.28,0.43,-3.91
8.941,4.17,0.2,-2.4,-1.28,0.43,-3.91
8.942,3.68,0.25,-2.18,-1.28,0.43,-3.91
8.942,3.68,0.25,-2.18,-1.28,0.43,-3.91
8.952,3.68,0.25,-2.18,-1.46,0.34,-4.01
8.953,3.68,0.25,-2.18,-1.46,0.34,-4.01
8.954,3.14,0.37,-2.04,-1.46,0.34,-4.01
8.955,3.14,0.37,-2.04,-1.46,0.34,-4.01
8.963,3.14,0.37,-2.04,-1.46,0.34,-4.01
8.964,3.14,0.37,-2.04,-1.46,0.34,-4.01
8.965,3.14,0.37,-2.04,-1.46,0.34,-4.01
8.966,3.14,0.37,-2.04,-1.46,0.34,-4.01
8.969,3.14,0.37,-2.04,-1.43,0.21,-3.79
8.97,3.14,0.37,-2.04,-1.43,0.21,-3.79
8.97,2.09,0.63,-2.05,-1.43,0.21,-3.79
8.971,2.09,0.63,-2.05,-1.43,0.21,-3.79
8.979,2.09,0.63,-2.05,-1.29,0.05,-3.34
8.979,2.09,0.63,-2.05,-1.29,0.05,-3.34
8.98,1.72,0.74,-2.1,-1.29,0.05,-3.34
8.98,1.72,0.74,-2.1,-1.29,0.05,-3.34
8.989,1.72,0.74,-2.1,-1.1,-0.16,-2.69
8.989,1.72,0.74,-2.1,-1.1,-0.16,-2.69
8.99,1.42,0.78,-2.04,-1.1,-0.16,-2.69
8.99,1.42,0.78,-2.04,-1.1,-0.16,-2.69
8.997,1.42,0.78,-2.04,-0.93,-0.36,-1.93
8.998,1.42,0.78,-2.04,-0.93,-0.36,-1.93
8.999,1.24,0.75,-1.87,-0.93,-0.36,-1.93
9,1.24,0.75,-1.87,-0.93,-0.36,-1.93
9.007,1.24,0.75,-1.87,-0.78,-0.3,-1.18
9.008,1.24,0.75,-1.87,-0.78,-0.3,-1.18
9.008,1.14,0.7,-1.64,-0.78,-0.3,-1.18
9.009,1.14,0.7,-1.64,-0.78,-0.3,-1.18
9.017,1.14,0.7,-1.64,-0.63,-0.03,-0.52
9.018,1.14,0.7,-1.64,-0.63,-0.03,-0.52
9.019,1.01,0.6,-1.42,-0.63,-0.03,-0.52
9.02,1.01,0.6,-1.42,-0.63,-0.03,-0.52
9.026,1.01,0.6,-1.42,-0.45,-0.02,-0.01
9.028,1.01,0.6,-1.42,-0.45,-0.02,-0.01
9.029,0.88,0.51,-1.24,-0.45,-0.02,-0.01
9.03,0.88,0.51,-1.24,-0.45,-0.02,-0.01
9.036,0.88,0.51,-1.24,-0.24,-0.06,0.38
9.037,0.88,0.51,-1.24,-0.24,-0.06,0.38
9.038,0.71,0.45,-1.05,-0.24,-0.06,0.38
9.038,0.71,0.45,-1.05,-0.24,-0.06,0.38
9.045,0.71,0.45,-1.05,-0.02,-0.05,0.67
9.046,0.71,0.45,-1.05,-0.02,-0.05,0.67
9.046,0.51,0.42,-0.77,-0.02,-0.05,0.67
9.047,0.51,0.42,-0.77,-0.02,-0.05,0.67
9.055,0.51,0.42,-0.77,0.21,-0.15,0.9
9.056,0.51,0.42,-0.77,0.21,-0.15,0.9
9.056,0.3,0.38,-0.42,0.21,-0.15,0.9
9.056,0.3,0.38,-0.42,0.21,-0.15,0.9
9.064,0.3,0.38,-0.42,0.43,-0.21,1.07
9.064,0.3,0.38,-0.42,0.43,-0.21,1.07
9.065,-0.01,0.36,-0.08,0.43,-0.21,1.07
9.065,-0.01,0.36,-0.08,0.43,-0.21,1.07
9.073,-0.01,0.36,-0.08,0.65,-0.25,1.22
9.074,-0.01,0.36,-0.08,0.65,-0.25,1.22
9.075,-0.41,0.37,0.07,0.65,-0.25,1.22
9.075,-0.41,0.37,0.07,0.65,-0.25,1.22
9.083,-0.41,0.37,0.07,0.78,-0.3,1.35
9.085,-0.41,0.37,0.07,0.78,-0.3,1.35
9.086,-0.81,0.45,-0.1,0.78,-0.3,1.35
9.087,-0.81,0.45,-0.1,0.78,-0.3,1.35
9.093,-0.81,0.45,-0.1,0.84,-0.33,1.49
9.095,-0.81,0.45,-0.1,0.84,-0.33,1.49
9.096,-1.08,0.59,-0.52,0.84,-0.33,1.49
9.097,-1.08,0.59,-0.52,0.84,-0.33,1.49
9.102,-1.08,0.59,-0.52,0.91,-0.32,1.66
9.103,-1.08,0.59,-0.52,0.91,-0.32,1.66
9.103,-1.08,0.68,-0.99,0.91,-0.32,1.66
9.104,-1.08,0.68,-0.99,0.91,-0.32,1.66
9.111,-1.08,0.68,-0.99,0.9,-0.28,1.81
9.112,-1.08,0.68,-0.99,0.9,-0.28,1.81
9.113,-0.85,0.6,-1.25,0.9,-0.28,1.81
9.114,-0.85,0.6,-1.25,0.9,-0.28,1.81
9.122,-0.85,0.6,-1.25,0.73,-0.21,1.92
9.123,-0.85,0.6,-1.25,0.73,-0.21,1.92
9.124,-0.49,0.2,-1.21,0.73,-0.21,1.92
9.125,-0.49,0.2,-1.21,0.73,-0.21,1.92
9.131,-0.49,0.2,-1.21,0.44,-0.14,1.9
9.132,-0.49,0.2,-1.21,0.44,-0.14,1.9
9.132,-0.17,-1.62,-0.92,0.44,-0.14,1.9
9.133,-0.17,-1.62,-0.92,0.44,-0.14,1.9
9.14,-0.17,-1.62,-0.92,0.15,-0.1,1.72
9.141,-0.17,-1.62,-0.92,0.15,-0.1,1.72
9.142,0.02,-1.99,-0.57,0.15,-0.1,1.72
9.142,0.02,-1.99,-0.57,0.15,-0.1,1.72
9.15,0.02,-1.99,-0.57,-0.03,-0.08,1.36
9.151,0.02,-1.99,-0.57,-0.03,-0.08,1.36
9.152,0.09,-2.57,-0.32,-0.03,-0.08,1.36
9.153,0.09,-2.57,-0.32,-0.03,-0.08,1.36
9.162,0.09,-2.57,-0.32,-0.03,-0.08,1.36
9.164,0.09,-2.57,-0.32,-0.03,-0.08,1.36
9.165,0.09,-2.57,-0.32,-0.03,-0.08,1.36
9.167,0.09,-2.57,-0.32,-0.03,-0.08,1.36
9.169,0.09,-2.57,-0.32,-0.06,-0.09,0.89
9.17,0.09,-2.57,-0.32,-0.06,-0.09,0.89
9.171,0.1,-3.25,-0.27,-0.06,-0.09,0.89
9.172,0.1,-3.25,-0.27,-0.06,-0.09,0.89
9.178,0.1,-3.25,-0.27,0.03,-0.1,0.41
9.179,0.1,-3.25,-0.27,0.03,-0.1,0.41
9.179,0.03,-3.09,-0.38,0.03,-0.1,0.41
9.179,0.03,-3.09,-0.38,0.03,-0.1,0.41
9.189,0.03,-3.09,-0.38,0.04,-0.11,0.02
9.19,0.03,-3.09,-0.38,0.04,-0.11,0.02
9.19,-0.11,-2.64,-0.49,0.04,-0.11,0.02
9.191,-0.11,-2.64,-0.49,0.04,-0.11,0.02
9.197,-0.11,-2.64,-0.49,0.03,-0.09,-0.25
9.198,-0.11,-2.64,-0.49,0.03,-0.09,-0.25
9.199,-0.39,-2.02,-0.42,0.03,-0.09,-0.25
9.199,-0.39,-2.02,-0.42,0.03,-0.09,-0.25
9.207,-0.39,-2.02,-0.42,0.1,-0.05,-0.4
9.208,-0.39,-2.02,-0.42,0.1,-0.05,-0.4
9.208,-0.78,-1.4,0.01,0.1,-0.05,-0.4
9.209,-0.78,-1.4,0.01,0.1,-0.05,-0.4
9.216,-0.78,-1.4,0.01,0.11,0.01,-0.42
9.217,-0.78,-1.4,0.01,0.11,0.01,-0.42
9.218,-1.16,-0.88,2.01,0.11,0.01,-0.42
9.219,-1.16,-0.88,2.01,0.11,0.01,-0.42
9.226,-1.16,-0.88,2.01,0.17,0.1,-0.31
9.227,-1.16,-0.88,2.01,0.17,0.1,-0.31
9.228,-1.45,-0.58,2.46,0.17,0.1,-0.31
9.228,-1.45,-0.58,2.46,0.17,0.1,-0.31
9.235,-1.45,-0.58,2.46,0.38,0.22,-0.1
9.237,-1.45,-0.58,2.46,0.38,0.22,-0.1
9.238,-1.56,-0.54,3.13,0.38,0.22,-0.1
9.239,-1.56,-0.54,3.13,0.38,0.22,-0.1
9.245,-1.56,-0.54,3.13,0.8,0.36,0.17
9.246,-1.56,-0.54,3.13,0.8,0.36,0.17
9.247,-1.47,-0.69,3.78,0.8,0.36,0.17
9.248,-1.47,-0.69,3.78,0.8,0.36,0.17
9.259,-1.47,-0.69,3.78,1.33,0.48,0.43
9.26,-1.47,-0.69,3.78,1.33,0.48,0.43
9.261,-1.12,-0.91,4.45,1.33,0.48,0.43
9.261,-1.12,-0.91,4.45,1.33,0.48,0.43
9.264,-1.12,-0.91,4.45,1.88,0.53,0.61
9.264,-1.12,-0.91,4.45,1.88,0.53,0.61
9.265,-0.54,-1.06,6.17,1.88,0.53,0.61
9.265,-0.54,-1.06,6.17,1.88,0.53,0.61
9.273,-0.54,-1.06,6.17,2.41,0.5,0.67
9.274,-0.54,-1.06,6.17,2.41,0.5,0.67
9.275,1.06,-1.11,8.01,2.41,0.5,0.67
9.275,1.06,-1.11,8.01,2.41,0.5,0.67
9.283,1.06,-1.11,8.01,2.99,0.38,0.54
9.283,1.06,-1.11,8.01,2.99,0.38,0.54
9.284,1.58,-1.21,8.35,2.99,0.38,0.54
9.285,1.58,-1.21,8.35,2.99,0.38,0.54
9.292,1.58,-1.21,8.35,3.66,0.16,0.2
9.293,1.58,-1.21,8.35,3.66,0.16,0.2
9.293,2.04,-1.48,8.64,3.66,0.16,0.2
9.294,2.04,-1.48,8.64,3.66,0.16,0.2
9.302,2.04,-1.48,8.64,4.32,0.09,0.13
9.302,2.04,-1.48,8.64,4.32,0.09,0.13
9.303,2.22,-3.06,8.44,4.32,0.09,0.13
9.303,2.22,-3.06,8.44,4.32,0.09,0.13
9.311,2.22,-3.06,8.44,4.76,0.21,0.46
9.312,2.22,-3.06,8.44,4.76,0.21,0.46
9.312,2.09,-3.46,6.34,4.76,0.21,0.46
9.313,2.09,-3.46,6.34,4.76,0.21,0.46
9.322,2.09,-3.46,6.34,4.81,0.4,0.3
9.322,2.09,-3.46,6.34,4.81,0.4,0.3
9.323,1.93,-3.98,3.17,4.81,0.4,0.3
9.323,1.93,-3.98,3.17,4.81,0.4,0.3
9.33,1.93,-3.98,3.17,4.35,0.34,-0.24
9.331,1.93,-3.98,3.17,4.35,0.34,-0.24
9.332,1.89,-4.31,-0.26,4.35,0.34,-0.24
9.332,1.89,-4.31,-0.26,4.35,0.34,-0.24
9.34,1.89,-4.31,-0.26,3.31,0.03,-0.56
9.341,1.89,-4.31,-0.26,3.31,0.03,-0.56
9.341,1.8,-4.22,-1.91,3.31,0.03,-0.56
9.342,1.8,-4.22,-1.91,3.31,0.03,-0.56
9.349,1.8,-4.22,-1.91,3.31,0.03,-0.56
9.35,1.8,-4.22,-1.91,3.31,0.03,-0.56
9.351,1.8,-4.22,-1.91,3.31,0.03,-0.56
9.352,1.8,-4.22,-1.91,3.31,0.03,-0.56
9.359,1.8,-4.22,-1.91,1.77,-0.21,-0.69
9.36,1.8,-4.22,-1.91,1.77,-0.21,-0.69
9.361,-0.37,-2.08,-3.3,1.77,-0.21,-0.69
9.362,-0.37,-2.08,-3.3,1.77,-0.21,-0.69
9.368,-0.37,-2.08,-3.3,0.02,-0.4,-0.67
9.369,-0.37,-2.08,-3.3,0.02,-0.4,-0.67
9.369,-0.67,-1.54,0.4,0.02,-0.4,-0.67
9.37,-0.67,-1.54,0.4,0.02,-0.4,-0.67
9.378,-0.67,-1.54,0.4,-1.51,-0.41,-0.45
9.379,-0.67,-1.54,0.4,-1.51,-0.41,-0.45
9.379,-0.94,-0.05,2.2,-1.51,-0.41,-0.45
9.379,-0.94,-0.05,2.2,-1.51,-0.41,-0.45
9.388,-0.94,-0.05,2.2,-2.42,-0.3,-0.06
9.389,-0.94,-0.05,2.2,-2.42,-0.3,-0.06
9.389,-0.84,0.32,4.4,-2.42,-0.3,-0.06
9.39,-0.84,0.32,4.4,-2.42,-0.3,-0.06
9.397,-0.84,0.32,4.4,-2.55,-0.15,0.42
9.398,-0.84,0.32,4.4,-2.55,-0.15,0.42
9.399,-0.4,0.78,6.09,-2.55,-0.15,0.42
9.399,-0.4,0.78,6.09,-2.55,-0.15,0.42
9.406,-0.4,0.78,6.09,-1.95,0.06,0.84
9.408,-0.4,0.78,6.09,-1.95,0.06,0.84
9.408,0.16,1.13,6.15,-1.95,0.06,0.84
9.409,0.16,1.13,6.15,-1.95,0.06,0.84
9.416,0.16,1.13,6.15,-0.88,0.22,1.1
9.417,0.16,1.13,6.15,-0.88,0.22,1.1
9.417,0.66,1.26,6.05,-0.88,0.22,1.1
9.418,0.66,1.26,6.05,-0.88,0.22,1.1
9.426,0.66,1.26,6.05,0.34,0.26,1.16
9.427,0.66,1.26,6.05,0.34,0.26,1.16
9.428,0.98,1.23,5.7,0.34,0.26,1.16
9.428,0.98,1.23,5.7,0.34,0.26,1.16
9.435,0.98,1.23,5.7,1.4,0.18,1.04
9.436,0.98,1.23,5.7,1.4,0.18,1.04
9.436,1.08,1.05,5.09,1.4,0.18,1.04
9.437,1.08,1.05,5.09,1.4,0.18,1.04
9.445,1.08,1.05,5.09,2.13,0.04,0.8
9.446,1.08,1.05,5.09,2.13,0.04,0.8
9.447,1,0.83,3.5,2.13,0.04,0.8
9.447,1,0.83,3.5,2.13,0.04,0.8
9.461,1,0.83,3.5,2.45,-0.1,0.52
9.462,1,0.83,3.5,2.45,-0.1,0.52
9.463,0.85,0.61,2.91,2.45,-0.1,0.52
9.463,0.85,0.61,2.91,2.45,-0.1,0.52
9.464,0.85,0.61,2.91,2.36,-0.2,0.28
9.465,0.85,0.61,2.91,2.36,-0.2,0.28
9.465,0.65,0.38,2.23,2.36,-0.2,0.28
9.466,0.65,0.38,2.23,2.36,-0.2,0.28
9.473,0.65,0.38,2.23,1.93,-0.23,0.11
9.474,0.65,0.38,2.23,1.93,-0.23,0.11
9.474,0.48,0.24,1.49,1.93,-0.23,0.11
9.475,0.48,0.24,1.49,1.93,-0.23,0.11
9.483,0.48,0.24,1.49,1.28,-0.2,0.02
9.484,0.48,0.24,1.49,1.28,-0.2,0.02
9.484,0.37,0.23,0.78,1.28,-0.2,0.02
9.485,0.37,0.23,0.78,1.28,-0.2,0.02
9.492,0.37,0.23,0.78,0.57,-0.14,0.01
9.494,0.37,0.23,0.78,0.57,-0.14,0.01
9.495,0.33,0.35,0.2,0.57,-0.14,0.01
9.496,0.33,0.35,0.2,0.57,-0.14,0.01
9.502,0.33,0.35,0.2,-0.14,-0.08,0.06
9.503,0.33,0.35,0.2,-0.14,-0.08,0.06
9.503,0.32,0.6,-0.16,-0.14,-0.08,0.06
9.504,0.32,0.6,-0.16,-0.14,-0.08,0.06
9.511,0.32,0.6,-0.16,-0.81,-0.03,0.13
9.512,0.32,0.6,-0.16,-0.81,-0.03,0.13
9.513,0.32,0.85,-0.18,-0.81,-0.03,0.13
9.514,0.32,0.85,-0.18,-0.81,-0.03,0.13
9.521,0.32,0.85,-0.18,-1.35,0.01,0.19
9.522,0.32,0.85,-0.18,-1.35,0.01,0.19
9.522,0.3,1.01,0.13,-1.35,0.01,0.19
9.523,0.3,1.01,0.13,-1.35,0.01,0.19
9.53,0.3,1.01,0.13,-1.73,0.02,0.24
9.531,0.3,1.01,0.13,-1.73,0.02,0.24
9.532,0.3,1.07,0.6,-1.73,0.02,0.24
9.532,0.3,1.07,0.6,-1.73,0.02,0.24
9.54,0.3,1.07,0.6,-1.73,0.02,0.24
9.541,0.3,1.07,0.6,-1.73,0.02,0.24
9.541,0.3,1.07,0.6,-1.73,0.02,0.24
9.542,0.3,1.07,0.6,-1.73,0.02,0.24
9.55,0.3,1.07,0.6,-1.88,0.01,0.27
9.551,0.3,1.07,0.6,-1.88,0.01,0.27
9.551,0.44,0.81,1.52,-1.88,0.01,0.27
9.552,0.44,0.81,1.52,-1.88,0.01,0.27
9.561,0.44,0.81,1.52,-1.77,-0.02,0.28
9.562,0.44,0.81,1.52,-1.77,-0.02,0.28
9.565,0.53,0.61,1.56,-1.77,-0.02,0.28
9.566,0.53,0.61,1.56,-1.77,-0.02,0.28
9.569,0.53,0.61,1.56,-1.42,-0.06,0.25
9.57,0.53,0.61,1.56,-1.42,-0.06,0.25
9.57,0.65,0.42,1.3,-1.42,-0.06,0.25
9.57,0.65,0.42,1.3,-1.42,-0.06,0.25
9.578,0.65,0.42,1.3,-0.94,-0.11,0.18
9.579,0.65,0.42,1.3,-0.94,-0.11,0.18
9.579,0.77,0.28,0.79,-0.94,-0.11,0.18
9.579,0.77,0.28,0.79,-0.94,-0.11,0.18
9.588,0.77,0.28,0.79,-0.49,-0.09,0.08
9.589,0.77,0.28,0.79,-0.49,-0.09,0.08
9.589,0.95,0.16,0.1,-0.49,-0.09,0.08
9.59,0.95,0.16,0.1,-0.49,-0.09,0.08
9.597,0.95,0.16,0.1,-0.22,-0.09,-0.05
9.598,0.95,0.16,0.1,-0.22,-0.09,-0.05
9.599,1.19,0.07,-1.67,-0.22,-0.09,-0.05
9.599,1.19,0.07,-1.67,-0.22,-0.09,-0.05
9.606,1.19,0.07,-1.67,-0.22,-0.21,-0.2
9.607,1.19,0.07,-1.67,-0.22,-0.21,-0.2
9.608,1.4,0.05,-1.92,-0.22,-0.21,-0.2
9.608,1.4,0.05,-1.92,-0.22,-0.21,-0.2
9.616,1.4,0.05,-1.92,-0.5,-0.32,-0.36
9.617,1.4,0.05,-1.92,-0.5,-0.32,-0.36
9.617,1.58,0.1,-2.14,-0.5,-0.32,-0.36
9.618,1.58,0.1,-2.14,-0.5,-0.32,-0.36
9.625,1.58,0.1,-2.14,-0.97,-0.42,-0.54
9.626,1.58,0.1,-2.14,-0.97,-0.42,-0.54
9.627,1.69,0.27,-2.2,-0.97,-0.42,-0.54
9.628,1.69,0.27,-2.2,-0.97,-0.42,-0.54
9.635,1.69,0.27,-2.2,-1.47,-0.55,-0.72
9.635,1.69,0.27,-2.2,-1.47,-0.55,-0.72
9.636,1.79,0.55,-2.03,-1.47,-0.55,-0.72
9.637,1.79,0.55,-2.03,-1.47,-0.55,-0.72
9.644,1.79,0.55,-2.03,-1.82,-0.7,-0.88
9.645,1.79,0.55,-2.03,-1.82,-0.7,-0.88
9.646,1.84,0.87,-1.71,-1.82,-0.7,-0.88
9.646,1.84,0.87,-1.71,-1.82,-0.7,-0.88
9.66,1.84,0.87,-1.71,-1.97,-0.81,-1.03
9.661,1.84,0.87,-1.71,-1.97,-0.81,-1.03
9.662,1.84,1.16,-1.42,-1.97,-0.81,-1.03
9.662,1.84,1.16,-1.42,-1.97,-0.81,-1.03
9.663,1.84,1.16,-1.42,-1.92,-0.83,-1.13
9.664,1.84,1.16,-1.42,-1.92,-0.83,-1.13
9.664,1.77,1.34,-1.25,-1.92,-0.83,-1.13
9.665,1.77,1.34,-1.25,-1.92,-0.83,-1.13
9.673,1.77,1.34,-1.25,-1.71,-0.77,-1.18
9.674,1.77,1.34,-1.25,-1.71,-0.77,-1.18
9.675,1.58,1.33,-1.29,-1.71,-0.77,-1.18
9.675,1.58,1.33,-1.29,-1.71,-0.77,-1.18
9.682,1.58,1.33,-1.29,-1.4,-0.65,-1.18
9.683,1.58,1.33,-1.29,-1.4,-0.65,-1.18
9.684,1.24,1.16,-1.48,-1.4,-0.65,-1.18
9.684,1.24,1.16,-1.48,-1.4,-0.65,-1.18
9.692,1.24,1.16,-1.48,-1.08,-0.47,-1.12
9.693,1.24,1.16,-1.48,-1.08,-0.47,-1.12
9.694,0.75,0.96,-1.61,-1.08,-0.47,-1.12
9.694,0.75,0.96,-1.61,-1.08,-0.47,-1.12
9.701,0.75,0.96,-1.61,-0.8,-0.25,-0.96
9.702,0.75,0.96,-1.61,-0.8,-0.25,-0.96
9.703,0.14,0.87,-1.56,-0.8,-0.25,-0.96
9.703,0.14,0.87,-1.56,-0.8,-0.25,-0.96
9.711,0.14,0.87,-1.56,-0.6,0.02,-0.7
9.712,0.14,0.87,-1.56,-0.6,0.02,-0.7
9.713,-0.52,0.99,-1.23,-0.6,0.02,-0.7
9.713,-0.52,0.99,-1.23,-0.6,0.02,-0.7
9.722,-0.52,0.99,-1.23,-0.45,0.34,-0.31
9.723,-0.52,0.99,-1.23,-0.45,0.34,-0.31
9.724,-1.01,1.37,-0.65,-0.45,0.34,-0.31
9.724,-1.01,1.37,-0.65,-0.45,0.34,-0.31
9.731,-1.01,1.37,-0.65,-0.29,0.72,0.18
9.732,-1.01,1.37,-0.65,-0.29,0.72,0.18
9.732,-1.2,1.88,0.87,-0.29,0.72,0.18
9.733,-1.2,1.88,0.87,-0.29,0.72,0.18
9.74,-1.2,1.88,0.87,-0.24,0.58,0.71
9.74,-1.2,1.88,0.87,-0.24,0.58,0.71
9.741,-1.14,2.35,1.31,-0.24,0.58,0.71
9.741,-1.14,2.35,1.31,-0.24,0.58,0.71
9.749,-1.14,2.35,1.31,-0.24,0.58,0.71
9.75,-1.14,2.35,1.31,-0.24,0.58,0.71
9.751,-1.14,2.35,1.31,-0.24,0.58,0.71
9.752,-1.14,2.35,1.31,-0.24,0.58,0.71
9.762,-1.14,2.35,1.31,0.06,0.5,1.2
9.764,-1.14,2.35,1.31,0.06,0.5,1.2
9.765,-0.68,2.39,2.04,0.06,0.5,1.2
9.766,-0.68,2.39,2.04,0.06,0.5,1.2
9.768,-0.68,2.39,2.04,0.81,0.9,1.55
9.769,-0.68,2.39,2.04,0.81,0.9,1.55
9.77,-0.53,1.9,1.99,0.81,0.9,1.55
9.77,-0.53,1.9,1.99,0.81,0.9,1.55
9.778,-0.53,1.9,1.99,1.6,1.11,1.7
9.779,-0.53,1.9,1.99,1.6,1.11,1.7
9.779,-0.37,0.46,1.54,1.6,1.11,1.7
9.779,-0.37,0.46,1.54,1.6,1.11,1.7
9.788,-0.37,0.46,1.54,2.22,1.14,1.64
9.788,-0.37,0.46,1.54,2.22,1.14,1.64
9.789,-0.1,0.25,0,2.22,1.14,1.64
9.789,-0.1,0.25,0,2.22,1.14,1.64
9.797,-0.1,0.25,0,2.48,1.05,1.41
9.798,-0.1,0.25,0,2.48,1.05,1.41
9.798,0.3,0.24,-0.45,2.48,1.05,1.41
9.799,0.3,0.24,-0.45,2.48,1.05,1.41
9.806,0.3,0.24,-0.45,2.25,0.92,1.08
9.807,0.3,0.24,-0.45,2.25,0.92,1.08
9.807,0.82,0.47,-0.87,2.25,0.92,1.08
9.808,0.82,0.47,-0.87,2.25,0.92,1.08
9.816,0.82,0.47,-0.87,1.64,0.78,0.69
9.817,0.82,0.47,-0.87,1.64,0.78,0.69
9.818,1.24,0.91,-1.04,1.64,0.78,0.69
9.818,1.24,0.91,-1.04,1.64,0.78,0.69
9.826,1.24,0.91,-1.04,0.87,0.61,0.26
9.827,1.24,0.91,-1.04,0.87,0.61,0.26
9.828,1.49,1.42,-0.94,0.87,0.61,0.26
9.829,1.49,1.42,-0.94,0.87,0.61,0.26
9.835,1.49,1.42,-0.94,0.16,0.42,-0.18
9.836,1.49,1.42,-0.94,0.16,0.42,-0.18
9.837,1.54,1.83,-0.74,0.16,0.42,-0.18
9.837,1.54,1.83,-0.74,0.16,0.42,-0.18
9.844,1.54,1.83,-0.74,-0.39,0.23,-0.59
9.845,1.54,1.83,-0.74,-0.39,0.23,-0.59
9.846,1.43,2.04,-0.63,-0.39,0.23,-0.59
9.847,1.43,2.04,-0.63,-0.39,0.23,-0.59
9.861,1.43,2.04,-0.63,-0.75,0.07,-0.94
9.863,1.43,2.04,-0.63,-0.75,0.07,-0.94
9.863,1.26,1.96,-0.75,-0.75,0.07,-0.94
9.864,1.26,1.96,-0.75,-0.75,0.07,-0.94
9.865,1.26,1.96,-0.75,-0.94,-0.03,-1.18
9.866,1.26,1.96,-0.75,-0.94,-0.03,-1.18
9.866,1.1,1.61,-1.05,-0.94,-0.03,-1.18
9.867,1.1,1.61,-1.05,-0.94,-0.03,-1.18
9.874,1.1,1.61,-1.05,-1.05,-0.09,-1.29
9.874,1.1,1.61,-1.05,-1.05,-0.09,-1.29
9.875,0.98,1.17,-1.32,-1.05,-0.09,-1.29
9.875,0.98,1.17,-1.32,-1.05,-0.09,-1.29
9.882,0.98,1.17,-1.32,-1.15,-0.09,-1.29
9.882,0.98,1.17,-1.32,-1.15,-0.09,-1.29
9.883,0.9,0.84,-1.45,-1.15,-0.09,-1.29
9.883,0.9,0.84,-1.45,-1.15,-0.09,-1.29
9.904,0.9,0.84,-1.45,-1.3,-0.08,-1.2
9.905,0.9,0.84,-1.45,-1.3,-0.08,-1.2
9.906,0.94,0.76,-1.41,-1.3,-0.08,-1.2
9.906,0.94,0.76,-1.41,-1.3,-0.08,-1.2
9.907,0.94,0.76,-1.41,-1.3,-0.08,-1.2
9.908,0.94,0.76,-1.41,-1.3,-0.08,-1.2
9.908,0.94,0.76,-1.41,-1.3,-0.08,-1.2
9.909,0.94,0.76,-1.41,-1.3,-0.08,-1.2
9.911,0.94,0.76,-1.41,-1.58,-0.1,-0.95
9.911,0.94,0.76,-1.41,-1.58,-0.1,-0.95
9.912,1.47,0.98,-1.16,-1.58,-0.1,-0.95
9.913,1.47,0.98,-1.16,-1.58,-0.1,-0.95
9.922,1.47,0.98,-1.16,-1.61,-0.14,-0.91
9.923,1.47,0.98,-1.16,-1.61,-0.14,-0.91
9.923,1.98,0.75,-1.35,-1.61,-0.14,-0.91
9.924,1.98,0.75,-1.35,-1.61,-0.14,-0.91
9.93,1.98,0.75,-1.35,-1.56,-0.17,-0.95
9.931,1.98,0.75,-1.35,-1.56,-0.17,-0.95
9.932,2.49,-1.55,-3.41,-1.56,-0.17,-0.95
9.932,2.49,-1.55,-3.41,-1.56,-0.17,-0.95
9.939,2.49,-1.55,-3.41,-1.56,-0.17,-0.95
9.94,2.49,-1.55,-3.41,-1.56,-0.17,-0.95
9.941,2.49,-1.55,-3.41,-1.56,-0.17,-0.95
9.941,2.49,-1.55,-3.41,-1.56,-0.17,-0.95
9.949,2.49,-1.55,-3.41,-1.51,-0.18,-1.08
9.95,2.49,-1.55,-3.41,-1.51,-0.18,-1.08
9.951,2.62,-6.28,-5.62,-1.51,-0.18,-1.08
9.951,2.62,-6.28,-5.62,-1.51,-0.18,-1.08
9.96,2.62,-6.28,-5.62,-1.67,-0.19,-1.24
9.961,2.62,-6.28,-5.62,-1.67,-0.19,-1.24
9.962,0.73,-6.67,-6.04,-1.67,-0.19,-1.24
9.963,0.73,-6.67,-6.04,-1.67,-0.19,-1.24
9.969,0.73,-6.67,-6.04,-2.11,-0.21,-1.28
9.97,0.73,-6.67,-6.04,-2.11,-0.21,-1.28
9.972,-1.09,-6.91,-5.95,-2.11,-0.21,-1.28
9.972,-1.09,-6.91,-5.95,-2.11,-0.21,-1.28
9.977,-1.09,-6.91,-5.95,-2.59,-0.17,-1.02
9.979,-1.09,-6.91,-5.95,-2.59,-0.17,-1.02
9.979,-2.85,-6.71,-4.17,-2.59,-0.17,-1.02
9.98,-2.85,-6.71,-4.17,-2.59,-0.17,-1.02
9.988,-2.85,-6.71,-4.17,-2.78,-0.14,-0.41
9.988,-2.85,-6.71,-4.17,-2.78,-0.14,-0.41
9.989,-3.28,-6.26,-3.7,-2.78,-0.14,-0.41
9.989,-3.28,-6.26,-3.7,-2.78,-0.14,-0.41
9.997,-3.28,-6.26,-3.7,-2.64,-0.13,0.43
9.997,-3.28,-6.26,-3.7,-2.64,-0.13,0.43
9.998,-3.9,-5.81,-1.97,-2.64,-0.13,0.43
9.998,-3.9,-5.81,-1.97,-2.64,-0.13,0.43
10.006,-3.9,-5.81,-1.97,-2.23,-0.07,1.28
10.007,-3.9,-5.81,-1.97,-2.23,-0.07,1.28
10.008,-4.41,-5.47,-1.44,-2.23,-0.07,1.28
10.008,-4.41,-5.47,-1.44,-2.23,-0.07,1.28
10.016,-4.41,-5.47,-1.44,-1.62,0.09,1.97
10.017,-4.41,-5.47,-1.44,-1.62,0.09,1.97
10.017,-4.56,-5.2,-0.95,-1.62,0.09,1.97
10.018,-4.56,-5.2,-0.95,-1.62,0.09,1.97
10.025,-4.56,-5.2,-0.95,-0.93,0.29,2.46
10.027,-4.56,-5.2,-0.95,-0.93,0.29,2.46
10.027,-4.42,-4.94,-0.61,-0.93,0.29,2.46
10.028,-4.42,-4.94,-0.61,-0.93,0.29,2.46
10.035,-4.42,-4.94,-0.61,-0.29,0.35,2.74
10.035,-4.42,-4.94,-0.61,-0.29,0.35,2.74
10.036,-4.05,-4.76,-0.37,-0.29,0.35,2.74
10.036,-4.05,-4.76,-0.37,-0.29,0.35,2.74
10.044,-4.05,-4.76,-0.37,0.25,0.31,2.84
10.044,-4.05,-4.76,-0.37,0.25,0.31,2.84
10.045,-3.51,-4.72,0.06,0.25,0.31,2.84
10.045,-3.51,-4.72,0.06,0.25,0.31,2.84
10.06,-3.51,-4.72,0.06,0.65,0.21,2.76
10.061,-3.51,-4.72,0.06,0.65,0.21,2.76
10.062,-2.92,-4.76,1.74,0.65,0.21,2.76
10.062,-2.92,-4.76,1.74,0.65,0.21,2.76
10.063,-2.92,-4.76,1.74,0.95,0.09,2.52
10.063,-2.92,-4.76,1.74,0.95,0.09,2.52
10.064,-2.38,-4.72,2.02,0.95,0.09,2.52
10.064,-2.38,-4.72,2.02,0.95,0.09,2.52
10.075,-2.38,-4.72,2.02,1.24,-0.12,2.15
10.076,-2.38,-4.72,2.02,1.24,-0.12,2.15
10.076,-1.93,-4.45,2.13,1.24,-0.12,2.15
10.077,-1.93,-4.45,2.13,1.24,-0.12,2.15
10.082,-1.93,-4.45,2.13,1.54,-0.43,1.69
10.083,-1.93,-4.45,2.13,1.54,-0.43,1.69
10.083,-1.59,-3.89,1.76,1.54,-0.43,1.69
10.083,-1.59,-3.89,1.76,1.54,-0.43,1.69
10.092,-1.59,-3.89,1.76,1.79,-0.68,1.21
10.093,-1.59,-3.89,1.76,1.79,-0.68,1.21
10.093,-1.47,-2.2,0.22,1.79,-0.68,1.21
10.094,-1.47,-2.2,0.22,1.79,-0.68,1.21
10.101,-1.47,-2.2,0.22,1.89,-0.83,0.77
10.102,-1.47,-2.2,0.22,1.89,-0.83,0.77
10.102,-1.5,-1.63,-0.29,1.89,-0.83,0.77
10.102,-1.5,-1.63,-0.29,1.89,-0.83,0.77
10.111,-1.5,-1.63,-0.29,1.78,-0.84,0.4
10.112,-1.5,-1.63,-0.29,1.78,-0.84,0.4
10.112,-1.69,-0.1,-0.79,1.78,-0.84,0.4
10.112,-1.69,-0.1,-0.79,1.78,-0.84,0.4
10.121,-1.69,-0.1,-0.79,1.47,-0.74,0.14
10.122,-1.69,-0.1,-0.79,1.47,-0.74,0.14
10.122,-2.07,0.27,-1.13,1.47,-0.74,0.14
10.123,-2.07,0.27,-1.13,1.47,-0.74,0.14
10.13,-2.07,0.27,-1.13,1.02,-0.56,0.01
10.131,-2.07,0.27,-1.13,1.02,-0.56,0.01
10.131,-2.5,0.74,-1.29,1.02,-0.56,0.01
10.132,-2.5,0.74,-1.29,1.02,-0.56,0.01
10.139,-2.5,0.74,-1.29,1.02,-0.56,0.01
10.139,-2.5,0.74,-1.29,1.02,-0.56,0.01
10.14,-2.5,0.74,-1.29,1.02,-0.56,0.01
10.14,-2.5,0.74,-1.29,1.02,-0.56,0.01
10.149,-2.5,0.74,-1.29,0.54,-0.42,0.02
10.15,-2.5,0.74,-1.29,0.54,-0.42,0.02
10.15,-3.16,1.6,-1.01,0.54,-0.42,0.02
10.151,-3.16,1.6,-1.01,0.54,-0.42,0.02
10.16,-3.16,1.6,-1.01,0.09,-0.28,0.18
10.163,-3.16,1.6,-1.01,0.09,-0.28,0.18
10.165,-3.18,1.99,-0.64,0.09,-0.28,0.18
10.165,-3.18,1.99,-0.64,0.09,-0.28,0.18
10.17,-3.18,1.99,-0.64,-0.26,-0.12,0.45
10.17,-3.18,1.99,-0.64,-0.26,-0.12,0.45
10.171,-2.91,2.37,-0.21,-0.26,-0.12,0.45
10.171,-2.91,2.37,-0.21,-0.26,-0.12,0.45
10.177,-2.91,2.37,-0.21,-0.49,-0.01,0.8
10.179,-2.91,2.37,-0.21,-0.49,-0.01,0.8
10.179,-2.45,2.77,0.11,-0.49,-0.01,0.8
10.18,-2.45,2.77,0.11,-0.49,-0.01,0.8
10.187,-2.45,2.77,0.11,-0.58,0.02,1.12
10.188,-2.45,2.77,0.11,-0.58,0.02,1.12
10.189,-1.88,3.13,0.27,-0.58,0.02,1.12
10.19,-1.88,3.13,0.27,-0.58,0.02,1.12
10.196,-1.88,3.13,0.27,-0.54,-0.01,1.32
10.197,-1.88,3.13,0.27,-0.54,-0.01,1.32
10.197,-1.32,3.49,0.3,-0.54,-0.01,1.32
10.198,-1.32,3.49,0.3,-0.54,-0.01,1.32
10.206,-1.32,3.49,0.3,-0.43,-0.1,1.35
10.207,-1.32,3.49,0.3,-0.43,-0.1,1.35
10.207,-0.88,3.79,0.26,-0.43,-0.1,1.35
10.208,-0.88,3.79,0.26,-0.43,-0.1,1.35
10.215,-0.88,3.79,0.26,-0.31,-0.2,1.23
10.216,-0.88,3.79,0.26,-0.31,-0.2,1.23
10.216,-0.64,3.99,0.23,-0.31,-0.2,1.23
10.217,-0.64,3.99,0.23,-0.31,-0.2,1.23
10.225,-0.64,3.99,0.23,-0.22,-0.3,0.98
10.226,-0.64,3.99,0.23,-0.22,-0.3,0.98
10.226,-0.59,4.11,0.17,-0.22,-0.3,0.98
10.226,-0.59,4.11,0.17,-0.22,-0.3,0.98
10.234,-0.59,4.11,0.17,-0.18,-0.39,0.67
10.235,-0.59,4.11,0.17,-0.18,-0.39,0.67
10.235,-0.72,4.11,0.09,-0.18,-0.39,0.67
10.236,-0.72,4.11,0.09,-0.18,-0.39,0.67
10.244,-0.72,4.11,0.09,-0.19,-0.47,0.39
10.245,-0.72,4.11,0.09,-0.19,-0.47,0.39
10.245,-1,3.99,-0.04,-0.19,-0.47,0.39
10.245,-1,3.99,-0.04,-0.19,-0.47,0.39
10.259,-1,3.99,-0.04,-0.23,-0.53,0.19
10.26,-1,3.99,-0.04,-0.23,-0.53,0.19
10.26,-1.28,3.84,-0.2,-0.23,-0.53,0.19
10.261,-1.28,3.84,-0.2,-0.23,-0.53,0.19
10.263,-1.28,3.84,-0.2,-0.31,-0.57,0.13
10.264,-1.28,3.84,-0.2,-0.31,-0.57,0.13
10.264,-1.5,3.69,-0.29,-0.31,-0.57,0.13
10.264,-1.5,3.69,-0.29,-0.31,-0.57,0.13
10.274,-1.5,3.69,-0.29,-0.42,-0.57,0.21
10.275,-1.5,3.69,-0.29,-0.42,-0.57,0.21
10.276,-1.58,3.6,-0.26,-0.42,-0.57,0.21
10.277,-1.58,3.6,-0.26,-0.42,-0.57,0.21
10.282,-1.58,3.6,-0.26,-0.46,-0.53,0.4
10.282,-1.58,3.6,-0.26,-0.46,-0.53,0.4
10.283,-1.47,3.56,-0.12,-0.46,-0.53,0.4
10.283,-1.47,3.56,-0.12,-0.46,-0.53,0.4
10.292,-1.47,3.56,-0.12,-0.48,-0.49,0.62
10.292,-1.47,3.56,-0.12,-0.48,-0.49,0.62
10.294,-1.21,3.5,0.09,-0.48,-0.49,0.62
10.295,-1.21,3.5,0.09,-0.48,-0.49,0.62
10.301,-1.21,3.5,0.09,-0.53,-0.45,0.8
10.301,-1.21,3.5,0.09,-0.53,-0.45,0.8
10.302,-0.84,3.36,0.29,-0.53,-0.45,0.8
10.302,-0.84,3.36,0.29,-0.53,-0.45,0.8
10.31,-0.84,3.36,0.29,-0.48,-0.41,0.87
10.311,-0.84,3.36,0.29,-0.48,-0.41,0.87
10.312,-0.44,3.12,0.41,-0.48,-0.41,0.87
10.313,-0.44,3.12,0.41,-0.48,-0.41,0.87
10.322,-0.44,3.12,0.41,-0.35,-0.37,0.79
10.323,-0.44,3.12,0.41,-0.35,-0.37,0.79
10.323,0,2.73,0.44,-0.35,-0.37,0.79
10.324,0,2.73,0.44,-0.35,-0.37,0.79
10.33,0,2.73,0.44,-0.35,-0.37,0.79
10.331,0,2.73,0.44,-0.35,-0.37,0.79
10.332,0,2.73,0.44,-0.35,-0.37,0.79
10.332,0,2.73,0.44,-0.35,-0.37,0.79
10.339,0,2.73,0.44,-0.15,-0.33,0.56
10.34,0,2.73,0.44,-0.15,-0.33,0.56
10.341,0.79,0.36,0.12,-0.15,-0.33,0.56
10.341,0.79,0.36,0.12,-0.15,-0.33,0.56
10.348,0.79,0.36,0.12,0.04,-0.28,0.14
10.35,0.79,0.36,0.12,0.04,-0.28,0.14
10.35,1.28,0.02,-0.19,0.04,-0.28,0.14
10.351,1.28,0.02,-0.19,0.04,-0.28,0.14
10.36,1.28,0.02,-0.19,0.19,-0.19,-0.47
10.361,1.28,0.02,-0.19,0.19,-0.19,-0.47
10.362,1.79,-0.57,-0.62,0.19,-0.19,-0.47
10.362,1.79,-0.57,-0.62,0.19,-0.19,-0.47
10.368,1.79,-0.57,-0.62,0.22,-0.05,-1.2
10.369,1.79,-0.57,-0.62,0.22,-0.05,-1.2
10.37,2.26,-1.18,-1.1,0.22,-0.05,-1.2
10.371,2.26,-1.18,-1.1,0.22,-0.05,-1.2
10.377,2.26,-1.18,-1.1,0.13,0.12,-1.89
10.378,2.26,-1.18,-1.1,0.13,0.12,-1.89
10.378,2.61,-1.6,-1.55,0.13,0.12,-1.89
10.379,2.61,-1.6,-1.55,0.13,0.12,-1.89
10.388,2.61,-1.6,-1.55,-0.08,0.29,-2.43
10.389,2.61,-1.6,-1.55,-0.08,0.29,-2.43
10.389,2.73,-1.72,-1.91,-0.08,0.29,-2.43
10.39,2.73,-1.72,-1.91,-0.08,0.29,-2.43
10.396,2.73,-1.72,-1.91,-0.02,0.38,-2.79
10.397,2.73,-1.72,-1.91,-0.02,0.38,-2.79
10.397,2.64,-1.54,-2.21,-0.02,0.38,-2.79
10.398,2.64,-1.54,-2.21,-0.02,0.38,-2.79
10.406,2.64,-1.54,-2.21,-0.04,0.4,-2.95
10.407,2.64,-1.54,-2.21,-0.04,0.4,-2.95
10.408,2.41,-1.14,-2.46,-0.04,0.4,-2.95
10.408,2.41,-1.14,-2.46,-0.04,0.4,-2.95
10.415,2.41,-1.14,-2.46,-0.43,0.4,-2.92
10.416,2.41,-1.14,-2.46,-0.43,0.4,-2.92
10.416,2.16,-0.58,-2.8,-0.43,0.4,-2.92
10.417,2.16,-0.58,-2.8,-0.43,0.4,-2.92
10.424,2.16,-0.58,-2.8,-0.78,0.37,-2.73
10.426,2.16,-0.58,-2.8,-0.78,0.37,-2.73
10.426,1.98,-0.02,-3.26,-0.78,0.37,-2.73
10.427,1.98,-0.02,-3.26,-0.78,0.37,-2.73
10.434,1.98,-0.02,-3.26,-1.09,0.3,-2.41
10.435,1.98,-0.02,-3.26,-1.09,0.3,-2.41
10.436,1.89,0.51,-3.69,-1.09,0.3,-2.41
10.436,1.89,0.51,-3.69,-1.09,0.3,-2.41
10.444,1.89,0.51,-3.69,-1.4,0.23,-2.02
10.444,1.89,0.51,-3.69,-1.4,0.23,-2.02
10.445,1.85,0.97,-3.9,-1.4,0.23,-2.02
10.445,1.85,0.97,-3.9,-1.4,0.23,-2.02
10.459,1.85,0.97,-3.9,-1.73,0.16,-1.63
10.461,1.85,0.97,-3.9,-1.73,0.16,-1.63
10.462,1.83,1.32,-3.8,-1.73,0.16,-1.63
10.462,1.83,1.32,-3.8,-1.73,0.16,-1.63
10.466,1.83,1.32,-3.8,-2.05,0.07,-1.26
10.467,1.83,1.32,-3.8,-2.05,0.07,-1.26
10.47,1.8,1.5,-3.32,-2.05,0.07,-1.26
10.471,1.8,1.5,-3.32,-2.05,0.07,-1.26
10.478,1.8,1.5,-3.32,-2.29,0.05,-0.96
10.48,1.8,1.5,-3.32,-2.29,0.05,-0.96
10.481,1.7,1.56,-1.77,-2.29,0.05,-0.96
10.481,1.7,1.56,-1.77,-2.29,0.05,-0.96
10.482,1.7,1.56,-1.77,-2.36,0.09,-0.71
10.482,1.7,1.56,-1.77,-2.36,0.09,-0.71
10.482,1.51,1.56,-1.32,-2.36,0.09,-0.71
10.483,1.51,1.56,-1.32,-2.36,0.09,-0.71
10.491,1.51,1.56,-1.32,-2.16,0.05,-0.51
10.492,1.51,1.56,-1.32,-2.16,0.05,-0.51
10.493,1.24,1.53,-0.85,-2.16,0.05,-0.51
10.493,1.24,1.53,-0.85,-2.16,0.05,-0.51
10.501,1.24,1.53,-0.85,-1.7,-0.06,-0.31
10.501,1.24,1.53,-0.85,-1.7,-0.06,-0.31
10.501,0.92,1.55,-0.58,-1.7,-0.06,-0.31
10.502,0.92,1.55,-0.58,-1.7,-0.06,-0.31
10.51,0.92,1.55,-0.58,-1.09,-0.15,-0.09
10.511,0.92,1.55,-0.58,-1.09,-0.15,-0.09
10.511,0.58,1.59,-0.59,-1.09,-0.15,-0.09
10.512,0.58,1.59,-0.59,-1.09,-0.15,-0.09
10.521,0.58,1.59,-0.59,-1.09,-0.15,-0.09
10.522,0.58,1.59,-0.59,-1.09,-0.15,-0.09
10.522,0.58,1.59,-0.59,-1.09,-0.15,-0.09
10.523,0.58,1.59,-0.59,-1.09,-0.15,-0.09
10.529,0.58,1.59,-0.59,-0.47,-0.22,0.16
10.53,0.58,1.59,-0.59,-0.47,-0.22,0.16
10.531,0.03,1.6,-1,-0.47,-0.22,0.16
10.531,0.03,1.6,-1,-0.47,-0.22,0.16
10.539,0.03,1.6,-1,0.03,-0.26,0.42
10.539,0.03,1.6,-1,0.03,-0.26,0.42
10.54,-0.11,1.56,-1.07,0.03,-0.26,0.42
10.54,-0.11,1.56,-1.07,0.03,-0.26,0.42
10.548,-0.11,1.56,-1.07,0.36,-0.3,0.71
10.549,-0.11,1.56,-1.07,0.36,-0.3,0.71
10.55,-0.12,1.48,-0.97,0.36,-0.3,0.71
10.551,-0.12,1.48,-0.97,0.36,-0.3,0.71
10.56,-0.12,1.48,-0.97,0.5,-0.33,1.04
10.561,-0.12,1.48,-0.97,0.5,-0.33,1.04
10.562,-0.02,1.43,-0.77,0.5,-0.33,1.04
10.562,-0.02,1.43,-0.77,0.5,-0.33,1.04
10.567,-0.02,1.43,-0.77,0.53,-0.37,1.29
10.568,-0.02,1.43,-0.77,0.53,-0.37,1.29
10.568,0.13,1.5,-0.55,0.53,-0.37,1.29
10.569,0.13,1.5,-0.55,0.53,-0.37,1.29
10.577,0.13,1.5,-0.55,0.52,-0.34,1.39
10.578,0.13,1.5,-0.55,0.52,-0.34,1.39
10.578,0.3,1.63,-0.33,0.52,-0.34,1.39
10.579,0.3,1.63,-0.33,0.52,-0.34,1.39
10.588,0.3,1.63,-0.33,0.51,-0.36,1.34
10.589,0.3,1.63,-0.33,0.51,-0.36,1.34
10.59,0.42,1.86,-0.17,0.51,-0.36,1.34
10.59,0.42,1.86,-0.17,0.51,-0.36,1.34
10.596,0.42,1.86,-0.17,0.53,-0.49,1.18
10.597,0.42,1.86,-0.17,0.53,-0.49,1.18
10.597,0.46,2.16,-0.04,0.53,-0.49,1.18
10.597,0.46,2.16,-0.04,0.53,-0.49,1.18
10.606,0.46,2.16,-0.04,0.55,-0.62,0.94
10.607,0.46,2.16,-0.04,0.55,-0.62,0.94
10.608,0.44,2.48,0.1,0.55,-0.62,0.94
10.608,0.44,2.48,0.1,0.55,-0.62,0.94
10.615,0.44,2.48,0.1,0.56,-0.72,0.68
10.616,0.44,2.48,0.1,0.56,-0.72,0.68
10.617,0.42,2.8,0.23,0.56,-0.72,0.68
10.617,0.42,2.8,0.23,0.56,-0.72,0.68
10.625,0.42,2.8,0.23,0.56,-0.78,0.45
10.626,0.42,2.8,0.23,0.56,-0.78,0.45
10.626,0.42,3.15,0.37,0.56,-0.78,0.45
10.627,0.42,3.15,0.37,0.56,-0.78,0.45
10.634,0.42,3.15,0.37,0.54,-0.82,0.27
10.635,0.42,3.15,0.37,0.54,-0.82,0.27
10.635,0.52,3.48,0.51,0.54,-0.82,0.27
10.636,0.52,3.48,0.51,0.54,-0.82,0.27
10.644,0.52,3.48,0.51,0.52,-0.8,0.14
10.645,0.52,3.48,0.51,0.52,-0.8,0.14
10.645,0.71,3.73,0.71,0.52,-0.8,0.14
10.646,0.71,3.73,0.71,0.52,-0.8,0.14
10.659,0.71,3.73,0.71,0.5,-0.75,0.02
10.661,0.71,3.73,0.71,0.5,-0.75,0.02
10.661,0.8,3.65,0.95,0.5,-0.75,0.02
10.662,0.8,3.65,0.95,0.5,-0.75,0.02
10.663,0.8,3.65,0.95,0.5,-0.69,-0.11
10.663,0.8,3.65,0.95,0.5,-0.69,-0.11
10.664,0.6,1.02,1.27,0.5,-0.69,-0.11
10.665,0.6,1.02,1.27,0.5,-0.69,-0.11
10.677,0.6,1.02,1.27,0.48,-0.65,-0.26
10.678,0.6,1.02,1.27,0.48,-0.65,-0.26
10.678,-1.16,-2.53,1.72,0.48,-0.65,-0.26
10.678,-1.16,-2.53,1.72,0.48,-0.65,-0.26
10.681,-1.16,-2.53,1.72,0.62,-0.61,-0.38
10.682,-1.16,-2.53,1.72,0.62,-0.61,-0.38
10.682,-3.11,-6.34,2.32,0.62,-0.61,-0.38
10.683,-3.11,-6.34,2.32,0.62,-0.61,-0.38
10.691,-3.11,-6.34,2.32,1.07,-0.49,-0.3
10.692,-3.11,-6.34,2.32,1.07,-0.49,-0.3
10.693,-3.68,-8.09,2.99,1.07,-0.49,-0.3
10.693,-3.68,-8.09,2.99,1.07,-0.49,-0.3
10.701,-3.68,-8.09,2.99,1.63,-0.43,-0.29
10.702,-3.68,-8.09,2.99,1.63,-0.43,-0.29
10.702,-4.22,-7.73,3.47,1.63,-0.43,-0.29
10.703,-4.22,-7.73,3.47,1.63,-0.43,-0.29
10.712,-4.22,-7.73,3.47,2.14,-0.47,-0.48
10.713,-4.22,-7.73,3.47,2.14,-0.47,-0.48
10.713,-4.38,-4.1,3.6,2.14,-0.47,-0.48
10.714,-4.38,-4.1,3.6,2.14,-0.47,-0.48
10.721,-4.38,-4.1,3.6,2.49,-0.49,-0.63
10.722,-4.38,-4.1,3.6,2.49,-0.49,-0.63
10.722,-4.1,-0.97,3.43,2.49,-0.49,-0.63
10.723,-4.1,-0.97,3.43,2.49,-0.49,-0.63
10.729,-4.1,-0.97,3.43,2.49,-0.49,-0.63
10.73,-4.1,-0.97,3.43,2.49,-0.49,-0.63
10.73,-4.1,-0.97,3.43,2.49,-0.49,-0.63
10.731,-4.1,-0.97,3.43,2.49,-0.49,-0.63
10.739,-4.1,-0.97,3.43,2.66,-0.28,-0.39
10.74,-4.1,-0.97,3.43,2.66,-0.28,-0.39
10.74,-3.55,0.73,3.5,2.66,-0.28,-0.39
10.741,-3.55,0.73,3.5,2.66,-0.28,-0.39
10.748,-3.55,0.73,3.5,2.71,0.16,0.18
10.749,-3.55,0.73,3.5,2.71,0.16,0.18
10.75,-3.83,0.22,5.23,2.71,0.16,0.18
10.751,-3.83,0.22,5.23,2.71,0.16,0.18
10.76,-3.83,0.22,5.23,2.76,0.29,0.29
10.761,-3.83,0.22,5.23,2.76,0.29,0.29
10.762,-4.34,-3.29,5.59,2.76,0.29,0.29
10.763,-4.34,-3.29,5.59,2.76,0.29,0.29
10.767,-4.34,-3.29,5.59,2.89,0.27,0
10.768,-4.34,-3.29,5.59,2.89,0.27,0
10.769,-4.83,-6.76,5.9,2.89,0.27,0
10.77,-4.83,-6.76,5.9,2.89,0.27,0
10.777,-4.83,-6.76,5.9,3.08,0.44,0.01
10.778,-4.83,-6.76,5.9,3.08,0.44,0.01
10.778,-4.96,-9.89,5.87,3.08,0.44,0.01
10.778,-4.96,-9.89,5.87,3.08,0.44,0.01
10.787,-4.96,-9.89,5.87,3.17,0.56,0.12
10.788,-4.96,-9.89,5.87,3.17,0.56,0.12
10.789,-2.3,-10.38,3.28,3.17,0.56,0.12
10.789,-2.3,-10.38,3.28,3.17,0.56,0.12
10.796,-2.3,-10.38,3.28,3,0.58,-0.06
10.797,-2.3,-10.38,3.28,3,0.58,-0.06
10.798,2.21,-10.4,-0.09,3,0.58,-0.06
10.798,2.21,-10.4,-0.09,3,0.58,-0.06
10.806,2.21,-10.4,-0.09,2.43,0.52,-0.52
10.807,2.21,-10.4,-0.09,2.43,0.52,-0.52
10.807,6.35,-7.37,-1.68,2.43,0.52,-0.52
10.808,6.35,-7.37,-1.68,2.43,0.52,-0.52
10.815,6.35,-7.37,-1.68,1.84,0.41,-1.29
10.816,6.35,-7.37,-1.68,1.84,0.41,-1.29
10.816,8.2,-4.23,-2.12,1.84,0.41,-1.29
10.817,8.2,-4.23,-2.12,1.84,0.41,-1.29
10.825,8.2,-4.23,-2.12,1.49,0.32,-2.33
10.826,8.2,-4.23,-2.12,1.49,0.32,-2.33
10.827,8.58,-2.26,-0.77,1.49,0.32,-2.33
10.828,8.58,-2.26,-0.77,1.49,0.32,-2.33
10.834,8.58,-2.26,-0.77,0.73,-0.15,-3.52
10.835,8.58,-2.26,-0.77,0.73,-0.15,-3.52
10.835,6.46,-1.87,2.51,0.73,-0.15,-3.52
10.836,6.46,-1.87,2.51,0.73,-0.15,-3.52
10.844,6.46,-1.87,2.51,-0.24,-0.99,-4.61
10.845,6.46,-1.87,2.51,-0.24,-0.99,-4.61
10.846,4.33,-1.32,4.19,-0.24,-0.99,-4.61
10.846,4.33,-1.32,4.19,-0.24,-0.99,-4.61
10.859,4.33,-1.32,4.19,-0.56,-1.56,-5.29
10.86,4.33,-1.32,4.19,-0.56,-1.56,-5.29
10.861,3.8,-0.8,5.56,-0.56,-1.56,-5.29
10.861,3.8,-0.8,5.56,-0.56,-1.56,-5.29
10.862,3.8,-0.8,5.56,-0.28,-1.69,-5.4
10.863,3.8,-0.8,5.56,-0.28,-1.69,-5.4
10.863,2.27,-0.28,5.62,-0.28,-1.69,-5.4
10.864,2.27,-0.28,5.62,-0.28,-1.69,-5.4
10.877,2.27,-0.28,5.62,0.39,-1.42,-4.98
10.878,2.27,-0.28,5.62,0.39,-1.42,-4.98
10.878,1.98,0.2,5.5,0.39,-1.42,-4.98
10.879,1.98,0.2,5.5,0.39,-1.42,-4.98
10.881,1.98,0.2,5.5,1.17,-0.95,-4.25
10.882,1.98,0.2,5.5,1.17,-0.95,-4.25
10.882,1.62,0.6,5.17,1.17,-0.95,-4.25
10.883,1.62,0.6,5.17,1.17,-0.95,-4.25
10.903,1.62,0.6,5.17,1.84,-0.46,-3.4
10.904,1.62,0.6,5.17,1.84,-0.46,-3.4
10.905,1.21,0.93,4.65,1.84,-0.46,-3.4
10.905,1.21,0.93,4.65,1.84,-0.46,-3.4
10.906,1.21,0.93,4.65,1.84,-0.46,-3.4
10.906,1.21,0.93,4.65,1.84,-0.46,-3.4
10.907,1.21,0.93,4.65,1.84,-0.46,-3.4
10.907,1.21,0.93,4.65,1.84,-0.46,-3.4
10.911,1.21,0.93,4.65,2.54,0.3,-1.77
10.911,1.21,0.93,4.65,2.54,0.3,-1.77
10.912,0.21,1.39,3.24,2.54,0.3,-1.77
10.912,0.21,1.39,3.24,2.54,0.3,-1.77
10.921,0.21,1.39,3.24,2.54,0.3,-1.77
10.922,0.21,1.39,3.24,2.54,0.3,-1.77
10.922,0.21,1.39,3.24,2.54,0.3,-1.77
10.922,0.21,1.39,3.24,2.54,0.3,-1.77
10.929,0.21,1.39,3.24,2.52,0.57,-1.03
10.93,0.21,1.39,3.24,2.52,0.57,-1.03
10.93,-0.83,1.67,2.02,2.52,0.57,-1.03
10.931,-0.83,1.67,2.02,2.52,0.57,-1.03
10.939,-0.83,1.67,2.02,2.27,0.79,-0.3
10.941,-0.83,1.67,2.02,2.27,0.79,-0.3
10.942,-1.27,1.79,1.58,2.27,0.79,-0.3
10.943,-1.27,1.79,1.58,2.27,0.79,-0.3
10.948,-1.27,1.79,1.58,1.85,0.99,0.41
10.949,-1.27,1.79,1.58,1.85,0.99,0.41
10.95,-1.55,1.85,1.3,1.85,0.99,0.41
10.95,-1.55,1.85,1.3,1.85,0.99,0.41
10.958,-1.55,1.85,1.3,1.33,1.21,1.09
10.958,-1.55,1.85,1.3,1.33,1.21,1.09
10.959,-1.58,1.85,1.18,1.33,1.21,1.09
10.959,-1.58,1.85,1.18,1.33,1.21,1.09
10.967,-1.58,1.85,1.18,0.8,1.46,1.72
10.968,-1.27,1.84,1.13,0.8,1.46,1.72
10.968,-1.27,1.84,1.13,0.8,1.46,1.72
10.969,-1.27,1.84,1.13,0.8,1.46,1.72
10.976,-1.27,1.84,1.13,0.35,1.7,2.21
10.978,-1.27,1.84,1.13,0.35,1.7,2.21
10.978,-0.7,1.78,1.04,0.35,1.7,2.21
10.978,-0.7,1.78,1.04,0.35,1.7,2.21
10.99,-0.7,1.78,1.04,0.03,1.85,2.49
10.991,-0.7,1.78,1.04,0.03,1.85,2.49
10.991,0.85,1.77,0.9,0.03,1.85,2.49
10.992,0.85,1.77,0.9,0.03,1.85,2.49
10.995,0.85,1.77,0.9,-0.18,1.84,2.49
10.996,0.85,1.77,0.9,-0.18,1.84,2.49
10.996,1.22,1.73,0.69,-0.18,1.84,2.49
10.997,1.22,1.73,0.69,-0.18,1.84,2.49
11.006,1.22,1.73,0.69,-0.33,1.61,2.18
11.007,1.22,1.73,0.69,-0.33,1.61,2.18
11.007,1.53,1.58,0.5,-0.33,1.61,2.18
11.008,1.53,1.58,0.5,-0.33,1.61,2.18
11.015,1.53,1.58,0.5,-0.48,1.17,1.6
11.015,1.53,1.58,0.5,-0.48,1.17,1.6
11.016,1.65,1.24,0.38,-0.48,1.17,1.6
11.016,1.65,1.24,0.38,-0.48,1.17,1.6
11.024,1.65,1.24,0.38,-0.61,0.65,0.92
11.025,1.65,1.24,0.38,-0.61,0.65,0.92
11.025,1.58,0.65,0.29,-0.61,0.65,0.92
11.025,1.58,0.65,0.29,-0.61,0.65,0.92
11.034,1.58,0.65,0.29,-0.73,0.14,0.28
11.035,1.58,0.65,0.29,-0.73,0.14,0.28
11.035,1.36,-0.94,0.15,-0.73,0.14,0.28
11.036,1.36,-0.94,0.15,-0.73,0.14,0.28
11.043,1.36,-0.94,0.15,-0.83,-0.29,-0.21
11.044,1.36,-0.94,0.15,-0.83,-0.29,-0.21
11.044,1.18,-1.28,-0.18,-0.83,-0.29,-0.21
11.045,1.18,-1.28,-0.18,-0.83,-0.29,-0.21
11.058,1.18,-1.28,-0.18,-0.91,-0.62,-0.55
11.059,1.18,-1.28,-0.18,-0.91,-0.62,-0.55
11.06,1.16,-1.47,-0.74,-0.91,-0.62,-0.55
11.06,1.16,-1.47,-0.74,-0.91,-0.62,-0.55
11.062,1.16,-1.47,-0.74,-1,-0.86,-0.73
11.063,1.16,-1.47,-0.74,-1,-0.86,-0.73
11.063,1.32,-1.37,-1.44,-1,-0.86,-0.73
11.064,1.32,-1.37,-1.44,-1,-0.86,-0.73
11.075,1.32,-1.37,-1.44,-1.14,-1.04,-0.79
11.076,1.32,-1.37,-1.44,-1.14,-1.04,-0.79
11.076,1.59,-0.96,-2.01,-1.14,-1.04,-0.79
11.077,1.59,-0.96,-2.01,-1.14,-1.04,-0.79
11.081,1.59,-0.96,-2.01,-1.34,-1.18,-0.81
11.082,1.59,-0.96,-2.01,-1.34,-1.18,-0.81
11.082,1.79,-0.41,-2.23,-1.34,-1.18,-0.81
11.082,1.79,-0.41,-2.23,-1.34,-1.18,-0.81
11.091,1.79,-0.41,-2.23,-1.58,-1.34,-0.85
11.092,1.79,-0.41,-2.23,-1.58,-1.34,-0.85
11.093,1.83,0.01,-2.06,-1.58,-1.34,-0.85
11.094,1.83,0.01,-2.06,-1.58,-1.34,-0.85
11.102,1.83,0.01,-2.06,-1.8,-1.5,-0.93
11.103,1.83,0.01,-2.06,-1.8,-1.5,-0.93
11.103,1.65,0.18,-1.59,-1.8,-1.5,-0.93
11.104,1.65,0.18,-1.59,-1.8,-1.5,-0.93
11.111,1.65,0.18,-1.59,-1.91,-1.62,-1.02
11.112,1.65,0.18,-1.59,-1.91,-1.62,-1.02
11.113,1.32,0.17,-1.05,-1.91,-1.62,-1.02
11.113,1.32,0.17,-1.05,-1.91,-1.62,-1.02
11.121,1.32,0.17,-1.05,-1.91,-1.62,-1.02
11.122,1.32,0.17,-1.05,-1.91,-1.62,-1.02
11.123,1.32,0.17,-1.05,-1.91,-1.62,-1.02
11.123,1.32,0.17,-1.05,-1.91,-1.62,-1.02
11.129,1.32,0.17,-1.05,-1.86,-1.67,-1.07
11.13,1.32,0.17,-1.05,-1.86,-1.67,-1.07
11.131,0.52,-0.02,-0.08,-1.86,-1.67,-1.07
11.132,0.52,-0.02,-0.08,-1.86,-1.67,-1.07
11.139,0.52,-0.02,-0.08,-1.61,-1.59,-1.03
11.14,0.52,-0.02,-0.08,-1.61,-1.59,-1.03
11.14,0.15,0.05,0.21,-1.61,-1.59,-1.03
11.141,0.15,0.05,0.21,-1.61,-1.59,-1.03
11.148,0.15,0.05,0.21,-1.16,-1.34,-0.85
11.149,0.15,0.05,0.21,-1.16,-1.34,-0.85
11.15,-0.1,0.21,0.35,-1.16,-1.34,-0.85
11.15,-0.1,0.21,0.35,-1.16,-1.34,-0.85
11.16,-0.1,0.21,0.35,-0.6,-0.98,-0.54
11.162,-0.1,0.21,0.35,-0.6,-0.98,-0.54
11.162,-0.17,0.5,0.32,-0.6,-0.98,-0.54
11.163,-0.17,0.5,0.32,-0.6,-0.98,-0.54
11.167,-0.17,0.5,0.32,-0.02,-0.58,-0.19
11.168,-0.17,0.5,0.32,-0.02,-0.58,-0.19
11.169,-0.07,0.84,0.12,-0.02,-0.58,-0.19
11.169,-0.07,0.84,0.12,-0.02,-0.58,-0.19
11.176,-0.07,0.84,0.12,0.44,-0.25,0.13
11.177,-0.07,0.84,0.12,0.44,-0.25,0.13
11.178,0.18,1.2,-0.14,0.44,-0.25,0.13
11.178,0.18,1.2,-0.14,0.44,-0.25,0.13
11.187,0.18,1.2,-0.14,0.75,-0.05,0.35
11.188,0.18,1.2,-0.14,0.75,-0.05,0.35
11.188,0.51,1.52,-0.4,0.75,-0.05,0.35
11.189,0.51,1.52,-0.4,0.75,-0.05,0.35
11.195,0.51,1.52,-0.4,0.89,0.04,0.45
11.196,0.51,1.52,-0.4,0.89,0.04,0.45
11.197,0.86,1.75,-0.54,0.89,0.04,0.45
11.197,0.86,1.75,-0.54,0.89,0.04,0.45
11.205,0.86,1.75,-0.54,0.88,0.02,0.43
11.206,0.86,1.75,-0.54,0.88,0.02,0.43
11.206,1.13,1.86,-0.52,0.88,0.02,0.43
11.207,1.13,1.86,-0.52,0.88,0.02,0.43
11.215,1.13,1.86,-0.52,0.77,-0.08,0.29
11.217,1.13,1.86,-0.52,0.77,-0.08,0.29
11.218,1.26,1.86,-0.47,0.77,-0.08,0.29
11.218,1.26,1.86,-0.47,0.77,-0.08,0.29
11.224,1.26,1.86,-0.47,0.63,-0.21,0.07
11.226,1.26,1.86,-0.47,0.63,-0.21,0.07
11.226,1.19,1.79,-0.55,0.63,-0.21,0.07
11.227,1.19,1.79,-0.55,0.63,-0.21,0.07
11.234,1.19,1.79,-0.55,0.48,-0.35,-0.18
11.235,1.19,1.79,-0.55,0.48,-0.35,-0.18
11.235,0.92,1.74,-0.81,0.48,-0.35,-0.18
11.236,0.92,1.74,-0.81,0.48,-0.35,-0.18
11.243,0.92,1.74,-0.81,0.35,-0.45,-0.39
11.244,0.92,1.74,-0.81,0.35,-0.45,-0.39
11.245,0.48,1.77,-1.14,0.35,-0.45,-0.39
11.246,0.48,1.77,-1.14,0.35,-0.45,-0.39
11.259,0.48,1.77,-1.14,0.2,-0.47,-0.5
11.26,0.48,1.77,-1.14,0.2,-0.47,-0.5
11.26,0.01,1.93,-1.4,0.2,-0.47,-0.5
11.261,0.01,1.93,-1.4,0.2,-0.47,-0.5
11.262,0.01,1.93,-1.4,-0.01,-0.41,-0.48
11.263,0.01,1.93,-1.4,-0.01,-0.41,-0.48
11.263,-0.38,2.18,-1.45,-0.01,-0.41,-0.48
11.264,-0.38,2.18,-1.45,-0.01,-0.41,-0.48
11.275,-0.38,2.18,-1.45,-0.27,-0.27,-0.31
11.277,-0.38,2.18,-1.45,-0.27,-0.27,-0.31
11.277,-0.62,2.48,-1.41,-0.27,-0.27,-0.31
11.278,-0.62,2.48,-1.41,-0.27,-0.27,-0.31
11.281,-0.62,2.48,-1.41,-0.53,-0.08,-0.04
11.282,-0.62,2.48,-1.41,-0.53,-0.08,-0.04
11.282,-0.75,2.71,-1.45,-0.53,-0.08,-0.04
11.283,-0.75,2.71,-1.45,-0.53,-0.08,-0.04
11.29,-0.75,2.71,-1.45,-0.75,0.16,0.27
11.291,-0.75,2.71,-1.45,-0.75,0.16,0.27
11.292,-0.89,2.82,-1.53,-0.75,0.16,0.27
11.292,-0.89,2.82,-1.53,-0.75,0.16,0.27
11.301,-0.89,2.82,-1.53,-0.75,0.16,0.27
11.302,-0.89,2.82,-1.53,-0.75,0.16,0.27
11.302,-0.89,2.82,-1.53,-0.75,0.16,0.27
11.303,-0.89,2.82,-1.53,-0.75,0.16,0.27
11.31,-0.89,2.82,-1.53,-0.89,0.41,0.57
11.311,-0.89,2.82,-1.53,-0.89,0.41,0.57
11.312,-1.53,2.8,-1.3,-0.89,0.41,0.57
11.313,-1.53,2.8,-1.3,-0.89,0.41,0.57
11.32,-1.53,2.8,-1.3,-0.83,0.37,0.83
11.322,-1.53,2.8,-1.3,-0.83,0.37,0.83
11.322,-1.84,2.89,-0.74,-0.83,0.37,0.83
11.323,-1.84,2.89,-0.74,-0.83,0.37,0.83
11.328,-1.84,2.89,-0.74,-0.62,0.08,1.1
11.329,-1.84,2.89,-0.74,-0.62,0.08,1.1
11.33,-1.95,3.05,0.82,-0.62,0.08,1.1
11.331,-1.95,3.05,0.82,-0.62,0.08,1.1
11.338,-1.95,3.05,0.82,-0.45,-0.16,1.4
11.339,-1.95,3.05,0.82,-0.45,-0.16,1.4
11.34,-1.8,3.25,1.25,-0.45,-0.16,1.4
11.34,-1.8,3.25,1.25,-0.45,-0.16,1.4
11.348,-1.8,3.25,1.25,-0.31,-0.36,1.69
11.349,-1.8,3.25,1.25,-0.31,-0.36,1.69
11.35,-1.42,3.33,1.64,-0.31,-0.36,1.69
11.35,-1.42,3.33,1.64,-0.31,-0.36,1.69
11.36,-1.42,3.33,1.64,0.19,-0.27,1.87
11.363,-1.42,3.33,1.64,0.19,-0.27,1.87
11.364,-0.95,3.19,1.57,0.19,-0.27,1.87
11.365,-0.95,3.19,1.57,0.19,-0.27,1.87
11.369,-0.95,3.19,1.57,1.01,-0.01,1.86
11.371,-0.95,3.19,1.57,1.01,-0.01,1.86
11.372,-0.35,2.84,-0.7,1.01,-0.01,1.86
11.374,-0.35,2.84,-0.7,1.01,-0.01,1.86
11.38,-0.35,2.84,-0.7,1.58,0.02,1.65
11.382,-0.35,2.84,-0.7,1.58,0.02,1.65
11.383,1.18,2.4,-2.66,1.58,0.02,1.65
11.383,1.18,2.4,-2.66,1.58,0.02,1.65
11.388,1.18,2.4,-2.66,1.55,-0.12,1.2
11.389,1.18,2.4,-2.66,1.55,-0.12,1.2
11.389,1.59,2.06,-3.06,1.55,-0.12,1.2
11.39,1.59,2.06,-3.06,1.55,-0.12,1.2
11.395,1.59,2.06,-3.06,0.78,-0.41,0.49
11.396,1.59,2.06,-3.06,0.78,-0.41,0.49
11.396,2.06,1.84,-3.39,0.78,-0.41,0.49
11.397,2.06,1.84,-3.39,0.78,-0.41,0.49
11.405,2.06,1.84,-3.39,-0.47,-0.82,-0.43
11.406,2.06,1.84,-3.39,-0.47,-0.82,-0.43
11.406,2.5,1.56,-3.32,-0.47,-0.82,-0.43
11.407,2.5,1.56,-3.32,-0.47,-0.82,-0.43
11.414,2.5,1.56,-3.32,-1.71,-1.28,-1.4
11.415,2.5,1.56,-3.32,-1.71,-1.28,-1.4
11.416,2.9,-0.89,-3.11,-1.71,-1.28,-1.4
11.416,2.9,-0.89,-3.11,-1.71,-1.28,-1.4
11.424,2.9,-0.89,-3.11,-2.56,-1.67,-2.26
11.425,2.9,-0.89,-3.11,-2.56,-1.67,-2.26
11.426,3.25,-4.12,-3.15,-2.56,-1.67,-2.26
11.427,3.25,-4.12,-3.15,-2.56,-1.67,-2.26
11.434,3.25,-4.12,-3.15,-2.89,-1.85,-2.88
11.435,3.25,-4.12,-3.15,-2.89,-1.85,-2.88
11.435,3.57,-7.15,-3.53,-2.89,-1.85,-2.88
11.436,3.57,-7.15,-3.53,-2.89,-1.85,-2.88
11.443,3.57,-7.15,-3.53,-2.64,-1.74,-3.18
11.444,3.57,-7.15,-3.53,-2.64,-1.74,-3.18
11.444,3.6,-9.01,-4.12,-2.64,-1.74,-3.18
11.445,3.6,-9.01,-4.12,-2.64,-1.74,-3.18
11.458,3.6,-9.01,-4.12,-2.16,-1.39,-3.13
11.459,3.6,-9.01,-4.12,-2.16,-1.39,-3.13
11.459,2.05,-9.11,-4.55,-2.16,-1.39,-3.13
11.46,2.05,-9.11,-4.55,-2.16,-1.39,-3.13
11.462,2.05,-9.11,-4.55,-1.85,-0.93,-2.78
11.463,2.05,-9.11,-4.55,-1.85,-0.93,-2.78
11.463,0,-8.97,-4.48,-1.85,-0.93,-2.78
11.463,0,-8.97,-4.48,-1.85,-0.93,-2.78
11.475,0,-8.97,-4.48,-1.62,-0.46,-2.18
11.476,0,-8.97,-4.48,-1.62,-0.46,-2.18
11.476,-2.3,-8.71,-2.84,-1.62,-0.46,-2.18
11.476,-2.3,-8.71,-2.84,-1.62,-0.46,-2.18
11.481,-2.3,-8.71,-2.84,-1.46,0.02,-1.35
11.481,-2.3,-8.71,-2.84,-1.46,0.02,-1.35
11.481,-4.32,-8.63,-2.3,-1.46,0.02,-1.35
11.482,-4.32,-8.63,-2.3,-1.46,0.02,-1.35
11.491,-4.32,-8.63,-2.3,-1.23,0.54,-0.31
11.491,-4.32,-8.63,-2.3,-1.23,0.54,-0.31
11.492,-4.79,-8.74,-0.72,-1.23,0.54,-0.31
11.493,-4.79,-8.74,-0.72,-1.23,0.54,-0.31
11.5,-4.79,-8.74,-0.72,-0.88,1.1,0.81
11.501,-4.79,-8.74,-0.72,-0.88,1.1,0.81
11.502,-5.29,-8.68,-0.4,-0.88,1.1,0.81
11.502,-5.29,-8.68,-0.4,-0.88,1.1,0.81
11.51,-5.29,-8.68,-0.4,-0.88,1.1,0.81
11.511,-5.29,-8.68,-0.4,-0.88,1.1,0.81
11.512,-5.29,-8.68,-0.4,-0.88,1.1,0.81
11.512,-5.29,-8.68,-0.4,-0.88,1.1,0.81
11.52,-5.29,-8.68,-0.4,-0.38,1.59,1.83
11.522,-5.29,-8.68,-0.4,-0.38,1.59,1.83
11.522,-5.47,-6.38,0,-0.38,1.59,1.83
11.523,-5.47,-6.38,0,-0.38,1.59,1.83
11.529,-5.47,-6.38,0,0.16,1.92,2.6
11.53,-5.47,-6.38,0,0.16,1.92,2.6
11.53,-5.04,-4.48,0.2,0.16,1.92,2.6
11.531,-5.04,-4.48,0.2,0.16,1.92,2.6
11.538,-5.04,-4.48,0.2,0.64,2.07,3.07
11.539,-5.04,-4.48,0.2,0.64,2.07,3.07
11.539,-3.27,-4.16,0.3,0.64,2.07,3.07
11.54,-3.27,-4.16,0.3,0.64,2.07,3.07
11.548,-3.27,-4.16,0.3,0.99,2.06,3.27
11.548,-3.27,-4.16,0.3,0.99,2.06,3.27
11.549,-2.83,-3.79,0.25,0.99,2.06,3.27
11.55,-2.83,-3.79,0.25,0.99,2.06,3.27
11.559,-2.83,-3.79,0.25,1.2,1.92,3.23
11.561,-2.83,-3.79,0.25,1.2,1.92,3.23
11.561,-1.22,-3.48,-0.01,1.2,1.92,3.23
11.562,-1.22,-3.48,-0.01,1.2,1.92,3.23
11.567,-1.22,-3.48,-0.01,1.29,1.71,2.94
11.567,-1.22,-3.48,-0.01,1.29,1.71,2.94
11.568,-0.72,-3.19,-0.57,1.29,1.71,2.94
11.568,-0.72,-3.19,-0.57,1.29,1.71,2.94
11.581,-0.72,-3.19,-0.57,1.27,1.48,2.45
11.582,-0.72,-3.19,-0.57,1.27,1.48,2.45
11.582,-0.21,-2.81,-2.17,1.27,1.48,2.45
11.582,-0.21,-2.81,-2.17,1.27,1.48,2.45
11.588,-0.21,-2.81,-2.17,1.12,1.29,1.84
11.589,-0.21,-2.81,-2.17,1.12,1.29,1.84
11.589,0.08,-2.28,-2.59,1.12,1.29,1.84
11.59,0.08,-2.28,-2.59,1.12,1.29,1.84
11.595,0.08,-2.28,-2.59,0.81,1.17,1.22
11.596,0.08,-2.28,-2.59,0.81,1.17,1.22
11.597,0.07,-0.58,-3.01,0.81,1.17,1.22
11.597,0.07,-0.58,-3.01,0.81,1.17,1.22
11.605,0.07,-0.58,-3.01,0.35,1.11,0.66
11.606,0.07,-0.58,-3.01,0.35,1.11,0.66
11.606,-0.17,-0.26,-3.2,0.35,1.11,0.66
11.607,-0.17,-0.26,-3.2,0.35,1.11,0.66
11.614,-0.17,-0.26,-3.2,-0.18,1.11,0.24
11.615,-0.17,-0.26,-3.2,-0.18,1.11,0.24
11.616,-0.53,0.24,-3.13,-0.18,1.11,0.24
11.616,-0.53,0.24,-3.13,-0.18,1.11,0.24
11.624,-0.53,0.24,-3.13,-0.7,1.16,-0.02
11.625,-0.53,0.24,-3.13,-0.7,1.16,-0.02
11.626,-0.88,0.79,-2.84,-0.7,1.16,-0.02
11.626,-0.88,0.79,-2.84,-0.7,1.16,-0.02
11.633,-0.88,0.79,-2.84,-1.14,1.22,-0.11
11.634,-0.88,0.79,-2.84,-1.14,1.22,-0.11
11.635,-1.07,1.32,-2.38,-1.14,1.22,-0.11
11.635,-1.07,1.32,-2.38,-1.14,1.22,-0.11
11.642,-1.07,1.32,-2.38,-1.46,1.26,-0.05
11.644,-1.07,1.32,-2.38,-1.46,1.26,-0.05
11.645,-1.11,1.81,-1.88,-1.46,1.26,-0.05
11.645,-1.11,1.81,-1.88,-1.46,1.26,-0.05
11.659,-1.11,1.81,-1.88,-1.63,1.22,0.1
11.66,-1.11,1.81,-1.88,-1.63,1.22,0.1
11.66,-1.01,2.27,-1.34,-1.63,1.22,0.1
11.661,-1.01,2.27,-1.34,-1.63,1.22,0.1
11.662,-1.01,2.27,-1.34,-1.66,1.09,0.28
11.663,-1.01,2.27,-1.34,-1.66,1.09,0.28
11.663,-0.81,2.7,-0.8,-1.66,1.09,0.28
11.664,-0.81,2.7,-0.8,-1.66,1.09,0.28
11.675,-0.81,2.7,-0.8,-1.56,0.89,0.43
11.676,-0.81,2.7,-0.8,-1.56,0.89,0.43
11.677,-0.61,3.07,-0.29,-1.56,0.89,0.43
11.677,-0.61,3.07,-0.29,-1.56,0.89,0.43
11.68,-0.61,3.07,-0.29,-1.36,0.63,0.52
11.681,-0.61,3.07,-0.29,-1.36,0.63,0.52
11.681,-0.46,3.4,0.17,-1.36,0.63,0.52
11.681,-0.46,3.4,0.17,-1.36,0.63,0.52
11.691,-0.46,3.4,0.17,-1.08,0.33,0.53
11.693,-0.46,3.4,0.17,-1.08,0.33,0.53
11.694,-0.39,3.74,0.54,-1.08,0.33,0.53
11.695,-0.39,3.74,0.54,-1.08,0.33,0.53
11.7,-0.39,3.74,0.54,-0.92,0.02,0.47
11.701,-0.39,3.74,0.54,-0.92,0.02,0.47
11.702,-0.38,4.05,0.8,-0.92,0.02,0.47
11.703,-0.38,4.05,0.8,-0.92,0.02,0.47
11.709,-0.38,4.05,0.8,-0.92,0.02,0.47
11.711,-0.38,4.05,0.8,-0.92,0.02,0.47
11.712,-0.38,4.05,0.8,-0.92,0.02,0.47
11.713,-0.38,4.05,0.8,-0.92,0.02,0.47
11.72,-0.38,4.05,0.8,-0.92,-0.29,0.39
11.721,-0.38,4.05,0.8,-0.92,-0.29,0.39
11.722,-0.61,4.52,1.03,-0.92,-0.29,0.39
11.722,-0.61,4.52,1.03,-0.92,-0.29,0.39
11.728,-0.61,4.52,1.03,-0.69,-0.57,0.32
11.729,-0.61,4.52,1.03,-0.69,-0.57,0.32
11.73,-0.77,4.57,1.14,-0.69,-0.57,0.32
11.73,-0.77,4.57,1.14,-0.69,-0.57,0.32
11.738,-0.77,4.57,1.14,-0.34,-0.82,0.32
11.738,-0.77,4.57,1.14,-0.34,-0.82,0.32
11.739,-0.92,4.56,1.26,-0.34,-0.82,0.32
11.739,-0.92,4.56,1.26,-0.34,-0.82,0.32
11.748,-0.92,4.56,1.26,-0.03,-1.02,0.42
11.749,-0.92,4.56,1.26,-0.03,-1.02,0.42
11.75,-0.99,4.44,1.37,-0.03,-1.02,0.42
11.751,-0.99,4.44,1.37,-0.03,-1.02,0.42
11.762,-0.99,4.44,1.37,0.32,-1.17,0.32
11.763,-0.99,4.44,1.37,0.32,-1.17,0.32
11.764,-0.96,4.25,1.46,0.32,-1.17,0.32
11.765,-0.96,4.25,1.46,0.32,-1.17,0.32
11.767,-0.96,4.25,1.46,0.61,-1.27,0.01
11.767,-0.96,4.25,1.46,0.61,-1.27,0.01
11.767,-0.83,4.02,1.5,0.61,-1.27,0.01
11.768,-0.83,4.02,1.5,0.61,-1.27,0.01
11.776,-0.83,4.02,1.5,0.84,-1.33,0.02
11.777,-0.83,4.02,1.5,0.84,-1.33,0.02
11.777,-0.64,3.76,1.48,0.84,-1.33,0.02
11.777,-0.64,3.76,1.48,0.84,-1.33,0.02
11.786,-0.64,3.76,1.48,1.02,-1.35,0.24
11.787,-0.64,3.76,1.48,1.02,-1.35,0.24
11.788,-0.42,3.49,1.42,1.02,-1.35,0.24
11.788,-0.42,3.49,1.42,1.02,-1.35,0.24
11.797,-0.42,3.49,1.42,1.13,-1.35,0.31
11.798,-0.42,3.49,1.42,1.13,-1.35,0.31
11.798,-0.24,3.18,1.27,1.13,-1.35,0.31
11.799,-0.24,3.18,1.27,1.13,-1.35,0.31
11.805,-0.24,3.18,1.27,1.16,-1.32,0.24
11.806,-0.24,3.18,1.27,1.16,-1.32,0.24
11.806,-0.11,2.88,1.07,1.16,-1.32,0.24
11.807,-0.11,2.88,1.07,1.16,-1.32,0.24
11.814,-0.11,2.88,1.07,1.1,-1.27,0.06
11.815,-0.11,2.88,1.07,1.1,-1.27,0.06
11.816,0.01,2.53,0.87,1.1,-1.27,0.06
11.816,0.01,2.53,0.87,1.1,-1.27,0.06
11.823,0.01,2.53,0.87,0.95,-1.18,-0.19
11.825,0.01,2.53,0.87,0.95,-1.18,-0.19
11.825,0.06,2.18,0.65,0.95,-1.18,-0.19
11.826,0.06,2.18,0.65,0.95,-1.18,-0.19
11.833,0.06,2.18,0.65,0.72,-1.08,-0.44
11.834,0.06,2.18,0.65,0.72,-1.08,-0.44
11.834,0.14,1.88,0.43,0.72,-1.08,-0.44
11.835,0.14,1.88,0.43,0.72,-1.08,-0.44
11.842,0.14,1.88,0.43,0.44,-0.96,-0.66
11.843,0.14,1.88,0.43,0.44,-0.96,-0.66
11.844,0.27,1.57,0.25,0.44,-0.96,-0.66
11.844,0.27,1.57,0.25,0.44,-0.96,-0.66
11.855,0.27,1.57,0.25,0.14,-0.82,-0.85
11.856,0.27,1.57,0.25,0.14,-0.82,-0.85
11.857,0.51,1.3,0.06,0.14,-0.82,-0.85
11.857,0.51,1.3,0.06,0.14,-0.82,-0.85
11.862,0.51,1.3,0.06,-0.14,-0.67,-1.01
11.862,0.51,1.3,0.06,-0.14,-0.67,-1.01
11.863,0.89,1.12,-0.04,-0.14,-0.67,-1.01
11.863,0.89,1.12,-0.04,-0.14,-0.67,-1.01
11.871,0.89,1.12,-0.04,-0.4,-0.54,-1.16
11.872,0.89,1.12,-0.04,-0.4,-0.54,-1.16
11.872,1.36,0.97,-0.09,-0.4,-0.54,-1.16
11.872,1.36,0.97,-0.09,-0.4,-0.54,-1.16
11.88,1.36,0.97,-0.09,-0.62,-0.45,-1.33
11.881,1.36,0.97,-0.09,-0.62,-0.45,-1.33
11.881,1.86,0.91,-0.11,-0.62,-0.45,-1.33
11.881,1.86,0.91,-0.11,-0.62,-0.45,-1.33
11.902,1.86,0.91,-0.11,-0.62,-0.45,-1.33
11.903,1.86,0.91,-0.11,-0.62,-0.45,-1.33
11.903,1.86,0.91,-0.11,-0.62,-0.45,-1.33
11.904,1.86,0.91,-0.11,-0.62,-0.45,-1.33
11.904,1.86,0.91,-0.11,-0.79,-0.4,-1.56
11.904,1.86,0.91,-0.11,-0.79,-0.4,-1.56
11.904,2.53,0.91,-0.37,-0.79,-0.4,-1.56
11.905,2.53,0.91,-0.37,-0.79,-0.4,-1.56
11.909,2.53,0.91,-0.37,-0.91,-0.4,-1.84
11.909,2.53,0.91,-0.37,-0.91,-0.4,-1.84
11.91,2.68,0.9,-0.6,-0.91,-0.4,-1.84
11.91,2.68,0.9,-0.6,-0.91,-0.4,-1.84
11.919,2.68,0.9,-0.6,-1,-0.45,-2.17
11.92,2.68,0.9,-0.6,-1,-0.45,-2.17
11.92,2.7,0.91,-0.81,-1,-0.45,-2.17
11.921,2.7,0.91,-0.81,-1,-0.45,-2.17
11.928,2.7,0.91,-0.81,-1.09,-0.53,-2.47
11.928,2.7,0.91,-0.81,-1.09,-0.53,-2.47
11.929,2.59,0.93,-0.91,-1.09,-0.53,-2.47
11.929,2.59,0.93,-0.91,-1.09,-0.53,-2.47
11.937,2.59,0.93,-0.91,-1.18,-0.63,-2.67
11.938,2.59,0.93,-0.91,-1.18,-0.63,-2.67
11.938,2.41,0.97,-0.97,-1.18,-0.63,-2.67
11.939,2.41,0.97,-0.97,-1.18,-0.63,-2.67
11.947,2.41,0.97,-0.97,-1.25,-0.71,-2.71
11.948,2.41,0.97,-0.97,-1.25,-0.71,-2.71
11.949,2.18,1.07,-1.1,-1.25,-0.71,-2.71
11.949,2.18,1.07,-1.1,-1.25,-0.71,-2.71
11.957,2.18,1.07,-1.1,-1.28,-0.65,-2.59
11.958,2.18,1.07,-1.1,-1.28,-0.65,-2.59
11.959,1.93,1.18,-1.45,-1.28,-0.65,-2.59
11.959,1.93,1.18,-1.45,-1.28,-0.65,-2.59
11.966,1.93,1.18,-1.45,-1.29,-0.48,-2.34
11.967,1.93,1.18,-1.45,-1.29,-0.48,-2.34
11.967,1.74,1.31,-2.09,-1.29,-0.48,-2.34
11.967,1.74,1.31,-2.09,-1.29,-0.48,-2.34
11.976,1.74,1.31,-2.09,-1.32,-0.5,-2.01
11.976,1.74,1.31,-2.09,-1.32,-0.5,-2.01
11.977,1.61,1.47,-3.66,-1.32,-0.5,-2.01
11.977,1.61,1.47,-3.66,-1.32,-0.5,-2.01
11.986,1.61,1.47,-3.66,-1.46,-0.69,-1.64
11.987,1.61,1.47,-3.66,-1.46,-0.69,-1.64
11.987,1.56,1.58,-3.99,-1.46,-0.69,-1.64
11.988,1.56,1.58,-3.99,-1.46,-0.69,-1.64
11.994,1.56,1.58,-3.99,-1.78,-0.93,-1.29
11.995,1.56,1.58,-3.99,-1.78,-0.93,-1.29
11.996,1.53,1.6,-4.15,-1.78,-0.93,-1.29
11.996,1.53,1.6,-4.15,-1.78,-0.93,-1.29
12.004,1.53,1.6,-4.15,-2.23,-0.85,-1
12.005,1.53,1.6,-4.15,-2.23,-0.85,-1
12.005,1.42,1.48,-3.97,-2.23,-0.85,-1
12.006,1.42,1.48,-3.97,-2.23,-0.85,-1
12.014,1.42,1.48,-3.97,-2.64,-0.41,-0.8
12.015,1.42,1.48,-3.97,-2.64,-0.41,-0.8
12.015,1.16,1.21,-3.55,-2.64,-0.41,-0.8
12.016,1.16,1.21,-3.55,-2.64,-0.41,-0.8
12.023,1.16,1.21,-3.55,-2.86,-0.44,-0.67
12.024,1.16,1.21,-3.55,-2.86,-0.44,-0.67
12.025,0.72,0.95,-2.97,-2.86,-0.44,-0.67
12.026,0.72,0.95,-2.97,-2.86,-0.44,-0.67
12.033,0.72,0.95,-2.97,-2.81,-0.86,-0.55
12.034,0.72,0.95,-2.97,-2.81,-0.86,-0.55
12.034,0.11,0.81,-2.35,-2.81,-0.86,-0.55
12.035,0.11,0.81,-2.35,-2.81,-0.86,-0.55
12.042,0.11,0.81,-2.35,-2.52,-1.09,-0.33
12.043,0.11,0.81,-2.35,-2.52,-1.09,-0.33
12.044,-0.53,0.91,-1.79,-2.52,-1.09,-0.33
12.044,-0.53,0.91,-1.79,-2.52,-1.09,-0.33
12.059,-0.53,0.91,-1.79,-2.03,-1.09,0.04
12.06,-0.53,0.91,-1.79,-2.03,-1.09,0.04
12.06,-1.07,1.3,-1.38,-2.03,-1.09,0.04
12.061,-1.07,1.3,-1.38,-2.03,-1.09,0.04
12.062,-1.07,1.3,-1.38,-1.43,-0.86,0.6
12.062,-1.07,1.3,-1.38,-1.43,-0.86,0.6
12.063,-1.39,2.97,-1.05,-1.43,-0.86,0.6
12.064,-1.39,2.97,-1.05,-1.43,-0.86,0.6
12.072,-1.39,2.97,-1.05,-0.96,-0.49,1.25
12.073,-1.39,2.97,-1.05,-0.96,-0.49,1.25
12.073,-1.48,3.2,-0.68,-0.96,-0.49,1.25
12.074,-1.48,3.2,-0.68,-0.96,-0.49,1.25
12.08,-1.48,3.2,-0.68,-0.69,-0.41,1.92
12.081,-1.48,3.2,-0.68,-0.69,-0.41,1.92
12.081,-1.46,3.29,-0.19,-0.69,-0.41,1.92
12.081,-1.46,3.29,-0.19,-0.69,-0.41,1.92
12.09,-1.46,3.29,-0.19,-0.32,-0.26,2.53
12.091,-1.46,3.29,-0.19,-0.32,-0.26,2.53
12.091,-1.48,1.61,0.39,-0.32,-0.26,2.53
12.092,-1.48,1.61,0.39,-0.32,-0.26,2.53
12.099,-1.48,1.61,0.39,-0.32,-0.26,2.53
12.1,-1.48,1.61,0.39,-0.32,-0.26,2.53
12.101,-1.48,1.61,0.39,-0.32,-0.26,2.53
12.101,-1.48,1.61,0.39,-0.32,-0.26,2.53
12.109,-1.48,1.61,0.39,0.2,0.25,2.99
12.11,-1.48,1.61,0.39,0.2,0.25,2.99
12.11,-1.91,-4.16,1.34,0.2,0.25,2.99
12.111,-1.91,-4.16,1.34,0.2,0.25,2.99
12.119,-1.91,-4.16,1.34,0.86,0.65,3.19
12.12,-1.91,-4.16,1.34,0.86,0.65,3.19
12.121,-1.92,-4.7,1.68,0.86,0.65,3.19
12.121,-1.92,-4.7,1.68,0.86,0.65,3.19
12.129,-1.92,-4.7,1.68,1.72,0.82,3
12.13,-1.92,-4.7,1.68,1.72,0.82,3
12.131,-1.54,-5.06,2.11,1.72,0.82,3
12.132,-1.54,-5.06,2.11,1.72,0.82,3
12.138,-1.54,-5.06,2.11,2.58,0.74,2.49
12.139,-1.54,-5.06,2.11,2.58,0.74,2.49
12.14,0.17,-4.81,2.67,2.58,0.74,2.49
12.141,0.17,-4.81,2.67,2.58,0.74,2.49
12.157,0.17,-4.81,2.67,3.17,0.5,1.81
12.158,0.17,-4.81,2.67,3.17,0.5,1.81
12.158,0.32,-3.24,3.36,3.17,0.5,1.81
12.159,0.32,-3.24,3.36,3.17,0.5,1.81
12.159,0.32,-3.24,3.36,3.47,0.21,1.08
12.16,0.32,-3.24,3.36,3.47,0.21,1.08
12.16,0.18,-2.93,4,3.47,0.21,1.08
12.161,0.18,-2.93,4,3.47,0.21,1.08
12.166,0.18,-2.93,4,3.58,-0.03,0.4
12.167,0.18,-2.93,4,3.58,-0.03,0.4
12.167,-1.86,-3.02,4.27,3.58,-0.03,0.4
12.167,-1.86,-3.02,4.27,3.58,-0.03,0.4
12.175,-1.86,-3.02,4.27,3.64,-0.1,-0.09
12.176,-1.86,-3.02,4.27,3.64,-0.1,-0.09
12.176,-3.59,-3.59,4.05,3.64,-0.1,-0.09
12.176,-3.59,-3.59,4.05,3.64,-0.1,-0.09
12.186,-3.59,-3.59,4.05,3.68,0.1,-0.24
12.186,-3.59,-3.59,4.05,3.68,0.1,-0.24
12.187,-3.99,-5.38,1.99,3.68,0.1,-0.24
12.187,-3.99,-5.38,1.99,3.68,0.1,-0.24
12.194,-3.99,-5.38,1.99,3.62,0.55,-0.03
12.195,-3.99,-5.38,1.99,3.62,0.55,-0.03
12.196,-4.26,-5.8,1.53,3.62,0.55,-0.03
12.196,-4.26,-5.8,1.53,3.62,0.55,-0.03
12.204,-4.26,-5.8,1.53,3.33,1.15,0.37
12.205,-4.26,-5.8,1.53,3.33,1.15,0.37
12.206,-3.95,-5.99,0.98,3.33,1.15,0.37
12.206,-3.95,-5.99,0.98,3.33,1.15,0.37
12.213,-3.95,-5.99,0.98,2.81,1.74,0.74
12.214,-3.95,-5.99,0.98,2.81,1.74,0.74
12.215,-2.02,-5.7,0.79,2.81,1.74,0.74
12.216,-2.02,-5.7,0.79,2.81,1.74,0.74
12.223,-2.02,-5.7,0.79,2.17,2.16,0.91
12.224,-2.02,-5.7,0.79,2.17,2.16,0.91
12.225,-0.06,-3.65,1.19,2.17,2.16,0.91
12.226,-0.06,-3.65,1.19,2.17,2.16,0.91
12.233,-0.06,-3.65,1.19,1.56,2.33,0.82
12.234,-0.06,-3.65,1.19,1.56,2.33,0.82
