time,ax,ay,az,wx,wy,wz
5.006,0.03,0.25,-0.03,0,0,0
5.007,0.03,0.25,-0.03,0,0,0
5.007,0.03,0.25,-0.03,0,0,0
5.007,0.03,0.25,-0.03,0,0,0
5.016,0.03,0.25,-0.03,0,0,0
5.018,0.03,0.25,-0.03,0,0,0
5.018,0.03,0.25,-0.03,0,0,0
5.019,0.03,0.25,-0.03,0,0,0
5.025,0.03,0.25,-0.03,0,0,0
5.026,0.03,0.25,-0.03,0,0,0
5.027,0.03,0.25,-0.03,0,0,0
5.027,0.03,0.25,-0.03,0,0,0
5.034,0.03,0.25,-0.03,0,0,0
5.036,0.03,0.25,-0.03,0,0,0
5.037,0.03,0.25,-0.03,0,0,0
5.038,0.03,0.25,-0.03,0,0,0
5.043,0.03,0.25,-0.03,0,0,0
5.044,0.03,0.25,-0.03,0,0,0
5.045,0.03,0.25,-0.03,0,0,0
5.045,0.03,0.25,-0.03,0,0,0
5.055,0.03,0.25,-0.03,0,0,0
5.056,0.03,0.25,-0.03,0,0,0
5.057,0.03,0.25,-0.03,0,0,0
5.058,0.03,0.25,-0.03,0,0,0
5.063,0.03,0.25,-0.03,0,0,0
5.064,0.03,0.25,-0.03,0,0,0
5.065,0.03,0.25,-0.03,0,0,0
5.067,0.03,0.25,-0.03,0,0,0
5.071,0.03,0.25,-0.03,0,0,0
5.072,0.03,0.25,-0.03,0,0,0
5.073,0.03,0.25,-0.03,0,0,0
5.073,0.03,0.25,-0.03,0,0,0
5.082,0.03,0.25,-0.03,0,0,0
5.082,0.03,0.25,-0.03,0,0,0
5.083,0.03,0.25,-0.03,0,0,0
5.084,0.03,0.25,-0.03,0,0,0
5.104,0.03,0.25,-0.03,0,0,0
5.106,0.03,0.25,-0.03,0,0,0
5.107,0.03,0.25,-0.03,0,0,0
5.107,0.03,0.25,-0.03,0,0,0
5.108,0.03,0.25,-0.03,0,0,0
5.109,0.03,0.25,-0.03,0,0,0
5.11,0.03,0.25,-0.03,0,0,0
5.111,0.03,0.25,-0.03,0,0,0
5.112,0.03,0.25,-0.03,0,0,0
5.112,0.03,0.25,-0.03,0,0,0
5.113,0.03,0.25,-0.03,0,0,0
5.114,0.03,0.25,-0.03,0,0,0
5.119,0.03,0.25,-0.03,0,0,0
5.12,0.03,0.25,-0.03,0,0,0
5.121,0.03,0.25,-0.03,0,0,0
5.121,0.03,0.25,-0.03,0,0,0
5.129,0.03,0.25,-0.03,0,0,0
5.13,0.03,0.25,-0.03,0,0,0
5.13,0.03,0.25,-0.03,0,0,0
5.131,0.03,0.25,-0.03,0,0,0
5.138,0.03,0.25,-0.03,0,0,0
5.14,0.03,0.25,-0.03,0,0,0
5.14,0.03,0.25,-0.03,0,0,0
5.141,0.03,0.25,-0.03,0,0,0
5.148,0.03,0.25,-0.03,0,0,0
5.148,0.03,0.25,-0.03,0,0,0
5.149,0.03,0.25,-0.03,0,0,0
5.149,0.03,0.25,-0.03,0,0,0
5.157,0.03,0.25,-0.03,0,0,0
5.158,0.03,0.25,-0.03,0,0,0
5.159,0.03,0.25,-0.03,0,0,0
5.159,0.03,0.25,-0.03,0,0,0
5.172,0.03,0.25,-0.03,0,0,0
5.172,0.03,0.25,-0.03,0,0,0
5.173,0.03,0.25,-0.03,0,0,0
5.173,0.03,0.25,-0.03,0,0,0
5.177,0.03,0.25,-0.03,0,0,0
5.177,0.03,0.25,-0.03,0,0,0
5.178,0.03,0.25,-0.03,0,0,0
5.178,0.03,0.25,-0.03,0,0,0
5.186,0.03,0.25,-0.03,0,0,0
5.187,0.03,0.25,-0.03,0,0,0
5.189,0.03,0.25,-0.03,0,0,0
5.189,0.03,0.25,-0.03,0,0,0
5.195,0.03,0.25,-0.03,0,0,0
5.196,0.03,0.25,-0.03,0,0,0
5.197,0.03,0.25,-0.03,0,0,0
5.197,0.03,0.25,-0.03,0,0,0
5.205,0.03,0.25,-0.03,0,0,0
5.207,0.03,0.25,-0.03,0,0,0
5.207,-0.23,0.23,0.41,0,0,0
5.208,-0.23,0.23,0.41,0,0,0
5.214,-0.23,0.23,0.41,0,0,0
5.215,-0.23,0.23,0.41,0,0,0
5.216,-0.25,0.18,0.38,0,0,0
5.216,-0.25,0.18,0.38,0,0,0
5.224,-0.25,0.18,0.38,0,0,0
5.227,-0.25,0.18,0.38,0,0,0
5.228,-0.26,0.14,0.35,0,0,0
5.228,-0.26,0.14,0.35,0,0,0
5.234,-0.26,0.14,0.35,0,0,0
5.235,-0.26,0.14,0.35,0,0,0
5.236,-0.26,0.14,0.35,0,0,0
5.236,-0.26,0.14,0.35,0,0,0
5.243,-0.26,0.14,0.35,0,0,0
5.244,-0.26,0.14,0.35,0,0,0
5.245,-0.21,0.12,0.31,0,0,0
5.246,-0.21,0.12,0.31,0,0,0
5.256,-0.21,0.12,0.31,0,0,0
5.257,-0.21,0.12,0.31,0,0,0
5.258,-0.2,0.11,0.33,0,0,0
5.258,-0.2,0.11,0.33,0,0,0
5.263,-0.2,0.11,0.33,0,0,0
5.264,-0.2,0.11,0.33,0,0,0
5.264,-0.21,0.11,0.34,0,0,0
5.265,-0.21,0.11,0.34,0,0,0
5.272,-0.21,0.11,0.34,0,0,0
5.273,-0.21,0.11,0.34,0,0,0
5.274,-0.22,0.12,0.33,0,0,0
5.274,-0.22,0.12,0.33,0,0,0
5.283,-0.22,0.12,0.33,0,0,0
5.284,-0.22,0.12,0.33,0,0,0
5.285,-0.23,0.13,0.28,0,0,0
5.285,-0.23,0.13,0.28,0,0,0
5.29,-0.23,0.13,0.28,0,0,0
5.291,-0.23,0.13,0.28,0,0,0
5.292,-0.18,0.18,0.23,0,0,0
5.293,-0.18,0.18,0.23,0,0,0
5.3,-0.18,0.18,0.23,0,0,0
5.301,-0.18,0.18,0.23,0,0,0
5.301,-0.03,0.23,0.21,0,0,0
5.302,-0.03,0.23,0.21,0,0,0
5.31,-0.03,0.23,0.21,0,0,0
5.312,-0.03,0.23,0.21,0,0,0
5.313,0.11,0.29,0.19,0,0,0
5.314,0.11,0.29,0.19,0,0,0
5.319,0.11,0.29,0.19,0,0,0
5.321,0.11,0.29,0.19,0,0,0
5.322,0.2,0.38,0.25,0,0,0
5.323,0.2,0.38,0.25,0,0,0
5.329,0.2,0.38,0.25,0,0,0
5.329,0.2,0.38,0.25,0,0,0
5.33,0.25,0.44,0.32,0,0,0
5.33,0.25,0.44,0.32,0,0,0
5.339,0.25,0.44,0.32,0,0,0
5.34,0.25,0.44,0.32,0,0,0
5.34,0.21,0.48,0.42,0,0,0
5.341,0.21,0.48,0.42,0,0,0
5.355,0.21,0.48,0.42,0,0,0
5.357,0.21,0.48,0.42,0,0,0
5.357,0.14,0.52,0.54,0,0,0
5.358,0.14,0.52,0.54,0,0,0
5.359,0.14,0.52,0.54,0,0,0
5.36,0.14,0.52,0.54,0,0,0
5.361,0.08,0.51,0.61,0,0,0
5.361,0.08,0.51,0.61,0,0,0
5.369,0.08,0.51,0.61,0,0,0
5.37,0.08,0.51,0.61,0,0,0
5.371,0.01,0.51,0.61,0,0,0
5.371,0.01,0.51,0.61,0,0,0
5.377,0.01,0.51,0.61,0.21,-0.28,-0.16
5.378,0.01,0.51,0.61,0.21,-0.28,-0.16
5.378,-0.04,0.5,0.51,0.21,-0.28,-0.16
5.379,-0.04,0.5,0.51,0.21,-0.28,-0.16
5.386,-0.04,0.5,0.51,0.26,-0.28,-0.13
5.388,-0.04,0.5,0.51,0.26,-0.28,-0.13
5.388,-0.08,0.48,0.35,0.26,-0.28,-0.13
5.389,-0.08,0.48,0.35,0.26,-0.28,-0.13
5.396,-0.08,0.48,0.35,0.29,-0.23,-0.08
5.397,-0.08,0.48,0.35,0.29,-0.23,-0.08
5.398,-0.13,0.46,0.12,0.29,-0.23,-0.08
5.399,-0.13,0.46,0.12,0.29,-0.23,-0.08
5.405,-0.13,0.46,0.12,0.28,-0.15,-0.04
5.407,-0.13,0.46,0.12,0.28,-0.15,-0.04
5.407,-0.2,0.47,-0.07,0.28,-0.15,-0.04
5.408,-0.2,0.47,-0.07,0.28,-0.15,-0.04
5.416,-0.2,0.47,-0.07,0.21,-0.05,0.01
5.417,-0.2,0.47,-0.07,0.21,-0.05,0.01
5.417,-0.26,0.52,-0.23,0.21,-0.05,0.01
5.418,-0.26,0.52,-0.23,0.21,-0.05,0.01
5.425,-0.26,0.52,-0.23,0.1,0.08,0.05
5.426,-0.26,0.52,-0.23,0.1,0.08,0.05
5.426,-0.32,0.58,-0.34,0.1,0.08,0.05
5.427,-0.32,0.58,-0.34,0.1,0.08,0.05
5.434,-0.32,0.58,-0.34,0.1,0.08,0.05
5.434,-0.32,0.58,-0.34,0.1,0.08,0.05
5.435,-0.32,0.58,-0.34,0.1,0.08,0.05
5.435,-0.32,0.58,-0.34,0.1,0.08,0.05
5.443,-0.32,0.58,-0.34,-0.04,0.21,0.09
5.444,-0.32,0.58,-0.34,-0.04,0.21,0.09
5.445,-0.4,0.61,-0.37,-0.04,0.21,0.09
5.445,-0.4,0.61,-0.37,-0.04,0.21,0.09
5.461,-0.4,0.61,-0.37,-0.17,0.34,0.14
5.462,-0.4,0.61,-0.37,-0.17,0.34,0.14
5.462,-0.49,0.61,-0.36,-0.17,0.34,0.14
5.462,-0.49,0.61,-0.36,-0.17,0.34,0.14
5.463,-0.49,0.61,-0.36,-0.28,0.46,0.18
5.463,-0.49,0.61,-0.36,-0.28,0.46,0.18
5.463,-0.57,0.59,-0.42,-0.28,0.46,0.18
5.463,-0.57,0.59,-0.42,-0.28,0.46,0.18
5.479,-0.57,0.59,-0.42,-0.35,0.57,0.24
5.479,-0.57,0.59,-0.42,-0.35,0.57,0.24
5.48,-0.6,0.54,-0.53,-0.35,0.57,0.24
5.48,-0.6,0.54,-0.53,-0.35,0.57,0.24
5.486,-0.6,0.54,-0.53,-0.39,0.65,0.29
5.487,-0.6,0.54,-0.53,-0.39,0.65,0.29
5.488,-0.59,0.43,-0.74,-0.39,0.65,0.29
5.488,-0.59,0.43,-0.74,-0.39,0.65,0.29
5.491,-0.59,0.43,-0.74,-0.42,0.72,0.34
5.491,-0.59,0.43,-0.74,-0.42,0.72,0.34
5.492,-0.53,0.22,-1.08,-0.42,0.72,0.34
5.492,-0.53,0.22,-1.08,-0.42,0.72,0.34
5.501,-0.53,0.22,-1.08,-0.46,0.81,0.36
5.502,-0.53,0.22,-1.08,-0.46,0.81,0.36
5.503,-0.46,-0.1,-1.46,-0.46,0.81,0.36
5.504,-0.46,-0.1,-1.46,-0.46,0.81,0.36
5.51,-0.46,-0.1,-1.46,-0.53,0.93,0.32
5.511,-0.46,-0.1,-1.46,-0.53,0.93,0.32
5.511,-0.45,-0.5,-1.9,-0.53,0.93,0.32
5.512,-0.45,-0.5,-1.9,-0.53,0.93,0.32
5.52,-0.45,-0.5,-1.9,-0.61,1.08,0.24
5.521,-0.45,-0.5,-1.9,-0.61,1.08,0.24
5.522,-0.49,-0.95,-2.3,-0.61,1.08,0.24
5.523,-0.49,-0.95,-2.3,-0.61,1.08,0.24
5.529,-0.49,-0.95,-2.3,-0.67,1.25,0.18
5.53,-0.49,-0.95,-2.3,-0.67,1.25,0.18
5.53,-0.57,-1.38,-2.64,-0.67,1.25,0.18
5.531,-0.57,-1.38,-2.64,-0.67,1.25,0.18
5.538,-0.57,-1.38,-2.64,-0.83,1.34,0.12
5.54,-0.57,-1.38,-2.64,-0.83,1.34,0.12
5.541,-0.67,-1.81,-2.9,-0.83,1.34,0.12
5.543,-0.67,-1.81,-2.9,-0.83,1.34,0.12
5.554,-0.67,-1.81,-2.9,-1.1,1.35,0.07
5.555,-0.67,-1.81,-2.9,-1.1,1.35,0.07
5.556,-0.75,-2.2,-3.07,-1.1,1.35,0.07
5.556,-0.75,-2.2,-3.07,-1.1,1.35,0.07
5.558,-0.75,-2.2,-3.07,-1.33,1.42,0.03
5.559,-0.75,-2.2,-3.07,-1.33,1.42,0.03
5.559,-0.73,-2.47,-3.21,-1.33,1.42,0.03
5.56,-0.73,-2.47,-3.21,-1.33,1.42,0.03
5.568,-0.73,-2.47,-3.21,-1.48,1.52,0.02
5.569,-0.73,-2.47,-3.21,-1.48,1.52,0.02
5.569,-0.59,-2.64,-3.32,-1.48,1.52,0.02
5.57,-0.59,-2.64,-3.32,-1.48,1.52,0.02
5.577,-0.59,-2.64,-3.32,-1.57,1.54,0.01
5.578,-0.59,-2.64,-3.32,-1.57,1.54,0.01
5.579,-0.33,-2.6,-3.41,-1.57,1.54,0.01
5.579,-0.33,-2.6,-3.41,-1.57,1.54,0.01
5.586,-0.33,-2.6,-3.41,-1.59,1.52,-0.01
5.587,-0.33,-2.6,-3.41,-1.59,1.52,-0.01
5.588,-0.03,-2.3,-3.45,-1.59,1.52,-0.01
5.588,-0.03,-2.3,-3.45,-1.59,1.52,-0.01
5.596,-0.03,-2.3,-3.45,-1.57,1.45,-0.06
5.596,-0.03,-2.3,-3.45,-1.57,1.45,-0.06
5.597,0.25,-1.76,-3.43,-1.57,1.45,-0.06
5.598,0.25,-1.76,-3.43,-1.57,1.45,-0.06
5.605,0.25,-1.76,-3.43,-1.52,1.35,-0.1
5.607,0.25,-1.76,-3.43,-1.52,1.35,-0.1
5.608,0.49,-0.23,-3.3,-1.52,1.35,-0.1
5.609,0.49,-0.23,-3.3,-1.52,1.35,-0.1
5.616,0.49,-0.23,-3.3,-1.46,1.2,-0.17
5.617,0.49,-0.23,-3.3,-1.46,1.2,-0.17
5.617,0.69,0.27,-3,-1.46,1.2,-0.17
5.618,0.69,0.27,-3,-1.46,1.2,-0.17
5.624,0.69,0.27,-3,-1.39,1.03,-0.3
5.625,0.69,0.27,-3,-1.39,1.03,-0.3
5.626,0.87,0.87,-2.6,-1.39,1.03,-0.3
5.627,0.87,0.87,-2.6,-1.39,1.03,-0.3
5.634,0.87,0.87,-2.6,-1.39,1.03,-0.3
5.634,0.87,0.87,-2.6,-1.39,1.03,-0.3
5.635,0.87,0.87,-2.6,-1.39,1.03,-0.3
5.635,0.87,0.87,-2.6,-1.39,1.03,-0.3
5.644,0.87,0.87,-2.6,-1.29,0.86,-0.42
5.646,0.87,0.87,-2.6,-1.29,0.86,-0.42
5.647,1.13,1.88,-1.62,-1.29,0.86,-0.42
5.648,1.13,1.88,-1.62,-1.29,0.86,-0.42
5.661,1.13,1.88,-1.62,-1.13,0.67,-0.53
5.661,1.13,1.88,-1.62,-1.13,0.67,-0.53
5.661,1.25,2.13,-1.18,-1.13,0.67,-0.53
5.662,1.25,2.13,-1.18,-1.13,0.67,-0.53
5.662,1.25,2.13,-1.18,-0.88,0.44,-0.64
5.662,1.25,2.13,-1.18,-0.88,0.44,-0.64
5.662,1.4,2.21,-0.87,-0.88,0.44,-0.64
5.663,1.4,2.21,-0.87,-0.88,0.44,-0.64
5.678,1.4,2.21,-0.87,-0.52,0.14,-0.75
5.678,1.4,2.21,-0.87,-0.52,0.14,-0.75
5.679,1.59,2.09,-0.73,-0.52,0.14,-0.75
5.679,1.59,2.09,-0.73,-0.52,0.14,-0.75
5.685,1.59,2.09,-0.73,-0.1,-0.2,-0.87
5.686,1.59,2.09,-0.73,-0.1,-0.2,-0.87
5.686,1.85,1.86,-0.82,-0.1,-0.2,-0.87
5.686,1.85,1.86,-0.82,-0.1,-0.2,-0.87
5.691,1.85,1.86,-0.82,0.29,-0.27,-0.85
5.691,1.85,1.86,-0.82,0.29,-0.27,-0.85
5.691,2.17,1.64,-1.08,0.29,-0.27,-0.85
5.692,2.17,1.64,-1.08,0.29,-0.27,-0.85
5.7,2.17,1.64,-1.08,0.31,-0.07,-0.87
5.701,2.17,1.64,-1.08,0.31,-0.07,-0.87
5.702,2.5,1.49,-1.4,0.31,-0.07,-0.87
5.702,2.5,1.49,-1.4,0.31,-0.07,-0.87
5.711,2.5,1.49,-1.4,0.23,-0.07,-1.08
5.712,2.5,1.49,-1.4,0.23,-0.07,-1.08
5.713,2.77,1.48,-1.64,0.23,-0.07,-1.08
5.713,2.77,1.48,-1.64,0.23,-0.07,-1.08
5.719,2.77,1.48,-1.64,0.32,-0.21,-1.31
5.72,2.77,1.48,-1.64,0.32,-0.21,-1.31
5.72,2.86,1.62,-1.73,0.32,-0.21,-1.31
5.721,2.86,1.62,-1.73,0.32,-0.21,-1.31
5.729,2.86,1.62,-1.73,0.25,-0.25,-1.53
5.729,2.86,1.62,-1.73,0.25,-0.25,-1.53
5.73,2.74,1.84,-1.63,0.25,-0.25,-1.53
5.73,2.74,1.84,-1.63,0.25,-0.25,-1.53
5.739,2.74,1.84,-1.63,0.09,-0.24,-1.71
5.739,2.74,1.84,-1.63,0.09,-0.24,-1.71
5.74,2.45,2.15,-1.42,0.09,-0.24,-1.71
5.74,2.45,2.15,-1.42,0.09,-0.24,-1.71
5.752,2.45,2.15,-1.42,-0.08,-0.21,-1.79
5.753,2.45,2.15,-1.42,-0.08,-0.21,-1.79
5.753,2.11,2.49,-1.18,-0.08,-0.21,-1.79
5.753,2.11,2.49,-1.18,-0.08,-0.21,-1.79
5.758,2.11,2.49,-1.18,-0.21,-0.17,-1.74
5.759,2.11,2.49,-1.18,-0.21,-0.17,-1.74
5.759,1.79,2.78,-0.98,-0.21,-0.17,-1.74
5.759,1.79,2.78,-0.98,-0.21,-0.17,-1.74
5.768,1.79,2.78,-0.98,-0.25,-0.14,-1.57
5.769,1.79,2.78,-0.98,-0.25,-0.14,-1.57
5.77,1.62,3,-0.83,-0.25,-0.14,-1.57
5.77,1.62,3,-0.83,-0.25,-0.14,-1.57
5.777,1.62,3,-0.83,-0.24,-0.11,-1.29
5.778,1.62,3,-0.83,-0.24,-0.11,-1.29
5.778,1.65,3.09,-0.91,-0.24,-0.11,-1.29
5.779,1.65,3.09,-0.91,-0.24,-0.11,-1.29
5.786,1.65,3.09,-0.91,-0.18,-0.09,-0.96
5.788,1.65,3.09,-0.91,-0.18,-0.09,-0.96
5.788,1.82,3.06,-1.3,-0.18,-0.09,-0.96
5.789,1.82,3.06,-1.3,-0.18,-0.09,-0.96
5.796,1.82,3.06,-1.3,-0.16,-0.04,-0.66
5.797,1.82,3.06,-1.3,-0.16,-0.04,-0.66
5.798,2.16,2.91,-2.95,-0.16,-0.04,-0.66
5.798,2.16,2.91,-2.95,-0.16,-0.04,-0.66
5.805,2.16,2.91,-2.95,-0.29,0.12,-0.44
5.806,2.16,2.91,-2.95,-0.29,0.12,-0.44
5.807,2.56,2.61,-4.58,-0.29,0.12,-0.44
5.807,2.56,2.61,-4.58,-0.29,0.12,-0.44
5.816,2.56,2.61,-4.58,-0.75,0.52,-0.34
5.816,2.56,2.61,-4.58,-0.75,0.52,-0.34
5.817,2.94,2.12,-6.41,-0.75,0.52,-0.34
5.817,2.94,2.12,-6.41,-0.75,0.52,-0.34
5.824,2.94,2.12,-6.41,-1.7,1.28,-0.32
5.825,2.94,2.12,-6.41,-1.7,1.28,-0.32
5.826,3.28,0.34,-6.57,-1.7,1.28,-0.32
5.826,3.28,0.34,-6.57,-1.7,1.28,-0.32
5.834,3.28,0.34,-6.57,-1.7,1.28,-0.32
5.834,3.28,0.34,-6.57,-1.7,1.28,-0.32
5.835,3.28,0.34,-6.57,-1.7,1.28,-0.32
5.835,3.28,0.34,-6.57,-1.7,1.28,-0.32
5.844,3.28,0.34,-6.57,-3,2.33,-0.27
5.845,3.28,0.34,-6.57,-3,2.33,-0.27
5.845,3.35,-0.47,-6.94,-3,2.33,-0.27
5.846,3.35,-0.47,-6.94,-3,2.33,-0.27
5.854,3.35,-0.47,-6.94,-4.22,3.38,-0.13
5.855,3.35,-0.47,-6.94,-4.22,3.38,-0.13
5.855,2.99,-0.85,-7.08,-4.22,3.38,-0.13
5.856,2.99,-0.85,-7.08,-4.22,3.38,-0.13
5.863,2.99,-0.85,-7.08,-4.95,4.07,0.1
5.864,2.99,-0.85,-7.08,-4.95,4.07,0.1
5.864,2.54,-0.97,-7.29,-4.95,4.07,0.1
5.864,2.54,-0.97,-7.29,-4.95,4.07,0.1
5.873,2.54,-0.97,-7.29,-5.13,4.26,0.34
5.874,2.54,-0.97,-7.29,-5.13,4.26,0.34
5.874,2.16,-0.81,-7.37,-5.13,4.26,0.34
5.874,2.16,-0.81,-7.37,-5.13,4.26,0.34
5.883,2.16,-0.81,-7.37,-4.96,4.1,0.56
5.884,2.16,-0.81,-7.37,-4.96,4.1,0.56
5.884,1.89,-0.43,-7.12,-4.96,4.1,0.56
5.885,1.89,-0.43,-7.12,-4.96,4.1,0.56
5.891,1.89,-0.43,-7.12,-4.63,3.74,0.77
5.891,1.89,-0.43,-7.12,-4.63,3.74,0.77
5.892,1.59,0.04,-6.49,-4.63,3.74,0.77
5.892,1.59,0.04,-6.49,-4.63,3.74,0.77
5.9,1.59,0.04,-6.49,-4.23,3.28,0.94
5.901,1.59,0.04,-6.49,-4.23,3.28,0.94
5.901,1.1,0.55,-4.79,-4.23,3.28,0.94
5.902,1.1,0.55,-4.79,-4.23,3.28,0.94
5.91,1.1,0.55,-4.79,-3.76,2.77,1.04
5.911,1.1,0.55,-4.79,-3.76,2.77,1.04
5.911,0.42,1.03,-4.33,-3.76,2.77,1.04
5.912,0.42,1.03,-4.33,-3.76,2.77,1.04
5.919,0.42,1.03,-4.33,-3.19,2.19,1.06
5.92,0.42,1.03,-4.33,-3.19,2.19,1.06
5.921,-1.15,1.44,-3.85,-3.19,2.19,1.06
5.921,-1.15,1.44,-3.85,-3.19,2.19,1.06
5.929,-1.15,1.44,-3.85,-2.55,1.53,1.05
5.93,-1.15,1.44,-3.85,-2.55,1.53,1.05
5.93,-1.5,1.72,-3.45,-2.55,1.53,1.05
5.931,-1.5,1.72,-3.45,-2.55,1.53,1.05
5.938,-1.5,1.72,-3.45,-1.93,0.81,0.84
5.94,-1.5,1.72,-3.45,-1.93,0.81,0.84
5.941,-1.81,1.84,-3,-1.93,0.81,0.84
5.942,-1.81,1.84,-3,-1.93,0.81,0.84
5.954,-1.81,1.84,-3,-1.38,0.09,0.81
5.955,-1.81,1.84,-3,-1.38,0.09,0.81
5.956,-2.03,1.81,-2.44,-1.38,0.09,0.81
5.956,-2.03,1.81,-2.44,-1.38,0.09,0.81
5.958,-2.03,1.81,-2.44,-0.89,-0.55,1.14
5.959,-2.03,1.81,-2.44,-0.89,-0.55,1.14
5.96,-2.12,1.64,-1.94,-0.89,-0.55,1.14
5.96,-2.12,1.64,-1.94,-0.89,-0.55,1.14
5.969,-2.12,1.64,-1.94,-0.44,-1.09,1.41
5.97,-2.12,1.64,-1.94,-0.44,-1.09,1.41
5.97,-2.08,1.41,-1.66,-0.44,-1.09,1.41
5.971,-2.08,1.41,-1.66,-0.44,-1.09,1.41
5.976,-2.08,1.41,-1.66,-0.02,-1.53,1.56
5.977,-2.08,1.41,-1.66,-0.02,-1.53,1.56
5.977,-1.9,1.15,-1.75,-0.02,-1.53,1.56
5.977,-1.9,1.15,-1.75,-0.02,-1.53,1.56
5.986,-1.9,1.15,-1.75,-0.01,-1.83,1.46
5.987,-1.9,1.15,-1.75,-0.01,-1.83,1.46
5.987,-1.5,0.84,-2.17,-0.01,-1.83,1.46
5.988,-1.5,0.84,-2.17,-0.01,-1.83,1.46
5.995,-1.5,0.84,-2.17,-0.02,-1.95,1.24
5.996,-1.5,0.84,-2.17,-0.02,-1.95,1.24
5.997,0.24,0.47,-2.67,-0.02,-1.95,1.24
5.997,0.24,0.47,-2.67,-0.02,-1.95,1.24
6.005,0.24,0.47,-2.67,0.26,-1.88,1.01
6.007,0.24,0.47,-2.67,0.26,-1.88,1.01
6.007,0.48,0,-2.92,0.26,-1.88,1.01
6.008,0.48,0,-2.92,0.26,-1.88,1.01
6.016,0.48,0,-2.92,0.35,-1.61,0.61
6.017,0.48,0,-2.92,0.35,-1.61,0.61
6.018,0.84,-0.46,-2.78,0.35,-1.61,0.61
6.018,0.84,-0.46,-2.78,0.35,-1.61,0.61
6.024,0.84,-0.46,-2.78,0.3,-1.24,0.01
6.025,0.84,-0.46,-2.78,0.3,-1.24,0.01
6.026,1.05,-0.69,-2.48,0.3,-1.24,0.01
6.026,1.05,-0.69,-2.48,0.3,-1.24,0.01
6.034,1.05,-0.69,-2.48,0.3,-1.24,0.01
6.035,1.05,-0.69,-2.48,0.3,-1.24,0.01
6.035,1.05,-0.69,-2.48,0.3,-1.24,0.01
6.036,1.05,-0.69,-2.48,0.3,-1.24,0.01
6.043,1.05,-0.69,-2.48,0.19,-0.89,-0.66
6.044,1.05,-0.69,-2.48,0.19,-0.89,-0.66
6.045,0.7,0,-2.3,0.19,-0.89,-0.66
6.045,0.7,0,-2.3,0.19,-0.89,-0.66
6.055,0.7,0,-2.3,0.12,-0.64,-1.21
6.056,0.7,0,-2.3,0.12,-0.64,-1.21
6.057,0.4,1.66,-2.28,0.12,-0.64,-1.21
6.058,0.4,1.66,-2.28,0.12,-0.64,-1.21
6.062,0.4,1.66,-2.28,0.05,-0.49,-1.58
6.064,0.4,1.66,-2.28,0.05,-0.49,-1.58
6.065,0.29,2.06,-2.07,0.05,-0.49,-1.58
6.066,0.29,2.06,-2.07,0.05,-0.49,-1.58
6.072,0.29,2.06,-2.07,-0.06,-0.36,-1.73
6.073,0.29,2.06,-2.07,-0.06,-0.36,-1.73
6.073,0.44,2.46,-1.63,-0.06,-0.36,-1.73
6.074,0.44,2.46,-1.63,-0.06,-0.36,-1.73
6.082,0.44,2.46,-1.63,-0.25,-0.22,-1.73
6.083,0.44,2.46,-1.63,-0.25,-0.22,-1.73
6.083,0.82,2.69,-1.12,-0.25,-0.22,-1.73
6.084,0.82,2.69,-1.12,-0.25,-0.22,-1.73
6.104,0.82,2.69,-1.12,-0.46,-0.15,-1.69
6.105,0.82,2.69,-1.12,-0.46,-0.15,-1.69
6.106,1.25,2.67,-0.79,-0.46,-0.15,-1.69
6.106,1.25,2.67,-0.79,-0.46,-0.15,-1.69
6.107,1.25,2.67,-0.79,-0.46,-0.15,-1.69
6.108,1.25,2.67,-0.79,-0.46,-0.15,-1.69
6.108,1.25,2.67,-0.79,-0.46,-0.15,-1.69
6.109,1.25,2.67,-0.79,-0.46,-0.15,-1.69
6.109,1.25,2.67,-0.79,-0.65,-0.11,-1.84
6.11,1.25,2.67,-0.79,-0.65,-0.11,-1.84
6.111,1.93,2.11,-1.03,-0.65,-0.11,-1.84
6.111,1.93,2.11,-1.03,-0.65,-0.11,-1.84
6.119,1.93,2.11,-1.03,-0.63,-0.08,-2.1
6.12,1.93,2.11,-1.03,-0.63,-0.08,-2.1
6.121,2.15,1.74,-1.28,-0.63,-0.08,-2.1
6.121,2.15,1.74,-1.28,-0.63,-0.08,-2.1
6.129,2.15,1.74,-1.28,-0.58,-0.05,-2.39
6.13,2.15,1.74,-1.28,-0.58,-0.05,-2.39
6.131,2.28,1.43,-1.45,-0.58,-0.05,-2.39
6.131,2.28,1.43,-1.45,-0.58,-0.05,-2.39
6.138,2.28,1.43,-1.45,-0.54,-0.03,-2.62
6.139,2.28,1.43,-1.45,-0.54,-0.03,-2.62
6.14,2.35,1.21,-1.45,-0.54,-0.03,-2.62
6.141,2.35,1.21,-1.45,-0.54,-0.03,-2.62
6.153,2.35,1.21,-1.45,-0.51,-0.01,-2.74
6.154,2.35,1.21,-1.45,-0.51,-0.01,-2.74
6.154,2.31,1.13,-1.38,-0.51,-0.01,-2.74
6.155,2.31,1.13,-1.38,-0.51,-0.01,-2.74
6.157,2.31,1.13,-1.38,-0.49,-0.02,-2.76
6.158,2.31,1.13,-1.38,-0.49,-0.02,-2.76
6.159,2.18,1.17,-1.31,-0.49,-0.02,-2.76
6.159,2.18,1.17,-1.31,-0.49,-0.02,-2.76
6.167,2.18,1.17,-1.31,-0.47,-0.08,-2.7
6.167,2.18,1.17,-1.31,-0.47,-0.08,-2.7
6.168,1.94,1.3,-1.25,-0.47,-0.08,-2.7
6.168,1.94,1.3,-1.25,-0.47,-0.08,-2.7
6.177,1.94,1.3,-1.25,-0.43,-0.17,-2.58
6.178,1.94,1.3,-1.25,-0.43,-0.17,-2.58
6.178,1.56,1.43,-1.26,-0.43,-0.17,-2.58
6.179,1.56,1.43,-1.26,-0.43,-0.17,-2.58
6.188,1.56,1.43,-1.26,-0.41,-0.27,-2.37
6.189,1.56,1.43,-1.26,-0.41,-0.27,-2.37
6.19,1.07,1.5,-1.32,-0.41,-0.27,-2.37
6.191,1.07,1.5,-1.32,-0.41,-0.27,-2.37
6.195,1.07,1.5,-1.32,-0.44,-0.35,-2.07
6.196,1.07,1.5,-1.32,-0.44,-0.35,-2.07
6.196,0.51,1.52,-1.42,-0.44,-0.35,-2.07
6.197,0.51,1.52,-1.42,-0.44,-0.35,-2.07
6.205,0.51,1.52,-1.42,-0.53,-0.39,-1.65
6.206,0.51,1.52,-1.42,-0.53,-0.39,-1.65
6.206,-0.07,1.48,-1.46,-0.53,-0.39,-1.65
6.206,-0.07,1.48,-1.46,-0.53,-0.39,-1.65
6.216,-0.07,1.48,-1.46,-0.53,-0.39,-1.65
6.216,-0.07,1.48,-1.46,-0.53,-0.39,-1.65
6.217,-0.07,1.48,-1.46,-0.53,-0.39,-1.65
6.217,-0.07,1.48,-1.46,-0.53,-0.39,-1.65
6.224,-0.07,1.48,-1.46,-0.81,-0.31,-0.55
6.225,-0.07,1.48,-1.46,-0.81,-0.31,-0.55
6.225,-0.91,1.54,-1.27,-0.81,-0.31,-0.55
6.226,-0.91,1.54,-1.27,-0.81,-0.31,-0.55
6.233,-0.91,1.54,-1.27,-0.81,-0.31,-0.55
6.234,-0.91,1.54,-1.27,-0.81,-0.31,-0.55
6.234,-0.91,1.54,-1.27,-0.81,-0.31,-0.55
6.234,-0.91,1.54,-1.27,-0.81,-0.31,-0.55
6.243,-0.91,1.54,-1.27,-0.94,-0.48,0.05
6.244,-0.91,1.54,-1.27,-0.94,-0.48,0.05
6.245,-0.94,2,-1.08,-0.94,-0.48,0.05
6.245,-0.94,2,-1.08,-0.94,-0.48,0.05
6.254,-0.94,2,-1.08,-1.03,-0.68,0.59
6.255,-0.94,2,-1.08,-1.03,-0.68,0.59
6.255,-0.69,2.26,-1.14,-1.03,-0.68,0.59
6.256,-0.69,2.26,-1.14,-1.03,-0.68,0.59
6.263,-0.69,2.26,-1.14,-1.1,-0.85,0.98
6.263,-0.69,2.26,-1.14,-1.1,-0.85,0.98
6.264,-0.32,2.46,-1.32,-1.1,-0.85,0.98
6.265,-0.32,2.46,-1.32,-1.1,-0.85,0.98
6.272,-0.32,2.46,-1.32,-1.17,-0.93,1.2
6.272,-0.32,2.46,-1.32,-1.17,-0.93,1.2
6.273,0.19,2.65,-1.54,-1.17,-0.93,1.2
6.273,0.19,2.65,-1.54,-1.17,-0.93,1.2
6.282,0.19,2.65,-1.54,-1.27,-0.89,1.22
6.283,0.19,2.65,-1.54,-1.27,-0.89,1.22
6.283,0.75,2.82,-1.75,-1.27,-0.89,1.22
6.284,0.75,2.82,-1.75,-1.27,-0.89,1.22
6.291,0.75,2.82,-1.75,-1.42,-0.76,1.07
6.292,0.75,2.82,-1.75,-1.42,-0.76,1.07
6.293,1.36,3.01,-1.85,-1.42,-0.76,1.07
6.294,1.36,3.01,-1.85,-1.42,-0.76,1.07
6.3,1.36,3.01,-1.85,-1.59,-0.52,0.78
6.301,1.36,3.01,-1.85,-1.59,-0.52,0.78
6.301,1.92,3.26,-1.88,-1.59,-0.52,0.78
6.302,1.92,3.26,-1.88,-1.59,-0.52,0.78
6.31,1.92,3.26,-1.88,-1.78,-0.35,0.61
6.311,1.92,3.26,-1.88,-1.78,-0.35,0.61
6.311,2.31,3.55,-1.82,-1.78,-0.35,0.61
6.312,2.31,3.55,-1.82,-1.78,-0.35,0.61
6.319,2.31,3.55,-1.82,-1.96,-0.32,0.71
6.321,2.31,3.55,-1.82,-1.96,-0.32,0.71
6.321,2.52,3.86,-1.8,-1.96,-0.32,0.71
6.322,2.52,3.86,-1.8,-1.96,-0.32,0.71
6.329,2.52,3.86,-1.8,-2.12,-0.3,0.89
6.33,2.52,3.86,-1.8,-2.12,-0.3,0.89
6.33,2.63,4.13,-1.84,-2.12,-0.3,0.89
6.331,2.63,4.13,-1.84,-2.12,-0.3,0.89
6.339,2.63,4.13,-1.84,-2.24,-0.29,0.65
6.34,2.63,4.13,-1.84,-2.24,-0.29,0.65
6.34,2.58,4.36,-1.97,-2.24,-0.29,0.65
6.341,2.58,4.36,-1.97,-2.24,-0.29,0.65
6.352,2.58,4.36,-1.97,-2.35,-0.03,0.03
6.353,2.58,4.36,-1.97,-2.35,-0.03,0.03
6.354,2.44,4.49,-2.2,-2.35,-0.03,0.03
6.354,2.44,4.49,-2.2,-2.35,-0.03,0.03
6.357,2.44,4.49,-2.2,-2.47,0.4,-0.42
6.358,2.44,4.49,-2.2,-2.47,0.4,-0.42
6.359,2.24,4.51,-2.45,-2.47,0.4,-0.42
6.359,2.24,4.51,-2.45,-2.47,0.4,-0.42
6.367,2.24,4.51,-2.45,-2.6,0.61,-0.52
6.368,2.24,4.51,-2.45,-2.6,0.61,-0.52
6.368,1.95,4.48,-2.64,-2.6,0.61,-0.52
6.368,1.95,4.48,-2.64,-2.6,0.61,-0.52
6.377,1.95,4.48,-2.64,-2.74,0.64,-0.37
6.378,1.95,4.48,-2.64,-2.74,0.64,-0.37
6.378,1.67,4.37,-2.77,-2.74,0.64,-0.37
6.379,1.67,4.37,-2.77,-2.74,0.64,-0.37
6.386,1.67,4.37,-2.77,-2.86,0.68,-0.25
6.387,1.67,4.37,-2.77,-2.86,0.68,-0.25
6.388,1.38,4.23,-2.82,-2.86,0.68,-0.25
6.388,1.38,4.23,-2.82,-2.86,0.68,-0.25
6.395,1.38,4.23,-2.82,-2.92,0.68,-0.11
6.396,1.38,4.23,-2.82,-2.92,0.68,-0.11
6.396,1.14,4.08,-2.8,-2.92,0.68,-0.11
6.397,1.14,4.08,-2.8,-2.92,0.68,-0.11
6.405,1.14,4.08,-2.8,-2.88,0.6,0.07
6.407,1.14,4.08,-2.8,-2.88,0.6,0.07
6.407,0.98,3.93,-2.76,-2.88,0.6,0.07
6.408,0.98,3.93,-2.76,-2.88,0.6,0.07
6.416,0.98,3.93,-2.76,-2.88,0.6,0.07
6.417,0.98,3.93,-2.76,-2.88,0.6,0.07
6.417,0.98,3.93,-2.76,-2.88,0.6,0.07
6.418,0.98,3.93,-2.76,-2.88,0.6,0.07
6.424,0.98,3.93,-2.76,-2.49,0.23,0.28
6.424,0.98,3.93,-2.76,-2.49,0.23,0.28
6.425,0.91,3.78,-2.44,-2.49,0.23,0.28
6.425,0.91,3.78,-2.44,-2.49,0.23,0.28
6.433,0.91,3.78,-2.44,-2.49,0.23,0.28
6.434,0.91,3.78,-2.44,-2.49,0.23,0.28
6.434,0.91,3.78,-2.44,-2.49,0.23,0.28
6.435,0.91,3.78,-2.44,-2.49,0.23,0.28
6.443,0.91,3.78,-2.44,-2.2,0.03,0.28
6.444,0.91,3.78,-2.44,-2.2,0.03,0.28
6.444,1.24,3.98,-2.42,-2.2,0.03,0.28
6.445,1.24,3.98,-2.42,-2.2,0.03,0.28
6.454,1.24,3.98,-2.42,-1.91,-0.1,0.24
6.456,1.24,3.98,-2.42,-1.91,-0.1,0.24
6.456,1.48,4.07,-2.5,-1.91,-0.1,0.24
6.457,1.48,4.07,-2.5,-1.91,-0.1,0.24
6.463,1.48,4.07,-2.5,-1.67,-0.15,0.17
6.463,1.48,4.07,-2.5,-1.67,-0.15,0.17
6.464,1.78,4.14,-2.55,-1.67,-0.15,0.17
6.464,1.78,4.14,-2.55,-1.67,-0.15,0.17
6.476,1.78,4.14,-2.55,-1.52,-0.1,0.06
6.476,1.78,4.14,-2.55,-1.52,-0.1,0.06
6.477,2.09,4.19,-2.47,-1.52,-0.1,0.06
6.477,2.09,4.19,-2.47,-1.52,-0.1,0.06
6.483,2.09,4.19,-2.47,-1.45,0.04,-0.07
6.484,2.09,4.19,-2.47,-1.45,0.04,-0.07
6.484,2.4,4.21,-2.25,-1.45,0.04,-0.07
6.484,2.4,4.21,-2.25,-1.45,0.04,-0.07
6.491,2.4,4.21,-2.25,-1.42,0.24,-0.23
6.492,2.4,4.21,-2.25,-1.42,0.24,-0.23
6.493,2.61,4.24,-1.95,-1.42,0.24,-0.23
6.493,2.61,4.24,-1.95,-1.42,0.24,-0.23
6.502,2.61,4.24,-1.95,-1.4,0.47,-0.4
6.503,2.61,4.24,-1.95,-1.4,0.47,-0.4
6.503,2.7,4.28,-1.67,-1.4,0.47,-0.4
6.504,2.7,4.28,-1.67,-1.4,0.47,-0.4
6.511,2.7,4.28,-1.67,-1.35,0.71,-0.59
6.512,2.7,4.28,-1.67,-1.35,0.71,-0.59
6.512,2.72,4.33,-1.47,-1.35,0.71,-0.59
6.513,2.72,4.33,-1.47,-1.35,0.71,-0.59
6.519,2.72,4.33,-1.47,-1.31,0.95,-0.57
6.52,2.72,4.33,-1.47,-1.31,0.95,-0.57
6.521,2.66,4.42,-1.4,-1.31,0.95,-0.57
6.522,2.66,4.42,-1.4,-1.31,0.95,-0.57
6.528,2.66,4.42,-1.4,-1.27,1.15,-0.54
6.529,2.66,4.42,-1.4,-1.27,1.15,-0.54
6.529,2.57,4.47,-1.47,-1.27,1.15,-0.54
6.53,2.57,4.47,-1.47,-1.27,1.15,-0.54
6.538,2.57,4.47,-1.47,-1.26,1.29,-0.66
6.539,2.57,4.47,-1.47,-1.26,1.29,-0.66
6.539,2.51,4.44,-1.66,-1.26,1.29,-0.66
6.54,2.51,4.44,-1.66,-1.26,1.29,-0.66
6.553,2.51,4.44,-1.66,-1.28,1.34,-0.74
6.554,2.51,4.44,-1.66,-1.28,1.34,-0.74
6.554,2.45,4.34,-1.93,-1.28,1.34,-0.74
6.555,2.45,4.34,-1.93,-1.28,1.34,-0.74
6.557,2.45,4.34,-1.93,-1.33,1.31,-0.78
6.558,2.45,4.34,-1.93,-1.33,1.31,-0.78
6.559,2.34,4.13,-2.14,-1.33,1.31,-0.78
6.559,2.34,4.13,-2.14,-1.33,1.31,-0.78
6.567,2.34,4.13,-2.14,-1.39,1.2,-0.77
6.568,2.34,4.13,-2.14,-1.39,1.2,-0.77
6.568,2.19,3.84,-2.15,-1.39,1.2,-0.77
6.568,2.19,3.84,-2.15,-1.39,1.2,-0.77
6.576,2.19,3.84,-2.15,-1.42,1.03,-0.73
6.577,2.19,3.84,-2.15,-1.42,1.03,-0.73
6.577,1.9,3.53,-1.91,-1.42,1.03,-0.73
6.578,1.9,3.53,-1.91,-1.42,1.03,-0.73
6.586,1.9,3.53,-1.91,-1.39,0.83,-0.68
6.587,1.9,3.53,-1.91,-1.39,0.83,-0.68
6.587,1.52,3.19,-1.62,-1.39,0.83,-0.68
6.588,1.52,3.19,-1.62,-1.39,0.83,-0.68
6.596,1.52,3.19,-1.62,-1.28,0.62,-0.6
6.596,1.52,3.19,-1.62,-1.28,0.62,-0.6
6.597,1.13,2.9,-1.38,-1.28,0.62,-0.6
6.597,1.13,2.9,-1.38,-1.28,0.62,-0.6
6.605,1.13,2.9,-1.38,-1.1,0.41,-0.51
6.607,1.13,2.9,-1.38,-1.1,0.41,-0.51
6.608,0.78,2.71,-1.29,-1.1,0.41,-0.51
6.608,0.78,2.71,-1.29,-1.1,0.41,-0.51
6.614,0.78,2.71,-1.29,-1.1,0.41,-0.51
6.615,0.78,2.71,-1.29,-1.1,0.41,-0.51
6.616,0.78,2.71,-1.29,-1.1,0.41,-0.51
6.616,0.78,2.71,-1.29,-1.1,0.41,-0.51
6.624,0.78,2.71,-1.29,-0.87,0.19,-0.42
6.625,0.78,2.71,-1.29,-0.87,0.19,-0.42
6.625,0.52,2.75,-1.57,-0.87,0.19,-0.42
6.626,0.52,2.75,-1.57,-0.87,0.19,-0.42
6.635,0.52,2.75,-1.57,-0.48,-0.26,-0.22
6.637,0.52,2.75,-1.57,-0.48,-0.26,-0.22
6.637,0.49,2.67,-1.55,-0.48,-0.26,-0.22
6.638,0.49,2.67,-1.55,-0.48,-0.26,-0.22
6.643,0.49,2.67,-1.55,-0.48,-0.26,-0.22
6.644,0.49,2.67,-1.55,-0.48,-0.26,-0.22
6.644,0.49,2.67,-1.55,-0.48,-0.26,-0.22
6.645,0.49,2.67,-1.55,-0.48,-0.26,-0.22
6.654,0.49,2.67,-1.55,-0.42,-0.45,-0.13
6.655,0.49,2.67,-1.55,-0.42,-0.45,-0.13
6.656,0.88,2.97,-1.66,-0.42,-0.45,-0.13
6.657,0.88,2.97,-1.66,-0.42,-0.45,-0.13
6.663,0.88,2.97,-1.66,-0.44,-0.58,-0.06
6.665,0.88,2.97,-1.66,-0.44,-0.58,-0.06
6.665,1.1,2.98,-1.53,-0.44,-0.58,-0.06
6.666,1.1,2.98,-1.53,-0.44,-0.58,-0.06
6.671,1.1,2.98,-1.53,-0.51,-0.61,-0.03
6.674,1.1,2.98,-1.53,-0.51,-0.61,-0.03
6.675,1.28,2.92,-1.31,-0.51,-0.61,-0.03
6.675,1.28,2.92,-1.31,-0.51,-0.61,-0.03
6.681,1.28,2.92,-1.31,-0.62,-0.54,-0.05
6.683,1.28,2.92,-1.31,-0.62,-0.54,-0.05
6.683,1.38,2.79,-0.96,-0.62,-0.54,-0.05
6.684,1.38,2.79,-0.96,-0.62,-0.54,-0.05
6.69,1.38,2.79,-0.96,-0.74,-0.38,-0.09
6.691,1.38,2.79,-0.96,-0.74,-0.38,-0.09
6.691,1.42,2.62,-0.54,-0.74,-0.38,-0.09
6.691,1.42,2.62,-0.54,-0.74,-0.38,-0.09
6.7,1.42,2.62,-0.54,-0.83,-0.17,-0.13
6.701,1.42,2.62,-0.54,-0.83,-0.17,-0.13
6.701,1.42,2.43,-0.13,-0.83,-0.17,-0.13
6.701,1.42,2.43,-0.13,-0.83,-0.17,-0.13
6.71,1.42,2.43,-0.13,-0.86,0.07,-0.15
6.711,1.42,2.43,-0.13,-0.86,0.07,-0.15
6.711,1.47,2.24,0.19,-0.86,0.07,-0.15
6.711,1.47,2.24,0.19,-0.86,0.07,-0.15
6.719,1.47,2.24,0.19,-0.81,0.29,-0.18
6.72,1.47,2.24,0.19,-0.81,0.29,-0.18
6.721,1.59,2.05,0.37,-0.81,0.29,-0.18
6.721,1.59,2.05,0.37,-0.81,0.29,-0.18
6.728,1.59,2.05,0.37,-0.69,0.5,-0.27
6.729,1.59,2.05,0.37,-0.69,0.5,-0.27
6.729,1.75,1.87,0.43,-0.69,0.5,-0.27
6.73,1.75,1.87,0.43,-0.69,0.5,-0.27
6.739,1.75,1.87,0.43,-0.5,0.67,-0.41
6.74,1.75,1.87,0.43,-0.5,0.67,-0.41
6.741,1.88,1.74,0.45,-0.5,0.67,-0.41
6.741,1.88,1.74,0.45,-0.5,0.67,-0.41
6.752,1.88,1.74,0.45,-0.29,0.82,-0.56
6.753,1.88,1.74,0.45,-0.29,0.82,-0.56
6.753,1.9,1.61,0.48,-0.29,0.82,-0.56
6.754,1.9,1.61,0.48,-0.29,0.82,-0.56
6.757,1.9,1.61,0.48,-0.09,0.95,-0.72
6.758,1.9,1.61,0.48,-0.09,0.95,-0.72
6.759,1.79,1.49,0.54,-0.09,0.95,-0.72
6.759,1.79,1.49,0.54,-0.09,0.95,-0.72
6.766,1.79,1.49,0.54,0.1,1.03,-0.85
6.767,1.79,1.49,0.54,0.1,1.03,-0.85
6.768,1.61,1.39,0.62,0.1,1.03,-0.85
6.768,1.61,1.39,0.62,0.1,1.03,-0.85
6.776,1.61,1.39,0.62,0.26,1.06,-0.95
6.777,1.61,1.39,0.62,0.26,1.06,-0.95
6.777,1.42,1.29,0.62,0.26,1.06,-0.95
6.778,1.42,1.29,0.62,0.26,1.06,-0.95
6.786,1.42,1.29,0.62,0.37,1.04,-1
6.787,1.42,1.29,0.62,0.37,1.04,-1
6.787,1.24,1.23,0.56,0.37,1.04,-1
6.788,1.24,1.23,0.56,0.37,1.04,-1
6.796,1.24,1.23,0.56,0.43,0.97,-0.98
6.797,1.24,1.23,0.56,0.43,0.97,-0.98
6.797,1.12,1.18,0.42,0.43,0.97,-0.98
6.798,1.12,1.18,0.42,0.43,0.97,-0.98
6.805,1.12,1.18,0.42,0.45,0.86,-0.91
6.807,1.12,1.18,0.42,0.45,0.86,-0.91
6.807,1.04,1.1,0.25,0.45,0.86,-0.91
6.808,1.04,1.1,0.25,0.45,0.86,-0.91
6.815,1.04,1.1,0.25,0.42,0.71,-0.81
6.816,1.04,1.1,0.25,0.42,0.71,-0.81
6.816,0.97,1.01,0.1,0.42,0.71,-0.81
6.817,0.97,1.01,0.1,0.42,0.71,-0.81
6.824,0.97,1.01,0.1,0.36,0.55,-0.7
6.825,0.97,1.01,0.1,0.36,0.55,-0.7
6.826,0.85,0.92,-0.01,0.36,0.55,-0.7
6.826,0.85,0.92,-0.01,0.36,0.55,-0.7
6.833,0.85,0.92,-0.01,0.36,0.55,-0.7
6.834,0.85,0.92,-0.01,0.36,0.55,-0.7
6.835,0.85,0.92,-0.01,0.36,0.55,-0.7
6.835,0.85,0.92,-0.01,0.36,0.55,-0.7
6.843,0.85,0.92,-0.01,0.29,0.38,-0.58
6.844,0.85,0.92,-0.01,0.29,0.38,-0.58
6.845,0.56,0.88,-0.01,0.29,0.38,-0.58
6.845,0.56,0.88,-0.01,0.29,0.38,-0.58
6.854,0.56,0.88,-0.01,0.21,0.22,-0.46
6.855,0.56,0.88,-0.01,0.21,0.22,-0.46
6.856,0.35,0.89,0.03,0.21,0.22,-0.46
6.857,0.35,0.89,0.03,0.21,0.22,-0.46
6.862,0.35,0.89,0.03,0.13,0.06,-0.35
6.862,0.35,0.89,0.03,0.13,0.06,-0.35
6.863,0.23,0.9,0.08,0.13,0.06,-0.35
6.863,0.23,0.9,0.08,0.13,0.06,-0.35
6.872,0.23,0.9,0.08,0.07,-0.1,-0.27
6.873,0.23,0.9,0.08,0.07,-0.1,-0.27
6.874,0.17,0.93,0.1,0.07,-0.1,-0.27
6.874,0.17,0.93,0.1,0.07,-0.1,-0.27
6.881,0.17,0.93,0.1,0.01,-0.23,-0.21
6.882,0.17,0.93,0.1,0.01,-0.23,-0.21
6.883,0.16,0.96,0.12,0.01,-0.23,-0.21
6.883,0.16,0.96,0.12,0.01,-0.23,-0.21
6.891,0.16,0.96,0.12,-0.05,-0.33,-0.16
6.891,0.16,0.96,0.12,-0.05,-0.33,-0.16
6.892,0.19,0.95,0.13,-0.05,-0.33,-0.16
6.892,0.19,0.95,0.13,-0.05,-0.33,-0.16
6.901,0.19,0.95,0.13,-0.13,-0.39,-0.12
6.902,0.19,0.95,0.13,-0.13,-0.39,-0.12
6.902,0.19,0.9,0.17,-0.13,-0.39,-0.12
6.902,0.19,0.9,0.17,-0.13,-0.39,-0.12
6.911,0.19,0.9,0.17,-0.21,-0.39,-0.09
6.911,0.19,0.9,0.17,-0.21,-0.39,-0.09
6.912,0.16,0.75,0.23,-0.21,-0.39,-0.09
6.912,0.16,0.75,0.23,-0.21,-0.39,-0.09
6.92,0.16,0.75,0.23,-0.27,-0.37,-0.07
6.921,0.16,0.75,0.23,-0.27,-0.37,-0.07
6.921,0.17,0.64,0.25,-0.27,-0.37,-0.07
6.922,0.17,0.64,0.25,-0.27,-0.37,-0.07
6.93,0.17,0.64,0.25,-0.29,-0.32,-0.07
6.93,0.17,0.64,0.25,-0.29,-0.32,-0.07
6.931,0.19,0.54,0.25,-0.29,-0.32,-0.07
6.931,0.19,0.54,0.25,-0.29,-0.32,-0.07
6.939,0.19,0.54,0.25,-0.26,-0.27,-0.08
6.939,0.19,0.54,0.25,-0.26,-0.27,-0.08
6.94,0.23,0.5,0.21,-0.26,-0.27,-0.08
6.941,0.23,0.5,0.21,-0.26,-0.27,-0.08
6.952,0.23,0.5,0.21,-0.21,-0.21,-0.09
6.953,0.23,0.5,0.21,-0.21,-0.21,-0.09
6.954,0.31,0.49,0.19,-0.21,-0.21,-0.09
6.954,0.31,0.49,0.19,-0.21,-0.21,-0.09
6.957,0.31,0.49,0.19,-0.13,-0.15,-0.12
6.958,0.31,0.49,0.19,-0.13,-0.15,-0.12
6.959,0.34,0.42,0.28,-0.13,-0.15,-0.12
6.959,0.34,0.42,0.28,-0.13,-0.15,-0.12
6.969,0.34,0.42,0.28,-0.05,-0.09,-0.17
6.97,0.34,0.42,0.28,-0.05,-0.09,-0.17
6.97,0.34,0.35,0.43,-0.05,-0.09,-0.17
6.97,0.34,0.35,0.43,-0.05,-0.09,-0.17
6.976,0.34,0.35,0.43,0.03,-0.02,-0.23
6.978,0.34,0.35,0.43,0.03,-0.02,-0.23
6.978,0.31,0.27,0.58,0.03,-0.02,-0.23
6.979,0.31,0.27,0.58,0.03,-0.02,-0.23
6.987,0.31,0.27,0.58,0.11,0.05,-0.3
6.988,0.31,0.27,0.58,0.11,0.05,-0.3
6.988,0.19,0.22,0.66,0.11,0.05,-0.3
6.988,0.19,0.22,0.66,0.11,0.05,-0.3
6.995,0.19,0.22,0.66,0.2,0.12,-0.36
6.996,0.19,0.22,0.66,0.2,0.12,-0.36
6.997,-0.02,0.22,0.58,0.2,0.12,-0.36
6.997,-0.02,0.22,0.58,0.2,0.12,-0.36
7.006,-0.02,0.22,0.58,0.28,0.17,-0.41
7.007,-0.02,0.22,0.58,0.28,0.17,-0.41
7.007,-0.29,0.27,0.35,0.28,0.17,-0.41
7.008,-0.29,0.27,0.35,0.28,0.17,-0.41
7.015,-0.29,0.27,0.35,0.34,0.17,-0.44
7.015,-0.29,0.27,0.35,0.34,0.17,-0.44
7.015,-0.59,0.34,0.04,0.34,0.17,-0.44
7.016,-0.59,0.34,0.04,0.34,0.17,-0.44
7.024,-0.59,0.34,0.04,0.35,0.1,-0.42
7.025,-0.59,0.34,0.04,0.35,0.1,-0.42
7.025,-0.81,0.37,-0.27,0.35,0.1,-0.42
7.026,-0.81,0.37,-0.27,0.35,0.1,-0.42
7.034,-0.81,0.37,-0.27,0.35,0.1,-0.42
7.034,-0.81,0.37,-0.27,0.35,0.1,-0.42
7.035,-0.81,0.37,-0.27,0.35,0.1,-0.42
7.035,-0.81,0.37,-0.27,0.35,0.1,-0.42
7.044,-0.81,0.37,-0.27,0.3,-0.05,-0.35
7.044,-0.81,0.37,-0.27,0.3,-0.05,-0.35
7.045,-0.77,0.26,-0.58,0.3,-0.05,-0.35
7.045,-0.77,0.26,-0.58,0.3,-0.05,-0.35
7.053,-0.77,0.26,-0.58,0.2,-0.26,-0.26
7.054,-0.77,0.26,-0.58,0.2,-0.26,-0.26
7.055,-0.55,0.08,-0.55,0.2,-0.26,-0.26
7.055,-0.55,0.08,-0.55,0.2,-0.26,-0.26
7.062,-0.55,0.08,-0.55,0.1,-0.47,-0.17
7.063,-0.55,0.08,-0.55,0.1,-0.47,-0.17
7.063,-0.22,-0.11,-0.42,0.1,-0.47,-0.17
7.064,-0.22,-0.11,-0.42,0.1,-0.47,-0.17
7.072,-0.22,-0.11,-0.42,0.04,-0.62,-0.11
7.073,-0.22,-0.11,-0.42,0.04,-0.62,-0.11
7.074,0.15,-0.27,-0.25,0.04,-0.62,-0.11
7.074,0.15,-0.27,-0.25,0.04,-0.62,-0.11
7.093,0.15,-0.27,-0.25,0.08,-0.66,-0.11
7.094,0.15,-0.27,-0.25,0.08,-0.66,-0.11
7.094,0.49,-0.4,-0.23,0.08,-0.66,-0.11
7.094,0.49,-0.4,-0.23,0.08,-0.66,-0.11
7.104,0.49,-0.4,-0.23,0.55,-0.19,-0.49
7.105,0.49,-0.4,-0.23,0.55,-0.19,-0.49
7.105,0.49,-0.4,-0.23,0.55,-0.19,-0.49
7.105,0.49,-0.4,-0.23,0.55,-0.19,-0.49
7.106,0.82,-0.5,-0.45,0.55,-0.19,-0.49
7.106,0.82,-0.5,-0.45,0.55,-0.19,-0.49
7.106,0.82,-0.5,-0.45,0.55,-0.19,-0.49
7.107,0.82,-0.5,-0.45,0.55,-0.19,-0.49
7.11,0.82,-0.5,-0.45,0.55,-0.19,-0.49
7.11,0.82,-0.5,-0.45,0.55,-0.19,-0.49
7.111,0.82,-0.5,-0.45,0.55,-0.19,-0.49
7.111,0.82,-0.5,-0.45,0.55,-0.19,-0.49
7.119,0.82,-0.5,-0.45,0.7,0,-0.47
7.12,0.82,-0.5,-0.45,0.7,0,-0.47
7.121,1.21,-1.24,-2.74,0.7,0,-0.47
7.121,1.21,-1.24,-2.74,0.7,0,-0.47
7.129,1.21,-1.24,-2.74,0.8,0.11,-0.42
7.129,1.21,-1.24,-2.74,0.8,0.11,-0.42
7.13,1.18,-1.64,-2.92,0.8,0.11,-0.42
7.13,1.18,-1.64,-2.92,0.8,0.11,-0.42
7.139,1.18,-1.64,-2.92,0.84,0.1,-0.47
7.14,1.18,-1.64,-2.92,0.84,0.1,-0.47
7.141,1.03,-1.94,-2.83,0.84,0.1,-0.47
7.141,1.03,-1.94,-2.83,0.84,0.1,-0.47
7.152,1.03,-1.94,-2.83,0.88,-0.01,-0.42
7.154,1.03,-1.94,-2.83,0.88,-0.01,-0.42
7.154,0.77,-2.01,-2.49,0.88,-0.01,-0.42
7.155,0.77,-2.01,-2.49,0.88,-0.01,-0.42
7.158,0.77,-2.01,-2.49,0.95,-0.18,-0.33
7.159,0.77,-2.01,-2.49,0.95,-0.18,-0.33
7.159,0.39,-1.84,-2.04,0.95,-0.18,-0.33
7.16,0.39,-1.84,-2.04,0.95,-0.18,-0.33
7.167,0.39,-1.84,-2.04,1.03,-0.33,-0.26
7.168,0.39,-1.84,-2.04,1.03,-0.33,-0.26
7.168,-0.1,-1.46,-1.61,1.03,-0.33,-0.26
7.168,-0.1,-1.46,-1.61,1.03,-0.33,-0.26
7.176,-0.1,-1.46,-1.61,1.09,-0.45,-0.21
7.177,-0.1,-1.46,-1.61,1.09,-0.45,-0.21
7.177,-0.61,-1,-1.31,1.09,-0.45,-0.21
7.178,-0.61,-1,-1.31,1.09,-0.45,-0.21
7.186,-0.61,-1,-1.31,1.07,-0.55,-0.17
7.187,-0.61,-1,-1.31,1.07,-0.55,-0.17
7.188,-1.09,-0.51,-1.17,1.07,-0.55,-0.17
7.188,-1.09,-0.51,-1.17,1.07,-0.55,-0.17
7.195,-1.09,-0.51,-1.17,0.95,-0.65,-0.12
7.196,-1.09,-0.51,-1.17,0.95,-0.65,-0.12
7.196,-1.5,-0.05,-1.14,0.95,-0.65,-0.12
7.197,-1.5,-0.05,-1.14,0.95,-0.65,-0.12
7.205,-1.5,-0.05,-1.14,0.73,-0.76,-0.06
7.207,-1.5,-0.05,-1.14,0.73,-0.76,-0.06
7.207,-1.79,0.34,-1.19,0.73,-0.76,-0.06
7.208,-1.79,0.34,-1.19,0.73,-0.76,-0.06
7.215,-1.79,0.34,-1.19,0.42,-0.9,-0.01
7.215,-1.79,0.34,-1.19,0.42,-0.9,-0.01
7.216,-1.91,0.61,-1.25,0.42,-0.9,-0.01
7.216,-1.91,0.61,-1.25,0.42,-0.9,-0.01
7.224,-1.91,0.61,-1.25,0.42,-0.9,-0.01
7.225,-1.91,0.61,-1.25,0.42,-0.9,-0.01
7.225,-1.91,0.61,-1.25,0.42,-0.9,-0.01
7.225,-1.91,0.61,-1.25,0.42,-0.9,-0.01
7.234,-1.91,0.61,-1.25,0.07,-1.07,0.02
7.234,-1.91,0.61,-1.25,0.07,-1.07,0.02
7.235,-1.82,0.6,-1.27,0.07,-1.07,0.02
7.235,-1.82,0.6,-1.27,0.07,-1.07,0.02
7.243,-1.82,0.6,-1.27,-0.28,-1.22,0.01
7.244,-1.82,0.6,-1.27,-0.28,-1.22,0.01
7.245,-1.63,0.41,-1.19,-0.28,-1.22,0.01
7.245,-1.63,0.41,-1.19,-0.28,-1.22,0.01
7.254,-1.63,0.41,-1.19,-0.57,-1.32,0
7.254,-1.63,0.41,-1.19,-0.57,-1.32,0
7.255,-1.4,0.21,-1.1,-0.57,-1.32,0
7.256,-1.4,0.21,-1.1,-0.57,-1.32,0
7.262,-1.4,0.21,-1.1,-0.76,-1.33,-0.04
7.263,-1.4,0.21,-1.1,-0.76,-1.33,-0.04
7.263,-1.15,0.07,-1.05,-0.76,-1.33,-0.04
7.264,-1.15,0.07,-1.05,-0.76,-1.33,-0.04
7.272,-1.15,0.07,-1.05,-0.8,-1.27,-0.1
7.274,-1.15,0.07,-1.05,-0.8,-1.27,-0.1
7.274,-0.97,0.04,-1.08,-0.8,-1.27,-0.1
7.275,-0.97,0.04,-1.08,-0.8,-1.27,-0.1
7.295,-0.97,0.04,-1.08,-0.73,-1.13,-0.19
7.295,-0.97,0.04,-1.08,-0.73,-1.13,-0.19
7.296,-0.85,0.09,-1.25,-0.73,-1.13,-0.19
7.296,-0.85,0.09,-1.25,-0.73,-1.13,-0.19
7.296,-0.85,0.09,-1.25,-0.6,-0.95,-0.32
7.296,-0.85,0.09,-1.25,-0.6,-0.95,-0.32
7.297,-0.81,0.2,-1.5,-0.6,-0.95,-0.32
7.297,-0.81,0.2,-1.5,-0.6,-0.95,-0.32
7.302,-0.81,0.2,-1.5,-0.46,-0.77,-0.45
7.303,-0.81,0.2,-1.5,-0.46,-0.77,-0.45
7.304,-0.87,0.34,-1.76,-0.46,-0.77,-0.45
7.304,-0.87,0.34,-1.76,-0.46,-0.77,-0.45
7.31,-0.87,0.34,-1.76,-0.36,-0.63,-0.55
7.311,-0.87,0.34,-1.76,-0.36,-0.63,-0.55
7.311,-0.96,0.51,-1.98,-0.36,-0.63,-0.55
7.311,-0.96,0.51,-1.98,-0.36,-0.63,-0.55
7.319,-0.96,0.51,-1.98,-0.33,-0.54,-0.6
7.321,-0.96,0.51,-1.98,-0.33,-0.54,-0.6
7.321,-1.13,0.7,-2.07,-0.33,-0.54,-0.6
7.322,-1.13,0.7,-2.07,-0.33,-0.54,-0.6
7.329,-1.13,0.7,-2.07,-0.36,-0.51,-0.6
7.33,-1.13,0.7,-2.07,-0.36,-0.51,-0.6
7.33,-1.37,0.93,-2.01,-0.36,-0.51,-0.6
7.331,-1.37,0.93,-2.01,-0.36,-0.51,-0.6
7.338,-1.37,0.93,-2.01,-0.45,-0.53,-0.54
7.339,-1.37,0.93,-2.01,-0.45,-0.53,-0.54
7.34,-1.61,1.16,-1.85,-0.45,-0.53,-0.54
7.34,-1.61,1.16,-1.85,-0.45,-0.53,-0.54
7.351,-1.61,1.16,-1.85,-0.59,-0.59,-0.43
7.352,-1.61,1.16,-1.85,-0.59,-0.59,-0.43
7.353,-1.85,1.39,-1.57,-0.59,-0.59,-0.43
7.353,-1.85,1.39,-1.57,-0.59,-0.59,-0.43
7.357,-1.85,1.39,-1.57,-0.73,-0.68,-0.33
7.358,-1.85,1.39,-1.57,-0.73,-0.68,-0.33
7.359,-2.03,1.6,-1.29,-0.73,-0.68,-0.33
7.359,-2.03,1.6,-1.29,-0.73,-0.68,-0.33
7.366,-2.03,1.6,-1.29,-0.86,-0.78,-0.26
7.367,-2.03,1.6,-1.29,-0.86,-0.78,-0.26
7.368,-2.1,1.75,-1.07,-0.86,-0.78,-0.26
7.368,-2.1,1.75,-1.07,-0.86,-0.78,-0.26
7.377,-2.1,1.75,-1.07,-0.98,-0.88,-0.24
7.377,-2.1,1.75,-1.07,-0.98,-0.88,-0.24
7.378,-2.14,1.87,-0.88,-0.98,-0.88,-0.24
7.378,-2.14,1.87,-0.88,-0.98,-0.88,-0.24
7.386,-2.14,1.87,-0.88,-1.08,-0.96,-0.23
7.387,-2.14,1.87,-0.88,-1.08,-0.96,-0.23
7.388,-2.15,2.03,-0.77,-1.08,-0.96,-0.23
7.388,-2.15,2.03,-0.77,-1.08,-0.96,-0.23
7.395,-2.15,2.03,-0.77,-1.16,-1.01,-0.21
7.396,-2.15,2.03,-0.77,-1.16,-1.01,-0.21
7.397,-2.17,2.22,-0.71,-1.16,-1.01,-0.21
7.397,-2.17,2.22,-0.71,-1.16,-1.01,-0.21
7.406,-2.17,2.22,-0.71,-1.24,-1.02,-0.18
7.408,-2.17,2.22,-0.71,-1.24,-1.02,-0.18
7.408,-2.23,2.45,-0.68,-1.24,-1.02,-0.18
7.409,-2.23,2.45,-0.68,-1.24,-1.02,-0.18
7.415,-2.23,2.45,-0.68,-1.31,-1.01,-0.17
7.415,-2.23,2.45,-0.68,-1.31,-1.01,-0.17
7.416,-2.29,2.75,-0.66,-1.31,-1.01,-0.17
7.416,-2.29,2.75,-0.66,-1.31,-1.01,-0.17
7.424,-2.29,2.75,-0.66,-1.31,-1.01,-0.17
7.424,-2.29,2.75,-0.66,-1.31,-1.01,-0.17
7.425,-2.29,2.75,-0.66,-1.31,-1.01,-0.17
7.425,-2.29,2.75,-0.66,-1.31,-1.01,-0.17
7.433,-2.29,2.75,-0.66,-1.39,-1,-0.18
7.434,-2.29,2.75,-0.66,-1.39,-1,-0.18
7.434,-2.36,3.19,-0.28,-1.39,-1,-0.18
7.435,-2.36,3.19,-0.28,-1.39,-1,-0.18
7.443,-2.36,3.19,-0.28,-1.48,-0.98,-0.22
7.444,-2.36,3.19,-0.28,-1.48,-0.98,-0.22
7.445,-2.25,3.32,0.15,-1.48,-0.98,-0.22
7.445,-2.25,3.32,0.15,-1.48,-0.98,-0.22
7.453,-2.25,3.32,0.15,-1.61,-0.96,-0.24
7.454,-2.25,3.32,0.15,-1.61,-0.96,-0.24
7.455,-2.04,3.39,0.6,-1.61,-0.96,-0.24
7.456,-2.04,3.39,0.6,-1.61,-0.96,-0.24
7.462,-2.04,3.39,0.6,-1.77,-0.91,-0.24
7.462,-2.04,3.39,0.6,-1.77,-0.91,-0.24
7.463,-1.78,3.44,0.88,-1.77,-0.91,-0.24
7.463,-1.78,3.44,0.88,-1.77,-0.91,-0.24
7.472,-1.78,3.44,0.88,-1.91,-0.8,-0.22
7.473,-1.78,3.44,0.88,-1.91,-0.8,-0.22
7.473,-1.53,3.49,0.94,-1.91,-0.8,-0.22
7.474,-1.53,3.49,0.94,-1.91,-0.8,-0.22
7.486,-1.53,3.49,0.94,-2,-0.64,-0.21
7.487,-1.53,3.49,0.94,-2,-0.64,-0.21
7.488,-1.25,3.53,0.95,-2,-0.64,-0.21
7.488,-1.25,3.53,0.95,-2,-0.64,-0.21
7.49,-1.25,3.53,0.95,-2.04,-0.42,-0.22
7.491,-1.25,3.53,0.95,-2.04,-0.42,-0.22
7.491,-0.96,3.6,0.94,-2.04,-0.42,-0.22
7.491,-0.96,3.6,0.94,-2.04,-0.42,-0.22
7.5,-0.96,3.6,0.94,-2.03,-0.16,-0.26
7.501,-0.96,3.6,0.94,-2.03,-0.16,-0.26
7.501,-0.68,3.72,1.03,-2.03,-0.16,-0.26
7.502,-0.68,3.72,1.03,-2.03,-0.16,-0.26
7.51,-0.68,3.72,1.03,-1.98,0.1,-0.31
7.511,-0.42,3.86,1.09,-1.98,0.1,-0.31
7.511,-0.42,3.86,1.09,-1.98,0.1,-0.31
7.512,-0.42,3.86,1.09,-1.98,0.1,-0.31
7.519,-0.42,3.86,1.09,-1.92,0.37,-0.35
7.52,-0.42,3.86,1.09,-1.92,0.37,-0.35
7.521,-0.24,4.02,1.15,-1.92,0.37,-0.35
7.521,-0.24,4.02,1.15,-1.92,0.37,-0.35
7.529,-0.24,4.02,1.15,-1.88,0.61,-0.38
7.529,-0.24,4.02,1.15,-1.88,0.61,-0.38
7.53,-0.16,4.17,1.26,-1.88,0.61,-0.38
7.53,-0.16,4.17,1.26,-1.88,0.61,-0.38
7.539,-0.16,4.17,1.26,-1.85,0.82,-0.4
7.539,-0.16,4.17,1.26,-1.85,0.82,-0.4
7.54,-0.2,4.31,1.39,-1.85,0.82,-0.4
7.54,-0.2,4.31,1.39,-1.85,0.82,-0.4
7.552,-0.2,4.31,1.39,-1.85,0.97,-0.41
7.553,-0.2,4.31,1.39,-1.85,0.97,-0.41
7.554,-0.4,4.39,1.67,-1.85,0.97,-0.41
7.554,-0.4,4.39,1.67,-1.85,0.97,-0.41
7.558,-0.4,4.39,1.67,-1.88,1.04,-0.4
7.559,-0.4,4.39,1.67,-1.88,1.04,-0.4
7.559,-0.82,4.44,1.99,-1.88,1.04,-0.4
7.559,-0.82,4.44,1.99,-1.88,1.04,-0.4
7.57,-0.82,4.44,1.99,-1.94,1.01,-0.36
7.57,-0.82,4.44,1.99,-1.94,1.01,-0.36
7.571,-1.4,4.48,2.32,-1.94,1.01,-0.36
7.571,-1.4,4.48,2.32,-1.94,1.01,-0.36
7.577,-1.4,4.48,2.32,-2.04,0.84,-0.27
7.577,-1.4,4.48,2.32,-2.04,0.84,-0.27
7.578,-2.89,4.5,2.63,-2.04,0.84,-0.27
7.579,-2.89,4.5,2.63,-2.04,0.84,-0.27
7.586,-2.89,4.5,2.63,-2.18,0.5,-0.14
7.587,-2.89,4.5,2.63,-2.18,0.5,-0.14
7.588,-3.17,4.54,2.88,-2.18,0.5,-0.14
7.588,-3.17,4.54,2.88,-2.18,0.5,-0.14
7.596,-3.17,4.54,2.88,-2.38,-0.08,0.04
7.596,-3.17,4.54,2.88,-2.38,-0.08,0.04
7.597,-3.51,4.62,3.06,-2.38,-0.08,0.04
7.597,-3.51,4.62,3.06,-2.38,-0.08,0.04
7.605,-3.51,4.62,3.06,-2.61,-0.86,0.27
7.606,-3.51,4.62,3.06,-2.61,-0.86,0.27
7.607,-3.84,4.69,3.21,-2.61,-0.86,0.27
7.607,-3.84,4.69,3.21,-2.61,-0.86,0.27
7.614,-3.84,4.69,3.21,-2.61,-0.86,0.27
7.615,-3.84,4.69,3.21,-2.61,-0.86,0.27
7.615,-3.84,4.69,3.21,-2.61,-0.86,0.27
7.616,-3.84,4.69,3.21,-2.61,-0.86,0.27
7.624,-3.84,4.69,3.21,-2.84,-1.71,0.49
7.625,-3.84,4.69,3.21,-2.84,-1.71,0.49
7.625,-4.38,4.91,3.49,-2.84,-1.71,0.49
7.625,-4.38,4.91,3.49,-2.84,-1.71,0.49
7.634,-4.38,4.91,3.49,-3.03,-2.52,0.68
7.635,-4.38,4.91,3.49,-3.03,-2.52,0.68
7.635,-4.56,4.87,3.61,-3.03,-2.52,0.68
7.635,-4.56,4.87,3.61,-3.03,-2.52,0.68
7.644,-4.56,4.87,3.61,-3.19,-3.24,0.81
7.644,-4.56,4.87,3.61,-3.19,-3.24,0.81
7.645,-4.73,4.75,3.62,-3.19,-3.24,0.81
7.645,-4.73,4.75,3.62,-3.19,-3.24,0.81
7.653,-4.73,4.75,3.62,-3.3,-3.87,0.88
7.654,-4.73,4.75,3.62,-3.3,-3.87,0.88
7.654,-4.89,4.55,3.63,-3.3,-3.87,0.88
7.655,-4.89,4.55,3.63,-3.3,-3.87,0.88
7.662,-4.89,4.55,3.63,-3.32,-4.37,0.91
7.662,-4.89,4.55,3.63,-3.32,-4.37,0.91
7.663,-5.14,4.28,3.67,-3.32,-4.37,0.91
7.663,-5.14,4.28,3.67,-3.32,-4.37,0.91
7.671,-5.14,4.28,3.67,-3.22,-4.71,0.87
7.673,-5.14,4.28,3.67,-3.22,-4.71,0.87
7.674,-5.46,4.06,3.77,-3.22,-4.71,0.87
7.675,-5.46,4.06,3.77,-3.22,-4.71,0.87
7.681,-5.46,4.06,3.77,-3,-4.9,0.78
7.681,-5.46,4.06,3.77,-3,-4.9,0.78
7.681,-5.76,4.06,3.99,-3,-4.9,0.78
7.682,-5.76,4.06,3.99,-3,-4.9,0.78
7.69,-5.76,4.06,3.99,-2.72,-5.02,0.66
7.691,-5.76,4.06,3.99,-2.72,-5.02,0.66
7.692,-6.12,4.23,4.21,-2.72,-5.02,0.66
7.692,-6.12,4.23,4.21,-2.72,-5.02,0.66
7.7,-6.12,4.23,4.21,-2.24,-5.11,0.54
7.701,-6.12,4.23,4.21,-2.24,-5.11,0.54
7.701,-6.38,4.53,4.37,-2.24,-5.11,0.54
7.701,-6.38,4.53,4.37,-2.24,-5.11,0.54
7.711,-6.38,4.53,4.37,-1.87,-5.22,0.46
7.711,-6.51,4.85,4.54,-1.87,-5.22,0.46
7.712,-6.51,4.85,4.54,-1.87,-5.22,0.46
7.712,-6.51,4.85,4.54,-1.87,-5.22,0.46
7.719,-6.51,4.85,4.54,-1.84,-5.34,0.42
7.72,-6.51,4.85,4.54,-1.84,-5.34,0.42
7.721,-6.41,5,4.51,-1.84,-5.34,0.42
7.721,-6.41,5,4.51,-1.84,-5.34,0.42
7.73,-6.41,5,4.51,-1.89,-5.42,0.44
7.731,-6.41,5,4.51,-1.89,-5.42,0.44
7.731,-6.09,5,4.49,-1.89,-5.42,0.44
7.732,-6.09,5,4.49,-1.89,-5.42,0.44
7.738,-6.09,5,4.49,-1.9,-5.41,0.41
7.738,-6.09,5,4.49,-1.9,-5.41,0.41
7.739,-5.51,4.91,4.51,-1.9,-5.41,0.41
7.739,-5.51,4.91,4.51,-1.9,-5.41,0.41
7.748,-5.51,4.91,4.51,-1.89,-5.25,0.33
7.749,-5.51,4.91,4.51,-1.89,-5.25,0.33
7.749,-4.83,4.71,4.55,-1.89,-5.25,0.33
7.75,-4.83,4.71,4.55,-1.89,-5.25,0.33
7.757,-4.83,4.71,4.55,-1.9,-4.93,0.49
7.758,-4.83,4.71,4.55,-1.9,-4.93,0.49
7.759,-3.3,4.52,4.8,-1.9,-4.93,0.49
7.759,-3.3,4.52,4.8,-1.9,-4.93,0.49
7.768,-3.3,4.52,4.8,-1.85,-4.45,0.88
7.769,-3.3,4.52,4.8,-1.85,-4.45,0.88
7.77,-2.86,4.44,5.02,-1.85,-4.45,0.88
7.77,-2.86,4.44,5.02,-1.85,-4.45,0.88
7.776,-2.86,4.44,5.02,-1.79,-3.85,1.39
7.777,-2.86,4.44,5.02,-1.79,-3.85,1.39
7.777,-2.63,4.46,5.12,-1.79,-3.85,1.39
7.777,-2.63,4.46,5.12,-1.79,-3.85,1.39
7.792,-2.63,4.46,5.12,-1.73,-3.23,1.99
7.793,-2.63,4.46,5.12,-1.73,-3.23,1.99
7.793,-2.62,4.6,5.11,-1.73,-3.23,1.99
7.794,-2.62,4.6,5.11,-1.73,-3.23,1.99
7.795,-2.62,4.6,5.11,-1.71,-2.73,2.61
7.796,-2.62,4.6,5.11,-1.71,-2.73,2.61
7.796,-2.86,4.71,4.93,-1.71,-2.73,2.61
7.796,-2.86,4.71,4.93,-1.71,-2.73,2.61
7.805,-2.86,4.71,4.93,-1.72,-2.42,3.09
7.806,-2.86,4.71,4.93,-1.72,-2.42,3.09
7.806,-3.17,4.7,4.74,-1.72,-2.42,3.09
7.806,-3.17,4.7,4.74,-1.72,-2.42,3.09
7.816,-3.17,4.7,4.74,-1.43,-2.14,3.36
7.817,-3.17,4.7,4.74,-1.43,-2.14,3.36
7.817,-3.28,4.55,4.61,-1.43,-2.14,3.36
7.818,-3.28,4.55,4.61,-1.43,-2.14,3.36
7.824,-3.28,4.55,4.61,-1.43,-2.14,3.36
7.825,-3.28,4.55,4.61,-1.43,-2.14,3.36
7.826,-3.28,4.55,4.61,-1.43,-2.14,3.36
7.826,-3.28,4.55,4.61,-1.43,-2.14,3.36
7.833,-3.28,4.55,4.61,-1.17,-1.98,3.38
7.834,-3.28,4.55,4.61,-1.17,-1.98,3.38
7.835,-2.9,4.24,4.67,-1.17,-1.98,3.38
7.835,-2.9,4.24,4.67,-1.17,-1.98,3.38
7.843,-2.9,4.24,4.67,-1.2,-2.02,3.21
7.844,-2.9,4.24,4.67,-1.2,-2.02,3.21
7.845,-2.65,3.95,4.66,-1.2,-2.02,3.21
7.846,-2.65,3.95,4.66,-1.2,-2.02,3.21
7.853,-2.65,3.95,4.66,-1.17,-2.06,2.81
7.854,-2.65,3.95,4.66,-1.17,-2.06,2.81
7.855,-2.57,3.61,4.49,-1.17,-2.06,2.81
7.855,-2.57,3.61,4.49,-1.17,-2.06,2.81
7.862,-2.57,3.61,4.49,-1.09,-2.07,2.3
7.862,-2.57,3.61,4.49,-1.09,-2.07,2.3
7.863,-2.62,3.29,4.25,-1.09,-2.07,2.3
7.863,-2.62,3.29,4.25,-1.09,-2.07,2.3
7.872,-2.62,3.29,4.25,-0.98,-2.04,1.98
7.873,-2.62,3.29,4.25,-0.98,-2.04,1.98
7.873,-2.82,2.89,3.97,-0.98,-2.04,1.98
7.874,-2.82,2.89,3.97,-0.98,-2.04,1.98
7.883,-2.82,2.89,3.97,-0.84,-1.97,1.76
7.884,-2.82,2.89,3.97,-0.84,-1.97,1.76
7.884,-2.88,2.62,3.74,-0.84,-1.97,1.76
7.884,-2.88,2.62,3.74,-0.84,-1.97,1.76
7.891,-2.88,2.62,3.74,-0.67,-1.86,1.47
7.891,-2.88,2.62,3.74,-0.67,-1.86,1.47
7.891,-2.87,2.44,3.71,-0.67,-1.86,1.47
7.892,-2.87,2.44,3.71,-0.67,-1.86,1.47
7.9,-2.87,2.44,3.71,-0.49,-1.75,1.13
7.901,-2.87,2.44,3.71,-0.49,-1.75,1.13
7.901,-3.01,2.16,3.77,-0.49,-1.75,1.13
7.901,-3.01,2.16,3.77,-0.49,-1.75,1.13
7.91,-3.01,2.16,3.77,-0.33,-1.65,0.76
7.911,-3.01,2.16,3.77,-0.33,-1.65,0.76
7.911,-3.2,1.82,3.82,-0.33,-1.65,0.76
7.912,-3.2,1.82,3.82,-0.33,-1.65,0.76
7.919,-3.2,1.82,3.82,-0.22,-1.58,0.41
7.921,-3.2,1.82,3.82,-0.22,-1.58,0.41
7.921,-3.42,1.56,3.87,-0.22,-1.58,0.41
7.922,-3.42,1.56,3.87,-0.22,-1.58,0.41
7.929,-3.42,1.56,3.87,-0.17,-1.57,0.07
7.93,-3.42,1.56,3.87,-0.17,-1.57,0.07
7.93,-3.57,1.41,3.81,-0.17,-1.57,0.07
7.931,-3.57,1.41,3.81,-0.17,-1.57,0.07
7.938,-3.57,1.41,3.81,-0.17,-1.37,-0.26
7.939,-3.57,1.41,3.81,-0.17,-1.37,-0.26
7.939,-3.49,1.41,3.6,-0.17,-1.37,-0.26
7.94,-3.49,1.41,3.6,-0.17,-1.37,-0.26
7.951,-3.49,1.41,3.6,-0.2,-1.25,-0.58
7.952,-3.49,1.41,3.6,-0.2,-1.25,-0.58
7.952,-3.15,1.49,3.32,-0.2,-1.25,-0.58
7.953,-3.15,1.49,3.32,-0.2,-1.25,-0.58
7.958,-3.15,1.49,3.32,-0.24,-1.37,-0.84
7.959,-3.15,1.49,3.32,-0.24,-1.37,-0.84
7.959,-2.64,1.47,2.96,-0.24,-1.37,-0.84
7.959,-2.64,1.47,2.96,-0.24,-1.37,-0.84
7.968,-2.64,1.47,2.96,-0.28,-1.43,-0.97
7.969,-2.64,1.47,2.96,-0.28,-1.43,-0.97
7.969,-2.08,1.14,2.51,-0.28,-1.43,-0.97
7.969,-2.08,1.14,2.51,-0.28,-1.43,-0.97
7.976,-2.08,1.14,2.51,-0.28,-1.39,-0.97
7.977,-2.08,1.14,2.51,-0.28,-1.39,-0.97
7.978,-1.36,0.82,2.14,-0.28,-1.39,-0.97
7.978,-1.36,0.82,2.14,-0.28,-1.39,-0.97
7.986,-1.36,0.82,2.14,-0.24,-1.24,-0.85
7.987,-1.36,0.82,2.14,-0.24,-1.24,-0.85
7.988,-0.68,0.6,1.86,-0.24,-1.24,-0.85
7.988,-0.68,0.6,1.86,-0.24,-1.24,-0.85
7.997,-0.68,0.6,1.86,-0.14,-0.98,-0.63
7.998,-0.68,0.6,1.86,-0.14,-0.98,-0.63
7.999,-0.18,0.36,1.64,-0.14,-0.98,-0.63
7.999,-0.18,0.36,1.64,-0.14,-0.98,-0.63
8.005,-0.18,0.36,1.64,0,-0.67,-0.34
8.005,-0.18,0.36,1.64,0,-0.67,-0.34
8.006,0.13,0.26,1.49,0,-0.67,-0.34
8.006,0.13,0.26,1.49,0,-0.67,-0.34
8.015,0.13,0.26,1.49,0.15,-0.35,-0.01
8.016,0.13,0.26,1.49,0.15,-0.35,-0.01
8.016,0.14,0.07,1.32,0.15,-0.35,-0.01
8.017,0.14,0.07,1.32,0.15,-0.35,-0.01
8.024,0.14,0.07,1.32,0.15,-0.35,-0.01
8.025,0.14,0.07,1.32,0.15,-0.35,-0.01
8.026,0.14,0.07,1.32,0.15,-0.35,-0.01
8.027,0.14,0.07,1.32,0.15,-0.35,-0.01
8.034,0.14,0.07,1.32,0.27,-0.06,0.29
8.035,0.14,0.07,1.32,0.27,-0.06,0.29
8.035,-0.28,-0.61,0.86,0.27,-0.06,0.29
8.036,-0.28,-0.61,0.86,0.27,-0.06,0.29
8.043,-0.28,-0.61,0.86,0.37,0.17,0.49
8.043,-0.28,-0.61,0.86,0.37,0.17,0.49
8.044,-0.31,-0.98,0.58,0.37,0.17,0.49
8.044,-0.31,-0.98,0.58,0.37,0.17,0.49
8.053,-0.31,-0.98,0.58,0.49,0.36,0.53
8.054,-0.31,-0.98,0.58,0.49,0.36,0.53
8.055,-0.31,-1.35,0.42,0.49,0.36,0.53
8.055,-0.31,-1.35,0.42,0.49,0.36,0.53
8.062,-0.31,-1.35,0.42,0.65,0.5,0.41
8.063,-0.31,-1.35,0.42,0.65,0.5,0.41
8.064,-0.21,-1.73,0.45,0.65,0.5,0.41
8.064,-0.21,-1.73,0.45,0.65,0.5,0.41
8.073,-0.21,-1.73,0.45,0.82,0.63,0.18
8.074,-0.21,-1.73,0.45,0.82,0.63,0.18
8.074,-0.19,-2.16,0.63,0.82,0.63,0.18
8.074,-0.19,-2.16,0.63,0.82,0.63,0.18
8.091,-0.19,-2.16,0.63,0.98,0.72,-0.06
8.092,-0.19,-2.16,0.63,0.98,0.72,-0.06
8.092,-0.22,-2.55,0.75,0.98,0.72,-0.06
8.092,-0.22,-2.55,0.75,0.98,0.72,-0.06
8.103,-0.22,-2.55,0.75,1.08,0.78,-0.29
8.104,-0.22,-2.55,0.75,1.08,0.78,-0.29
8.105,-0.33,-2.76,0.75,1.08,0.78,-0.29
8.105,-0.33,-2.76,0.75,1.08,0.78,-0.29
8.105,-0.33,-2.76,0.75,1.15,0.7,-0.66
8.106,-0.33,-2.76,0.75,1.15,0.7,-0.66
8.106,-0.52,-2.74,0.5,1.15,0.7,-0.66
8.106,-0.52,-2.74,0.5,1.15,0.7,-0.66
8.11,-0.52,-2.74,0.5,1.15,0.7,-0.66
8.111,-0.52,-2.74,0.5,1.15,0.7,-0.66
8.111,-0.52,-2.74,0.5,1.15,0.7,-0.66
8.112,-0.52,-2.74,0.5,1.15,0.7,-0.66
8.12,-0.52,-2.74,0.5,1.13,0.59,-0.82
8.121,-0.52,-2.74,0.5,1.13,0.59,-0.82
8.121,-1,-2.19,0.19,1.13,0.59,-0.82
8.122,-1,-2.19,0.19,1.13,0.59,-0.82
8.129,-1,-2.19,0.19,1.08,0.45,-0.96
8.129,-1,-2.19,0.19,1.08,0.45,-0.96
8.13,-1.06,-1.94,0.18,1.08,0.45,-0.96
8.13,-1.06,-1.94,0.18,1.08,0.45,-0.96
8.138,-1.06,-1.94,0.18,0.98,0.3,-1.07
8.139,-1.06,-1.94,0.18,0.98,0.3,-1.07
8.139,-0.87,-1.77,0.32,0.98,0.3,-1.07
8.139,-0.87,-1.77,0.32,0.98,0.3,-1.07
8.147,-0.87,-1.77,0.32,0.82,0.13,-1.12
8.148,-0.87,-1.77,0.32,0.82,0.13,-1.12
8.148,-0.54,-1.68,0.56,0.82,0.13,-1.12
8.149,-0.54,-1.68,0.56,0.82,0.13,-1.12
8.158,-0.54,-1.68,0.56,0.59,-0.02,-1.09
8.159,-0.54,-1.68,0.56,0.59,-0.02,-1.09
8.159,-0.07,-1.68,0.82,0.59,-0.02,-1.09
8.16,-0.07,-1.68,0.82,0.59,-0.02,-1.09
8.168,-0.07,-1.68,0.82,0.33,-0.12,-0.96
8.169,-0.07,-1.68,0.82,0.33,-0.12,-0.96
8.17,0.47,-1.73,0.99,0.33,-0.12,-0.96
8.17,0.47,-1.73,0.99,0.33,-0.12,-0.96
8.177,0.47,-1.73,0.99,0.05,-0.14,-0.73
8.178,0.47,-1.73,0.99,0.05,-0.14,-0.73
8.178,1,-1.82,0.83,0.05,-0.14,-0.73
8.179,1,-1.82,0.83,0.05,-0.14,-0.73
8.192,1,-1.82,0.83,-0.2,-0.08,-0.41
8.193,1,-1.82,0.83,-0.2,-0.08,-0.41
8.194,1.6,-1.89,-1.11,-0.2,-0.08,-0.41
8.194,1.6,-1.89,-1.11,-0.2,-0.08,-0.41
8.195,1.6,-1.89,-1.11,-0.34,0.09,-0.04
8.195,1.6,-1.89,-1.11,-0.34,0.09,-0.04
8.195,3.21,-1.93,-3.25,-0.34,0.09,-0.04
8.196,3.21,-1.93,-3.25,-0.34,0.09,-0.04
8.205,3.21,-1.93,-3.25,-0.2,0.49,0.37
8.206,3.21,-1.93,-3.25,-0.2,0.49,0.37
8.206,4.89,-2.2,-5.85,-0.2,0.49,0.37
8.207,4.89,-2.2,-5.85,-0.2,0.49,0.37
8.215,4.89,-2.2,-5.85,0.35,1.24,0.82
8.216,4.89,-2.2,-5.85,0.35,1.24,0.82
8.217,6.87,-3.91,-8.1,0.35,1.24,0.82
8.217,6.87,-3.91,-8.1,0.35,1.24,0.82
8.224,6.87,-3.91,-8.1,0.35,1.24,0.82
8.225,6.87,-3.91,-8.1,0.35,1.24,0.82
8.226,6.87,-3.91,-8.1,0.35,1.24,0.82
8.226,6.87,-3.91,-8.1,0.35,1.24,0.82
8.233,6.87,-3.91,-8.1,1.36,2.37,1.26
8.235,6.87,-3.91,-8.1,1.36,2.37,1.26
8.235,9.59,-4.81,-9.02,1.36,2.37,1.26
8.236,9.59,-4.81,-9.02,1.36,2.37,1.26
8.242,9.59,-4.81,-9.02,1.95,3.81,1.22
8.243,9.59,-4.81,-9.02,1.95,3.81,1.22
8.244,9.96,-5.07,-8.96,1.95,3.81,1.22
8.244,9.96,-5.07,-8.96,1.95,3.81,1.22
8.252,9.96,-5.07,-8.96,1.97,5.32,0.78
8.253,9.96,-5.07,-8.96,1.97,5.32,0.78
8.254,9.9,-4.65,-7.17,1.97,5.32,0.78
8.254,9.9,-4.65,-7.17,1.97,5.32,0.78
8.261,9.9,-4.65,-7.17,2.02,6.53,0.55
8.262,9.9,-4.65,-7.17,2.02,6.53,0.55
8.263,7.89,-2.88,-5.51,2.02,6.53,0.55
8.263,7.89,-2.88,-5.51,2.02,6.53,0.55
8.271,7.89,-2.88,-5.51,2.14,7.14,0.41
8.272,7.89,-2.88,-5.51,2.14,7.14,0.41
8.273,6.05,-1.05,-3.92,2.14,7.14,0.41
8.273,6.05,-1.05,-3.92,2.14,7.14,0.41
8.282,6.05,-1.05,-3.92,2.22,7.03,0.3
8.283,6.05,-1.05,-3.92,2.22,7.03,0.3
8.283,4.14,-0.8,-3.41,2.22,7.03,0.3
8.284,4.14,-0.8,-3.41,2.22,7.03,0.3
8.291,4.14,-0.8,-3.41,1.82,6.26,0.31
8.291,4.14,-0.8,-3.41,1.82,6.26,0.31
8.292,2.45,-0.61,-1.72,1.82,6.26,0.31
8.293,2.45,-0.61,-1.72,1.82,6.26,0.31
8.3,2.45,-0.61,-1.72,0.91,5.01,0.37
8.301,2.45,-0.61,-1.72,0.91,5.01,0.37
8.301,2.06,-0.63,-1.27,0.91,5.01,0.37
8.301,2.06,-0.63,-1.27,0.91,5.01,0.37
8.31,2.06,-0.63,-1.27,-0.16,3.52,0.37
8.311,2.06,-0.63,-1.27,-0.16,3.52,0.37
8.312,1.58,-0.84,-0.91,-0.16,3.52,0.37
8.312,1.58,-0.84,-0.91,-0.16,3.52,0.37
8.319,1.58,-0.84,-0.91,-1.11,2.04,0.24
8.32,1.58,-0.84,-0.91,-1.11,2.04,0.24
8.321,1.28,-1.16,-0.76,-1.11,2.04,0.24
8.321,1.28,-1.16,-0.76,-1.11,2.04,0.24
8.33,1.28,-1.16,-0.76,-1.83,0.75,0.01
8.331,1.28,-1.16,-0.76,-1.83,0.75,0.01
8.332,1.21,-1.54,-0.76,-1.83,0.75,0.01
8.332,1.21,-1.54,-0.76,-1.83,0.75,0.01
8.338,1.21,-1.54,-0.76,-2.28,-0.26,-0.29
8.339,1.21,-1.54,-0.76,-2.28,-0.26,-0.29
8.339,1.42,-1.99,-0.78,-2.28,-0.26,-0.29
8.34,1.42,-1.99,-0.78,-2.28,-0.26,-0.29
8.349,1.42,-1.99,-0.78,-2.44,-1,-0.58
8.349,1.42,-1.99,-0.78,-2.44,-1,-0.58
8.349,1.91,-2.46,-0.74,-2.44,-1,-0.58
8.35,1.91,-2.46,-0.74,-2.44,-1,-0.58
8.357,1.91,-2.46,-0.74,-2.36,-1.46,-0.81
8.358,1.91,-2.46,-0.74,-2.36,-1.46,-0.81
8.358,3.65,-2.88,-0.63,-2.36,-1.46,-0.81
8.358,3.65,-2.88,-0.63,-2.36,-1.46,-0.81
8.367,3.65,-2.88,-0.63,-2.08,-1.61,-0.91
8.368,3.65,-2.88,-0.63,-2.08,-1.61,-0.91
8.368,3.89,-3.18,-0.53,-2.08,-1.61,-0.91
8.368,3.89,-3.18,-0.53,-2.08,-1.61,-0.91
8.377,3.89,-3.18,-0.53,-1.69,-1.42,-0.84
8.377,3.89,-3.18,-0.53,-1.69,-1.42,-0.84
8.377,4.31,-3.29,-0.51,-1.69,-1.42,-0.84
8.378,4.31,-3.29,-0.51,-1.69,-1.42,-0.84
8.386,4.31,-3.29,-0.51,-1.23,-0.94,-0.59
8.386,4.31,-3.29,-0.51,-1.23,-0.94,-0.59
8.387,4.76,-3.23,-0.56,-1.23,-0.94,-0.59
8.387,4.76,-3.23,-0.56,-1.23,-0.94,-0.59
8.395,4.76,-3.23,-0.56,-0.77,-0.31,-0.26
8.396,4.76,-3.23,-0.56,-0.77,-0.31,-0.26
8.396,5.2,-3.04,-0.6,-0.77,-0.31,-0.26
8.397,5.2,-3.04,-0.6,-0.77,-0.31,-0.26
8.404,5.2,-3.04,-0.6,-0.36,0.33,0.1
8.405,5.2,-3.04,-0.6,-0.36,0.33,0.1
8.406,5.57,-2.77,-0.55,-0.36,0.33,0.1
8.406,5.57,-2.77,-0.55,-0.36,0.33,0.1
8.414,5.57,-2.77,-0.55,-0.04,0.91,0.36
8.416,5.57,-2.77,-0.55,-0.04,0.91,0.36
8.417,5.82,-2.47,-0.44,-0.04,0.91,0.36
8.417,5.82,-2.47,-0.44,-0.04,0.91,0.36
8.423,5.82,-2.47,-0.44,-0.04,0.91,0.36
8.424,5.82,-2.47,-0.44,-0.04,0.91,0.36
8.424,5.82,-2.47,-0.44,-0.04,0.91,0.36
8.425,5.82,-2.47,-0.44,-0.04,0.91,0.36
8.433,5.82,-2.47,-0.44,0.16,1.4,0.55
8.434,5.82,-2.47,-0.44,0.16,1.4,0.55
8.435,6.07,-1.87,-0.27,0.16,1.4,0.55
8.435,6.07,-1.87,-0.27,0.16,1.4,0.55
8.442,6.07,-1.87,-0.27,0.2,1.78,0.77
8.443,6.07,-1.87,-0.27,0.2,1.78,0.77
8.444,5.9,-1.6,-0.2,0.2,1.78,0.77
8.444,5.9,-1.6,-0.2,0.2,1.78,0.77
8.453,5.9,-1.6,-0.2,0.09,2.02,1.07
8.454,5.9,-1.6,-0.2,0.09,2.02,1.07
8.455,5.57,-1.36,-0.11,0.09,2.02,1.07
8.455,5.57,-1.36,-0.11,0.09,2.02,1.07
8.465,5.57,-1.36,-0.11,-0.13,2.12,1.39
8.466,5.57,-1.36,-0.11,-0.13,2.12,1.39
8.466,5.14,-1.21,0,-0.13,2.12,1.39
8.467,5.14,-1.21,0,-0.13,2.12,1.39
8.475,5.14,-1.21,0,-0.16,1.84,1.5
8.476,5.14,-1.21,0,-0.16,1.84,1.5
8.476,4.6,-1.03,0.19,-0.16,1.84,1.5
8.476,4.6,-1.03,0.19,-0.16,1.84,1.5
8.48,4.6,-1.03,0.19,-0.16,1.84,1.5
8.482,4.6,-1.03,0.19,-0.16,1.84,1.5
8.483,4.6,-1.03,0.19,-0.16,1.84,1.5
8.483,4.6,-1.03,0.19,-0.16,1.84,1.5
8.49,4.6,-1.03,0.19,-0.42,1.61,1.34
8.491,4.6,-1.03,0.19,-0.42,1.61,1.34
8.492,4.27,-0.97,0.35,-0.42,1.61,1.34
8.493,4.27,-0.97,0.35,-0.42,1.61,1.34
8.5,4.27,-0.97,0.35,-0.6,1.36,1.22
8.5,4.27,-0.97,0.35,-0.6,1.36,1.22
8.501,4.14,-0.91,0.42,-0.6,1.36,1.22
8.501,4.14,-0.91,0.42,-0.6,1.36,1.22
8.509,4.14,-0.91,0.42,-0.71,1.13,1.09
8.51,4.14,-0.91,0.42,-0.71,1.13,1.09
8.51,4.03,-0.85,0.44,-0.71,1.13,1.09
8.511,4.03,-0.85,0.44,-0.71,1.13,1.09
8.519,4.03,-0.85,0.44,-0.78,0.93,0.97
8.52,4.03,-0.85,0.44,-0.78,0.93,0.97
8.52,3.91,-0.76,0.41,-0.78,0.93,0.97
8.521,3.91,-0.76,0.41,-0.78,0.93,0.97
8.529,3.91,-0.76,0.41,-0.81,0.77,0.86
8.53,3.91,-0.76,0.41,-0.81,0.77,0.86
8.531,3.69,-0.69,0.35,-0.81,0.77,0.86
8.532,3.69,-0.69,0.35,-0.81,0.77,0.86
8.538,3.69,-0.69,0.35,-0.79,0.66,0.77
8.539,3.69,-0.69,0.35,-0.79,0.66,0.77
8.539,3.39,-0.66,0.3,-0.79,0.66,0.77
8.54,3.39,-0.66,0.3,-0.79,0.66,0.77
8.547,3.39,-0.66,0.3,-0.74,0.58,0.68
8.548,3.39,-0.66,0.3,-0.74,0.58,0.68
8.548,3.03,-0.61,0.29,-0.74,0.58,0.68
8.549,3.03,-0.61,0.29,-0.74,0.58,0.68
8.557,3.03,-0.61,0.29,-0.65,0.51,0.57
8.558,3.03,-0.61,0.29,-0.65,0.51,0.57
8.558,2.72,-0.58,0.36,-0.65,0.51,0.57
8.559,2.72,-0.58,0.36,-0.65,0.51,0.57
8.573,2.72,-0.58,0.36,-0.56,0.44,0.45
8.574,2.72,-0.58,0.36,-0.56,0.44,0.45
8.574,2.46,-0.58,0.45,-0.56,0.44,0.45
8.574,2.46,-0.58,0.45,-0.56,0.44,0.45
8.583,2.46,-0.58,0.45,-0.46,0.36,0.33
8.584,2.46,-0.58,0.45,-0.46,0.36,0.33
8.584,2.28,-0.57,0.58,-0.46,0.36,0.33
8.585,2.28,-0.57,0.58,-0.46,0.36,0.33
8.585,2.28,-0.57,0.58,-0.38,0.29,0.21
8.586,2.28,-0.57,0.58,-0.38,0.29,0.21
8.586,2.17,-0.57,0.73,-0.38,0.29,0.21
8.586,2.17,-0.57,0.73,-0.38,0.29,0.21
8.596,2.17,-0.57,0.73,-0.31,0.24,0.11
8.597,2.17,-0.57,0.73,-0.31,0.24,0.11
8.597,2.12,-0.52,0.89,-0.31,0.24,0.11
8.597,2.12,-0.52,0.89,-0.31,0.24,0.11
8.604,2.12,-0.52,0.89,-0.27,0.23,0.04
8.605,2.12,-0.52,0.89,-0.27,0.23,0.04
8.606,2.16,-0.43,1.08,-0.27,0.23,0.04
8.606,2.16,-0.43,1.08,-0.27,0.23,0.04
8.615,2.16,-0.43,1.08,-0.26,0.26,0.02
8.616,2.16,-0.43,1.08,-0.26,0.26,0.02
8.616,2.32,-0.33,1.23,-0.26,0.26,0.02
8.617,2.32,-0.33,1.23,-0.26,0.26,0.02
8.623,2.32,-0.33,1.23,-0.26,0.26,0.02
8.624,2.32,-0.33,1.23,-0.26,0.26,0.02
8.625,2.32,-0.33,1.23,-0.26,0.26,0.02
8.626,2.32,-0.33,1.23,-0.26,0.26,0.02
8.633,2.32,-0.33,1.23,-0.28,0.32,0.04
8.634,2.32,-0.33,1.23,-0.28,0.32,0.04
8.635,3.03,-0.18,1.51,-0.28,0.32,0.04
8.635,3.03,-0.18,1.51,-0.28,0.32,0.04
8.642,3.03,-0.18,1.51,-0.34,0.44,0.12
8.643,3.03,-0.18,1.51,-0.34,0.44,0.12
8.644,3.28,-0.14,1.56,-0.34,0.44,0.12
8.644,3.28,-0.14,1.56,-0.34,0.44,0.12
8.652,3.28,-0.14,1.56,-0.44,0.63,0.28
8.653,3.28,-0.14,1.56,-0.44,0.63,0.28
8.654,3.44,-0.14,1.58,-0.44,0.63,0.28
8.655,3.44,-0.14,1.58,-0.44,0.63,0.28
8.667,3.44,-0.14,1.58,-0.55,0.87,0.5
8.668,3.44,-0.14,1.58,-0.55,0.87,0.5
8.669,3.51,-0.18,1.51,-0.55,0.87,0.5
8.669,3.51,-0.18,1.51,-0.55,0.87,0.5
8.671,3.51,-0.18,1.51,-0.64,1.12,0.75
8.672,3.51,-0.18,1.51,-0.64,1.12,0.75
8.672,3.48,-0.25,1.38,-0.64,1.12,0.75
8.673,3.48,-0.25,1.38,-0.64,1.12,0.75
8.681,3.48,-0.25,1.38,-0.67,1.33,0.96
8.682,3.48,-0.25,1.38,-0.67,1.33,0.96
8.682,3.4,-0.35,1.27,-0.67,1.33,0.96
8.682,3.4,-0.35,1.27,-0.67,1.33,0.96
8.69,3.4,-0.35,1.27,-0.64,1.47,1.12
8.691,3.4,-0.35,1.27,-0.64,1.47,1.12
8.691,3.25,-0.46,1.22,-0.64,1.47,1.12
8.692,3.25,-0.46,1.22,-0.64,1.47,1.12
8.7,3.25,-0.46,1.22,-0.55,1.53,1.21
8.701,3.25,-0.46,1.22,-0.55,1.53,1.21
8.701,3.05,-0.56,1.26,-0.55,1.53,1.21
8.702,3.05,-0.56,1.26,-0.55,1.53,1.21
8.709,3.05,-0.56,1.26,-0.41,1.54,1.24
8.71,3.05,-0.56,1.26,-0.41,1.54,1.24
8.71,2.88,-0.63,1.31,-0.41,1.54,1.24
8.711,2.88,-0.63,1.31,-0.41,1.54,1.24
8.719,2.88,-0.63,1.31,-0.26,1.51,1.22
8.72,2.88,-0.63,1.31,-0.26,1.51,1.22
8.72,2.75,-0.67,1.34,-0.26,1.51,1.22
8.721,2.75,-0.67,1.34,-0.26,1.51,1.22
8.73,2.75,-0.67,1.34,-0.12,1.45,1.16
8.731,2.75,-0.67,1.34,-0.12,1.45,1.16
8.731,2.68,-0.65,1.32,-0.12,1.45,1.16
8.732,2.68,-0.65,1.32,-0.12,1.45,1.16
8.738,2.68,-0.65,1.32,-0.01,1.37,1.08
8.738,2.68,-0.65,1.32,-0.01,1.37,1.08
8.739,2.67,-0.62,1.23,-0.01,1.37,1.08
8.74,2.67,-0.62,1.23,-0.01,1.37,1.08
8.747,2.67,-0.62,1.23,0.06,1.26,1
8.748,2.67,-0.62,1.23,0.06,1.26,1
8.749,2.7,-0.58,1.08,0.06,1.26,1
8.75,2.7,-0.58,1.08,0.06,1.26,1
8.757,2.7,-0.58,1.08,0.1,1.14,0.92
8.757,2.7,-0.58,1.08,0.1,1.14,0.92
8.758,2.72,-0.58,0.91,0.1,1.14,0.92
8.759,2.72,-0.58,0.91,0.1,1.14,0.92
8.768,2.72,-0.58,0.91,0.11,1.01,0.86
8.769,2.72,-0.58,0.91,0.11,1.01,0.86
8.77,2.71,-0.58,0.74,0.11,1.01,0.86
8.77,2.71,-0.58,0.74,0.11,1.01,0.86
8.776,2.71,-0.58,0.74,0.14,0.87,0.8
8.777,2.71,-0.58,0.74,0.14,0.87,0.8
8.777,2.67,-0.57,0.59,0.14,0.87,0.8
8.778,2.67,-0.57,0.59,0.14,0.87,0.8
8.785,2.67,-0.57,0.59,0.17,0.74,0.74
8.786,2.67,-0.57,0.59,0.17,0.74,0.74
8.786,2.58,-0.6,0.52,0.17,0.74,0.74
8.787,2.58,-0.6,0.52,0.17,0.74,0.74
8.796,2.58,-0.6,0.52,0.2,0.62,0.68
8.796,2.58,-0.6,0.52,0.2,0.62,0.68
8.797,2.44,-0.58,0.51,0.2,0.62,0.68
8.798,2.44,-0.58,0.51,0.2,0.62,0.68
8.804,2.44,-0.58,0.51,0.24,0.51,0.62
8.805,2.44,-0.58,0.51,0.24,0.51,0.62
8.806,2.24,-0.55,0.55,0.24,0.51,0.62
8.807,2.24,-0.55,0.55,0.24,0.51,0.62
8.814,2.24,-0.55,0.55,0.26,0.41,0.56
8.817,2.24,-0.55,0.55,0.26,0.41,0.56
8.818,1.98,-0.49,0.54,0.26,0.41,0.56
8.82,1.98,-0.49,0.54,0.26,0.41,0.56
8.823,1.98,-0.49,0.54,0.26,0.41,0.56
8.824,1.98,-0.49,0.54,0.26,0.41,0.56
8.825,1.98,-0.49,0.54,0.26,0.41,0.56
8.825,1.98,-0.49,0.54,0.26,0.41,0.56
8.833,1.98,-0.49,0.54,0.25,0.3,0.49
8.834,1.98,-0.49,0.54,0.25,0.3,0.49
8.835,1.51,-0.3,0.41,0.25,0.3,0.49
8.835,1.51,-0.3,0.41,0.25,0.3,0.49
8.842,1.51,-0.3,0.41,0.19,0.18,0.43
8.843,1.51,-0.3,0.41,0.19,0.18,0.43
8.843,1.27,-0.2,0.29,0.19,0.18,0.43
8.844,1.27,-0.2,0.29,0.19,0.18,0.43
8.852,1.27,-0.2,0.29,0.1,0.03,0.34
8.853,1.27,-0.2,0.29,0.1,0.03,0.34
8.853,1.08,-0.11,0.23,0.1,0.03,0.34
8.853,1.08,-0.11,0.23,0.1,0.03,0.34
8.865,1.08,-0.11,0.23,0.01,-0.14,0.21
8.866,1.08,-0.11,0.23,0.01,-0.14,0.21
8.867,0.9,-0.04,0.22,0.01,-0.14,0.21
8.867,0.9,-0.04,0.22,0.01,-0.14,0.21
8.871,0.9,-0.04,0.22,-0.07,-0.32,0.08
8.872,0.9,-0.04,0.22,-0.07,-0.32,0.08
8.872,0.69,-0.01,0.16,-0.07,-0.32,0.08
8.872,0.69,-0.01,0.16,-0.07,-0.32,0.08
8.88,0.69,-0.01,0.16,-0.16,-0.48,-0.03
8.881,0.69,-0.01,0.16,-0.16,-0.48,-0.03
8.881,0.47,0.01,0.06,-0.16,-0.48,-0.03
8.882,0.47,0.01,0.06,-0.16,-0.48,-0.03
8.891,0.47,0.01,0.06,-0.23,-0.61,-0.12
8.892,0.47,0.01,0.06,-0.23,-0.61,-0.12
8.893,0.22,0,-0.05,-0.23,-0.61,-0.12
8.893,0.22,0,-0.05,-0.23,-0.61,-0.12
8.9,0.22,0,-0.05,-0.26,-0.71,-0.2
8.9,0.22,0,-0.05,-0.26,-0.71,-0.2
8.901,-0.02,0.03,-0.14,-0.26,-0.71,-0.2
8.901,-0.02,0.03,-0.14,-0.26,-0.71,-0.2
8.909,-0.02,0.03,-0.14,-0.27,-0.79,-0.28
8.91,-0.02,0.03,-0.14,-0.27,-0.79,-0.28
8.91,-0.22,0.07,-0.19,-0.27,-0.79,-0.28
8.911,-0.22,0.07,-0.19,-0.27,-0.79,-0.28
8.919,-0.22,0.07,-0.19,-0.25,-0.86,-0.35
8.92,-0.22,0.07,-0.19,-0.25,-0.86,-0.35
8.921,-0.42,0.12,-0.17,-0.25,-0.86,-0.35
8.921,-0.42,0.12,-0.17,-0.25,-0.86,-0.35
8.929,-0.42,0.12,-0.17,-0.23,-0.93,-0.41
8.93,-0.42,0.12,-0.17,-0.23,-0.93,-0.41
8.93,-0.61,0.13,-0.21,-0.23,-0.93,-0.41
8.931,-0.61,0.13,-0.21,-0.23,-0.93,-0.41
8.938,-0.61,0.13,-0.21,-0.22,-0.99,-0.45
8.939,-0.61,0.13,-0.21,-0.22,-0.99,-0.45
8.939,-0.81,0.07,-0.27,-0.22,-0.99,-0.45
8.94,-0.81,0.07,-0.27,-0.22,-0.99,-0.45
8.947,-0.81,0.07,-0.27,-0.22,-1.03,-0.48
8.948,-0.81,0.07,-0.27,-0.22,-1.03,-0.48
8.948,-1.02,-0.04,-0.34,-0.22,-1.03,-0.48
8.949,-1.02,-0.04,-0.34,-0.22,-1.03,-0.48
8.957,-1.02,-0.04,-0.34,-0.22,-1.07,-0.48
8.958,-1.02,-0.04,-0.34,-0.22,-1.07,-0.48
8.958,-1.19,-0.15,-0.37,-0.22,-1.07,-0.48
8.958,-1.19,-0.15,-0.37,-0.22,-1.07,-0.48
8.967,-1.19,-0.15,-0.37,-0.2,-1.1,-0.48
8.968,-1.19,-0.15,-0.37,-0.2,-1.1,-0.48
8.968,-1.32,-0.2,-0.36,-0.2,-1.1,-0.48
8.969,-1.32,-0.2,-0.36,-0.2,-1.1,-0.48
8.977,-1.32,-0.2,-0.36,-0.15,-1.11,-0.47
8.977,-1.32,-0.2,-0.36,-0.15,-1.11,-0.47
8.978,-1.45,-0.2,-0.34,-0.15,-1.11,-0.47
8.978,-1.45,-0.2,-0.34,-0.15,-1.11,-0.47
8.991,-1.45,-0.2,-0.34,-0.09,-1.11,-0.44
8.992,-1.45,-0.2,-0.34,-0.09,-1.11,-0.44
8.992,-1.6,-0.12,-0.32,-0.09,-1.11,-0.44
8.993,-1.6,-0.12,-0.32,-0.09,-1.11,-0.44
8.999,-1.6,-0.12,-0.32,-0.05,-1.1,-0.41
9,-1.6,-0.12,-0.32,-0.05,-1.1,-0.41
9,-1.78,0,-0.36,-0.05,-1.1,-0.41
9,-1.78,0,-0.36,-0.05,-1.1,-0.41
9.005,-1.78,0,-0.36,-0.04,-1.1,-0.36
9.006,-1.78,0,-0.36,-0.04,-1.1,-0.36
9.007,-1.98,0.08,-0.43,-0.04,-1.1,-0.36
9.007,-1.98,0.08,-0.43,-0.04,-1.1,-0.36
9.015,-1.98,0.08,-0.43,-0.07,-1.11,-0.32
9.016,-1.98,0.08,-0.43,-0.07,-1.11,-0.32
9.017,-2.18,0.12,-0.53,-0.07,-1.11,-0.32
9.017,-2.18,0.12,-0.53,-0.07,-1.11,-0.32
9.024,-2.18,0.12,-0.53,-0.07,-1.11,-0.32
9.025,-2.18,0.12,-0.53,-0.07,-1.11,-0.32
9.025,-2.18,0.12,-0.53,-0.07,-1.11,-0.32
9.026,-2.18,0.12,-0.53,-0.07,-1.11,-0.32
9.033,-2.18,0.12,-0.53,-0.11,-1.14,-0.29
9.034,-2.18,0.12,-0.53,-0.11,-1.14,-0.29
9.035,-2.48,0.18,-0.73,-0.11,-1.14,-0.29
9.036,-2.48,0.18,-0.73,-0.11,-1.14,-0.29
9.043,-2.48,0.18,-0.73,-0.15,-1.19,-0.3
9.043,-2.48,0.18,-0.73,-0.15,-1.19,-0.3
9.044,-2.64,0.22,-0.89,-0.15,-1.19,-0.3
9.044,-2.64,0.22,-0.89,-0.15,-1.19,-0.3
9.053,-2.64,0.22,-0.89,-0.17,-1.25,-0.33
9.054,-2.64,0.22,-0.89,-0.17,-1.25,-0.33
9.054,-2.76,0.31,-1.13,-0.17,-1.25,-0.33
9.055,-2.76,0.31,-1.13,-0.17,-1.25,-0.33
9.067,-2.76,0.31,-1.13,-0.15,-1.32,-0.39
9.069,-2.76,0.31,-1.13,-0.15,-1.32,-0.39
9.069,-2.84,0.36,-1.48,-0.15,-1.32,-0.39
9.069,-2.84,0.36,-1.48,-0.15,-1.32,-0.39
9.071,-2.84,0.36,-1.48,-0.09,-1.39,-0.46
9.072,-2.84,0.36,-1.48,-0.09,-1.39,-0.46
9.072,-2.88,0.36,-1.82,-0.09,-1.39,-0.46
9.073,-2.88,0.36,-1.82,-0.09,-1.39,-0.46
9.081,-2.88,0.36,-1.82,0.02,-1.43,-0.55
9.082,-2.88,0.36,-1.82,0.02,-1.43,-0.55
9.083,-2.84,0.32,-1.94,0.02,-1.43,-0.55
9.083,-2.84,0.32,-1.94,0.02,-1.43,-0.55
9.103,-2.84,0.32,-1.94,0.15,-1.44,-0.62
9.104,-2.84,0.32,-1.94,0.15,-1.44,-0.62
9.105,-2.68,0.24,-1.66,0.15,-1.44,-0.62
9.105,-2.68,0.24,-1.66,0.15,-1.44,-0.62
9.106,-2.68,0.24,-1.66,0.3,-1.41,-0.67
9.106,-2.68,0.24,-1.66,0.3,-1.41,-0.67
9.107,-2.42,0.11,-1.04,0.3,-1.41,-0.67
9.108,-2.42,0.11,-1.04,0.3,-1.41,-0.67
9.11,-2.42,0.11,-1.04,0.4,-1.33,-0.67
9.111,-2.42,0.11,-1.04,0.4,-1.33,-0.67
9.111,-2.12,0.04,0.5,0.4,-1.33,-0.67
9.112,-2.12,0.04,0.5,0.4,-1.33,-0.67
9.119,-2.12,0.04,0.5,0.39,-1.2,-0.58
9.121,-2.12,0.04,0.5,0.39,-1.2,-0.58
9.121,-1.85,0.06,0.74,0.39,-1.2,-0.58
9.121,-1.85,0.06,0.74,0.39,-1.2,-0.58
9.129,-1.85,0.06,0.74,0.21,-0.99,-0.38
9.129,-1.85,0.06,0.74,0.21,-0.99,-0.38
9.13,-1.72,0.18,0.87,0.21,-0.99,-0.38
9.13,-1.72,0.18,0.87,0.21,-0.99,-0.38
9.138,-1.72,0.18,0.87,-0.12,-0.74,-0.11
9.139,-1.72,0.18,0.87,-0.12,-0.74,-0.11
9.14,-1.8,0.42,0.85,-0.12,-0.74,-0.11
9.141,-1.8,0.42,0.85,-0.12,-0.74,-0.11
9.147,-1.8,0.42,0.85,-0.51,-0.52,0.19
9.148,-1.8,0.42,0.85,-0.51,-0.52,0.19
9.149,-2.05,0.71,0.71,-0.51,-0.52,0.19
9.15,-2.05,0.71,0.71,-0.51,-0.52,0.19
9.158,-2.05,0.71,0.71,-0.87,-0.37,0.42
9.159,-2.05,0.71,0.71,-0.87,-0.37,0.42
9.16,-2.42,1.02,0.58,-0.87,-0.37,0.42
9.162,-2.42,1.02,0.58,-0.87,-0.37,0.42
9.168,-2.42,1.02,0.58,-1.16,-0.31,0.51
9.169,-2.42,1.02,0.58,-1.16,-0.31,0.51
9.17,-2.84,1.22,0.54,-1.16,-0.31,0.51
9.17,-2.84,1.22,0.54,-1.16,-0.31,0.51
9.177,-2.84,1.22,0.54,-1.35,-0.36,0.44
9.178,-2.84,1.22,0.54,-1.35,-0.36,0.44
9.179,-3.12,1.29,0.67,-1.35,-0.36,0.44
9.179,-3.12,1.29,0.67,-1.35,-0.36,0.44
9.186,-3.12,1.29,0.67,-1.47,-0.47,0.21
9.186,-3.12,1.29,0.67,-1.47,-0.47,0.21
9.187,-3.21,1.26,0.91,-1.47,-0.47,0.21
9.187,-3.21,1.26,0.91,-1.47,-0.47,0.21
9.196,-3.21,1.26,0.91,-1.53,-0.62,-0.09
9.196,-3.21,1.26,0.91,-1.53,-0.62,-0.09
9.197,-3.06,1.14,1.18,-1.53,-0.62,-0.09
9.197,-3.06,1.14,1.18,-1.53,-0.62,-0.09
9.205,-3.06,1.14,1.18,-1.56,-0.77,-0.39
9.206,-3.06,1.14,1.18,-1.56,-0.77,-0.39
9.206,-2.73,0.99,1.38,-1.56,-0.77,-0.39
9.206,-2.73,0.99,1.38,-1.56,-0.77,-0.39
9.215,-2.73,0.99,1.38,-1.56,-0.86,-0.61
9.216,-2.73,0.99,1.38,-1.56,-0.86,-0.61
9.216,-2.3,0.84,1.46,-1.56,-0.86,-0.61
9.217,-2.3,0.84,1.46,-1.56,-0.86,-0.61
9.225,-2.3,0.84,1.46,-1.56,-0.86,-0.61
9.226,-2.3,0.84,1.46,-1.56,-0.86,-0.61
9.226,-2.3,0.84,1.46,-1.56,-0.86,-0.61
9.227,-2.3,0.84,1.46,-1.56,-0.86,-0.61
9.233,-2.3,0.84,1.46,-1.55,-0.86,-0.71
9.234,-2.3,0.84,1.46,-1.55,-0.86,-0.71
9.235,-1.57,0.54,1.41,-1.55,-0.86,-0.71
9.236,-1.57,0.54,1.41,-1.55,-0.86,-0.71
9.242,-1.57,0.54,1.41,-1.49,-0.76,-0.68
9.243,-1.57,0.54,1.41,-1.49,-0.76,-0.68
9.243,-1.32,0.42,1.32,-1.49,-0.76,-0.68
9.244,-1.32,0.42,1.32,-1.49,-0.76,-0.68
9.252,-1.32,0.42,1.32,-1.37,-0.57,-0.52
9.253,-1.32,0.42,1.32,-1.37,-0.57,-0.52
9.253,-1.17,0.37,1.17,-1.37,-0.57,-0.52
9.254,-1.17,0.37,1.17,-1.37,-0.57,-0.52
9.266,-1.17,0.37,1.17,-1.19,-0.32,-0.28
9.267,-1.17,0.37,1.17,-1.19,-0.32,-0.28
9.268,-1.05,0.37,0.98,-1.19,-0.32,-0.28
9.268,-1.05,0.37,0.98,-1.19,-0.32,-0.28
9.271,-1.05,0.37,0.98,-0.96,-0.08,-0.03
9.272,-1.05,0.37,0.98,-0.96,-0.08,-0.03
9.272,-0.86,0.34,0.77,-0.96,-0.08,-0.03
9.273,-0.86,0.34,0.77,-0.96,-0.08,-0.03
9.282,-0.86,0.34,0.77,-0.69,0.13,0.16
9.283,-0.86,0.34,0.77,-0.69,0.13,0.16
9.283,-0.58,0.29,0.53,-0.69,0.13,0.16
9.284,-0.58,0.29,0.53,-0.69,0.13,0.16
9.291,-0.58,0.29,0.53,-0.42,0.29,0.28
9.291,-0.58,0.29,0.53,-0.42,0.29,0.28
9.291,-0.23,0.19,0.35,-0.42,0.29,0.28
9.292,-0.23,0.19,0.35,-0.42,0.29,0.28
9.301,-0.23,0.19,0.35,-0.15,0.4,0.36
9.302,-0.23,0.19,0.35,-0.15,0.4,0.36
9.302,0.1,0.08,0.26,-0.15,0.4,0.36
9.302,0.1,0.08,0.26,-0.15,0.4,0.36
9.31,0.1,0.08,0.26,0.1,0.49,0.44
9.311,0.1,0.08,0.26,0.1,0.49,0.44
9.311,0.32,-0.06,0.24,0.1,0.49,0.44
9.311,0.32,-0.06,0.24,0.1,0.49,0.44
9.32,0.32,-0.06,0.24,0.33,0.57,0.54
9.321,0.32,-0.06,0.24,0.33,0.57,0.54
9.321,0.42,-0.24,0.26,0.33,0.57,0.54
9.322,0.42,-0.24,0.26,0.33,0.57,0.54
9.329,0.42,-0.24,0.26,0.51,0.65,0.64
9.33,0.42,-0.24,0.26,0.51,0.65,0.64
9.33,0.37,-0.41,0.28,0.51,0.65,0.64
9.331,0.37,-0.41,0.28,0.51,0.65,0.64
9.338,0.37,-0.41,0.28,0.64,0.7,0.73
9.339,0.37,-0.41,0.28,0.64,0.7,0.73
9.34,0.22,-0.58,0.3,0.64,0.7,0.73
9.34,0.22,-0.58,0.3,0.64,0.7,0.73
9.347,0.22,-0.58,0.3,0.73,0.71,0.78
9.348,0.22,-0.58,0.3,0.73,0.71,0.78
9.349,0.01,-0.7,0.31,0.73,0.71,0.78
9.349,0.01,-0.7,0.31,0.73,0.71,0.78
9.358,0.01,-0.7,0.31,0.79,0.68,0.78
9.359,0.01,-0.7,0.31,0.79,0.68,0.78
9.359,-0.25,-0.84,0.39,0.79,0.68,0.78
9.36,-0.25,-0.84,0.39,0.79,0.68,0.78
9.367,-0.25,-0.84,0.39,0.83,0.6,0.72
9.368,-0.25,-0.84,0.39,0.83,0.6,0.72
9.369,-0.51,-0.99,0.47,0.83,0.6,0.72
9.369,-0.51,-0.99,0.47,0.83,0.6,0.72
9.376,-0.51,-0.99,0.47,0.84,0.5,0.6
9.377,-0.51,-0.99,0.47,0.84,0.5,0.6
9.377,-0.76,-1.15,0.56,0.84,0.5,0.6
9.377,-0.76,-1.15,0.56,0.84,0.5,0.6
9.387,-0.76,-1.15,0.56,0.84,0.36,0.43
9.388,-0.76,-1.15,0.56,0.84,0.36,0.43
9.388,-0.97,-1.39,0.64,0.84,0.36,0.43
9.388,-0.97,-1.39,0.64,0.84,0.36,0.43
9.395,-0.97,-1.39,0.64,0.83,0.21,0.24
9.396,-0.97,-1.39,0.64,0.83,0.21,0.24
9.396,-1.14,-1.6,0.68,0.83,0.21,0.24
9.397,-1.14,-1.6,0.68,0.83,0.21,0.24
9.405,-1.14,-1.6,0.68,0.81,0.05,0.05
9.406,-1.14,-1.6,0.68,0.81,0.05,0.05
9.406,-1.27,-1.81,0.68,0.81,0.05,0.05
9.407,-1.27,-1.81,0.68,0.81,0.05,0.05
9.415,-1.27,-1.81,0.68,0.8,-0.09,-0.12
9.416,-1.27,-1.81,0.68,0.8,-0.09,-0.12
9.416,-1.34,-2.06,0.59,0.8,-0.09,-0.12
9.417,-1.34,-2.06,0.59,0.8,-0.09,-0.12
9.424,-1.34,-2.06,0.59,0.8,-0.09,-0.12
9.425,-1.34,-2.06,0.59,0.8,-0.09,-0.12
9.426,-1.34,-2.06,0.59,0.8,-0.09,-0.12
9.426,-1.34,-2.06,0.59,0.8,-0.09,-0.12
9.433,-1.34,-2.06,0.59,0.82,-0.21,-0.28
9.435,-1.34,-2.06,0.59,0.82,-0.21,-0.28
9.435,-1.33,-2.48,0.31,0.82,-0.21,-0.28
9.436,-1.33,-2.48,0.31,0.82,-0.21,-0.28
9.443,-1.33,-2.48,0.31,0.89,-0.31,-0.42
9.443,-1.33,-2.48,0.31,0.89,-0.31,-0.42
9.444,-1.19,-2.74,0.17,0.89,-0.31,-0.42
9.445,-1.19,-2.74,0.17,0.89,-0.31,-0.42
9.452,-1.19,-2.74,0.17,1.04,-0.36,-0.52
9.453,-1.19,-2.74,0.17,1.04,-0.36,-0.52
9.454,-0.96,-2.97,0.04,1.04,-0.36,-0.52
9.455,-0.96,-2.97,0.04,1.04,-0.36,-0.52
9.467,-0.96,-2.97,0.04,1.25,-0.36,-0.57
9.467,-0.96,-2.97,0.04,1.25,-0.36,-0.57
9.468,-0.7,-3.22,-0.11,1.25,-0.36,-0.57
9.468,-0.7,-3.22,-0.11,1.25,-0.36,-0.57
9.471,-0.7,-3.22,-0.11,1.5,-0.32,-0.56
9.472,-0.7,-3.22,-0.11,1.5,-0.32,-0.56
9.473,-0.51,-3.49,-0.25,1.5,-0.32,-0.56
9.473,-0.51,-3.49,-0.25,1.5,-0.32,-0.56
9.486,-0.51,-3.49,-0.25,1.75,-0.22,-0.49
9.486,-0.51,-3.49,-0.25,1.75,-0.22,-0.49
9.487,-0.37,-3.75,-0.4,1.75,-0.22,-0.49
9.487,-0.37,-3.75,-0.4,1.75,-0.22,-0.49
9.49,-0.37,-3.75,-0.4,1.98,-0.1,-0.35
9.491,-0.37,-3.75,-0.4,1.98,-0.1,-0.35
9.491,-0.29,-3.99,-0.54,1.98,-0.1,-0.35
9.492,-0.29,-3.99,-0.54,1.98,-0.1,-0.35
9.5,-0.29,-3.99,-0.54,2.2,0.04,-0.2
9.501,-0.29,-3.99,-0.54,2.2,0.04,-0.2
9.502,-0.23,-4.17,-0.65,2.2,0.04,-0.2
9.502,-0.23,-4.17,-0.65,2.2,0.04,-0.2
9.51,-0.23,-4.17,-0.65,2.4,0.17,-0.05
9.511,-0.23,-4.17,-0.65,2.4,0.17,-0.05
9.511,-0.15,-4.27,-0.76,2.4,0.17,-0.05
9.511,-0.15,-4.27,-0.76,2.4,0.17,-0.05
9.519,-0.15,-4.27,-0.76,2.57,0.28,0.08
9.52,-0.15,-4.27,-0.76,2.57,0.28,0.08
9.521,-0.03,-4.36,-0.89,2.57,0.28,0.08
9.521,-0.03,-4.36,-0.89,2.57,0.28,0.08
9.528,-0.03,-4.36,-0.89,2.7,0.36,0.16
9.529,-0.03,-4.36,-0.89,2.7,0.36,0.16
9.53,0.07,-4.45,-1.07,2.7,0.36,0.16
9.53,0.07,-4.45,-1.07,2.7,0.36,0.16
9.538,0.07,-4.45,-1.07,2.76,0.42,0.24
9.539,0.07,-4.45,-1.07,2.76,0.42,0.24
9.539,0.14,-4.55,-1.32,2.76,0.42,0.24
9.539,0.14,-4.55,-1.32,2.76,0.42,0.24
9.547,0.14,-4.55,-1.32,2.77,0.4,0.27
9.547,0.14,-4.55,-1.32,2.77,0.4,0.27
9.548,0.17,-4.64,-1.69,2.77,0.4,0.27
9.548,0.17,-4.64,-1.69,2.77,0.4,0.27
9.557,0.17,-4.64,-1.69,2.75,0.35,0.31
9.558,0.17,-4.64,-1.69,2.75,0.35,0.31
9.558,0.15,-4.67,-2.1,2.75,0.35,0.31
9.559,0.15,-4.67,-2.1,2.75,0.35,0.31
9.569,0.15,-4.67,-2.1,2.71,0.32,0.38
9.57,0.15,-4.67,-2.1,2.71,0.32,0.38
9.571,0.13,-4.65,-2.45,2.71,0.32,0.38
9.572,0.13,-4.65,-2.45,2.71,0.32,0.38
9.576,0.13,-4.65,-2.45,2.67,0.25,0.43
9.577,0.13,-4.65,-2.45,2.67,0.25,0.43
9.577,0.11,-4.59,-2.64,2.67,0.25,0.43
9.578,0.11,-4.59,-2.64,2.67,0.25,0.43
9.585,0.11,-4.59,-2.64,2.6,0.12,0.47
9.587,0.11,-4.59,-2.64,2.6,0.12,0.47
9.588,0.13,-4.53,-2.65,2.6,0.12,0.47
9.588,0.13,-4.53,-2.65,2.6,0.12,0.47
9.595,0.13,-4.53,-2.65,2.49,0.03,0.44
9.595,0.13,-4.53,-2.65,2.49,0.03,0.44
9.596,0.16,-4.59,-2.52,2.49,0.03,0.44
9.596,0.16,-4.59,-2.52,2.49,0.03,0.44
9.605,0.16,-4.59,-2.52,2.33,-0.07,0.43
9.605,0.16,-4.59,-2.52,2.33,-0.07,0.43
9.606,0.22,-4.77,-2.37,2.33,-0.07,0.43
9.606,0.22,-4.77,-2.37,2.33,-0.07,0.43
9.615,0.22,-4.77,-2.37,2.33,-0.07,0.43
9.615,0.22,-4.77,-2.37,2.33,-0.07,0.43
9.616,0.22,-4.77,-2.37,2.33,-0.07,0.43
9.616,0.22,-4.77,-2.37,2.33,-0.07,0.43
9.624,0.22,-4.77,-2.37,2.14,-0.16,0.5
9.625,0.22,-4.77,-2.37,2.14,-0.16,0.5
9.625,0.47,-5.56,-2.11,2.14,-0.16,0.5
9.626,0.47,-5.56,-2.11,2.14,-0.16,0.5
9.634,0.47,-5.56,-2.11,1.98,-0.2,0.59
9.635,0.47,-5.56,-2.11,1.98,-0.2,0.59
9.635,0.7,-5.91,-1.98,1.98,-0.2,0.59
9.635,0.7,-5.91,-1.98,1.98,-0.2,0.59
9.643,0.7,-5.91,-1.98,1.92,-0.17,0.69
9.643,0.7,-5.91,-1.98,1.92,-0.17,0.69
9.644,0.94,-6.16,-1.97,1.92,-0.17,0.69
9.644,0.94,-6.16,-1.97,1.92,-0.17,0.69
9.652,0.94,-6.16,-1.97,2,-0.11,0.76
9.653,0.94,-6.16,-1.97,2,-0.11,0.76
9.653,1.2,-6.29,-2.12,2,-0.11,0.76
9.654,1.2,-6.29,-2.12,2,-0.11,0.76
9.666,1.2,-6.29,-2.12,2.17,-0.06,0.8
9.667,1.2,-6.29,-2.12,2.17,-0.06,0.8
9.667,1.38,-6.27,-2.33,2.17,-0.06,0.8
9.668,1.38,-6.27,-2.33,2.17,-0.06,0.8
9.671,1.38,-6.27,-2.33,2.34,0.08,0.84
9.672,1.38,-6.27,-2.33,2.34,0.08,0.84
9.672,1.49,-6.13,-2.48,2.34,0.08,0.84
9.673,1.49,-6.13,-2.48,2.34,0.08,0.84
9.683,1.49,-6.13,-2.48,2.46,0.29,0.81
9.684,1.49,-6.13,-2.48,2.46,0.29,0.81
9.684,1.58,-5.92,-2.47,2.46,0.29,0.81
9.685,1.58,-5.92,-2.47,2.46,0.29,0.81
9.69,1.58,-5.92,-2.47,2.48,0.3,0.78
9.691,1.58,-5.92,-2.47,2.48,0.3,0.78
9.691,1.65,-5.68,-2.21,2.48,0.3,0.78
9.691,1.65,-5.68,-2.21,2.48,0.3,0.78
9.7,1.65,-5.68,-2.21,2.39,0.28,0.81
9.701,1.65,-5.68,-2.21,2.39,0.28,0.81
9.701,1.75,-5.43,-1.78,2.39,0.28,0.81
9.702,1.75,-5.43,-1.78,2.39,0.28,0.81
9.71,1.75,-5.43,-1.78,2.19,0.4,0.85
9.711,1.75,-5.43,-1.78,2.19,0.4,0.85
9.711,1.86,-5.16,-1.27,2.19,0.4,0.85
9.712,1.86,-5.16,-1.27,2.19,0.4,0.85
9.719,1.86,-5.16,-1.27,1.92,0.51,0.89
9.72,1.86,-5.16,-1.27,1.92,0.51,0.89
9.721,1.93,-4.87,-0.88,1.92,0.51,0.89
9.721,1.93,-4.87,-0.88,1.92,0.51,0.89
9.729,1.93,-4.87,-0.88,1.6,0.63,0.94
9.729,1.93,-4.87,-0.88,1.6,0.63,0.94
9.73,1.98,-4.6,-0.7,1.6,0.63,0.94
9.73,1.98,-4.6,-0.7,1.6,0.63,0.94
9.738,1.98,-4.6,-0.7,1.26,0.77,0.98
9.739,1.98,-4.6,-0.7,1.26,0.77,0.98
9.74,1.94,-4.38,-0.67,1.26,0.77,0.98
9.74,1.94,-4.38,-0.67,1.26,0.77,0.98
9.75,1.94,-4.38,-0.67,0.93,0.9,1.01
9.751,1.94,-4.38,-0.67,0.93,0.9,1.01
9.751,1.84,-4.24,-0.76,0.93,0.9,1.01
9.752,1.84,-4.24,-0.76,0.93,0.9,1.01
9.758,1.84,-4.24,-0.76,0.64,0.98,1.02
9.759,1.84,-4.24,-0.76,0.64,0.98,1.02
9.76,1.65,-4.21,-0.79,0.64,0.98,1.02
9.76,1.65,-4.21,-0.79,0.64,0.98,1.02
9.768,1.65,-4.21,-0.79,0.41,0.98,0.99
9.769,1.65,-4.21,-0.79,0.41,0.98,0.99
9.769,1.34,-4.21,-0.75,0.41,0.98,0.99
9.77,1.34,-4.21,-0.75,0.41,0.98,0.99
9.776,1.34,-4.21,-0.75,0.26,0.91,0.95
9.777,1.34,-4.21,-0.75,0.26,0.91,0.95
9.778,0.94,-4.19,-0.68,0.26,0.91,0.95
9.778,0.94,-4.19,-0.68,0.26,0.91,0.95
9.787,0.94,-4.19,-0.68,0.19,0.76,0.91
9.788,0.94,-4.19,-0.68,0.19,0.76,0.91
9.788,0.52,-4.11,-0.55,0.19,0.76,0.91
9.788,0.52,-4.11,-0.55,0.19,0.76,0.91
9.795,0.52,-4.11,-0.55,0.21,0.55,0.86
9.796,0.52,-4.11,-0.55,0.21,0.55,0.86
9.796,0.13,-3.95,-0.48,0.21,0.55,0.86
9.797,0.13,-3.95,-0.48,0.21,0.55,0.86
9.806,0.13,-3.95,-0.48,0.29,0.29,0.8
9.807,0.13,-3.95,-0.48,0.29,0.29,0.8
9.807,-0.09,-3.72,-0.45,0.29,0.29,0.8
9.808,-0.09,-3.72,-0.45,0.29,0.29,0.8
9.815,-0.09,-3.72,-0.45,0.39,0.01,0.74
9.816,-0.09,-3.72,-0.45,0.39,0.01,0.74
9.817,-0.17,-3.46,-0.5,0.39,0.01,0.74
9.818,-0.17,-3.46,-0.5,0.39,0.01,0.74
9.823,-0.17,-3.46,-0.5,0.39,0.01,0.74
9.824,-0.17,-3.46,-0.5,0.39,0.01,0.74
9.825,-0.17,-3.46,-0.5,0.39,0.01,0.74
9.825,-0.17,-3.46,-0.5,0.39,0.01,0.74
9.834,-0.17,-3.46,-0.5,0.47,-0.27,0.68
9.835,-0.17,-3.46,-0.5,0.47,-0.27,0.68
9.836,0.05,-3.34,-0.91,0.47,-0.27,0.68
9.836,0.05,-3.34,-0.91,0.47,-0.27,0.68
9.844,0.05,-3.34,-0.91,0.52,-0.51,0.62
9.845,0.05,-3.34,-0.91,0.52,-0.51,0.62
9.846,0.24,-3.33,-1.25,0.52,-0.51,0.62
9.847,0.24,-3.33,-1.25,0.52,-0.51,0.62
9.852,0.24,-3.33,-1.25,0.54,-0.69,0.57
9.854,0.24,-3.33,-1.25,0.54,-0.69,0.57
9.854,0.51,-3.38,-1.74,0.54,-0.69,0.57
9.855,0.51,-3.38,-1.74,0.54,-0.69,0.57
9.866,0.51,-3.38,-1.74,0.55,-0.8,0.54
9.867,0.51,-3.38,-1.74,0.55,-0.8,0.54
9.867,0.81,-3.49,-2.3,0.55,-0.8,0.54
9.868,0.81,-3.49,-2.3,0.55,-0.8,0.54
9.871,0.81,-3.49,-2.3,0.58,-0.84,0.52
9.872,0.81,-3.49,-2.3,0.58,-0.84,0.52
9.872,1.08,-3.65,-2.8,0.58,-0.84,0.52
9.873,1.08,-3.65,-2.8,0.58,-0.84,0.52
9.884,1.08,-3.65,-2.8,0.65,-0.83,0.5
9.885,1.08,-3.65,-2.8,0.65,-0.83,0.5
9.885,1.24,-3.87,-3.02,0.65,-0.83,0.5
9.885,1.24,-3.87,-3.02,0.65,-0.83,0.5
9.89,1.24,-3.87,-3.02,0.75,-0.78,0.48
9.891,1.24,-3.87,-3.02,0.75,-0.78,0.48
9.891,1.27,-4.09,-2.91,0.75,-0.78,0.48
9.891,1.27,-4.09,-2.91,0.75,-0.78,0.48
9.9,1.27,-4.09,-2.91,0.89,-0.71,0.46
9.901,1.27,-4.09,-2.91,0.89,-0.71,0.46
9.902,1.14,-4.16,-2.48,0.89,-0.71,0.46
9.902,1.14,-4.16,-2.48,0.89,-0.71,0.46
9.91,1.14,-4.16,-2.48,1.05,-0.62,0.43
9.911,1.14,-4.16,-2.48,1.05,-0.62,0.43
9.911,0.89,-4.02,-0.73,1.05,-0.62,0.43
9.912,0.89,-4.02,-0.73,1.05,-0.62,0.43
9.919,0.89,-4.02,-0.73,1.21,-0.52,0.4
9.921,0.89,-4.02,-0.73,1.21,-0.52,0.4
9.921,0.55,-3.65,-0.47,1.21,-0.52,0.4
9.922,0.55,-3.65,-0.47,1.21,-0.52,0.4
9.929,0.55,-3.65,-0.47,1.34,-0.37,0.38
9.93,0.55,-3.65,-0.47,1.34,-0.37,0.38
9.93,0.13,-3.13,-0.02,1.34,-0.37,0.38
9.931,0.13,-3.13,-0.02,1.34,-0.37,0.38
9.938,0.13,-3.13,-0.02,1.42,-0.22,0.36
9.938,0.13,-3.13,-0.02,1.42,-0.22,0.36
9.939,-0.32,-2.6,0.44,1.42,-0.22,0.36
9.939,-0.32,-2.6,0.44,1.42,-0.22,0.36
9.947,-0.32,-2.6,0.44,1.42,-0.09,0.32
9.949,-0.32,-2.6,0.44,1.42,-0.09,0.32
9.949,-0.71,-2.12,0.81,1.42,-0.09,0.32
9.95,-0.71,-2.12,0.81,1.42,-0.09,0.32
9.958,-0.71,-2.12,0.81,1.3,-0.03,0.29
9.958,-0.71,-2.12,0.81,1.3,-0.03,0.29
9.959,-0.97,-1.69,1.07,1.3,-0.03,0.29
9.96,-0.97,-1.69,1.07,1.3,-0.03,0.29
9.969,-0.97,-1.69,1.07,1.08,-0.03,0.25
9.971,-0.97,-1.69,1.07,1.08,-0.03,0.25
9.971,-1.06,-1.29,1.22,1.08,-0.03,0.25
9.972,-1.06,-1.29,1.22,1.08,-0.03,0.25
9.984,-1.06,-1.29,1.22,0.8,-0.06,0.22
9.985,-1.06,-1.29,1.22,0.8,-0.06,0.22
9.985,-1.02,-0.98,1.3,0.8,-0.06,0.22
9.986,-1.02,-0.98,1.3,0.8,-0.06,0.22
9.986,-1.02,-0.98,1.3,0.48,-0.09,0.2
9.986,-1.02,-0.98,1.3,0.48,-0.09,0.2
9.986,-0.9,-0.7,1.31,0.48,-0.09,0.2
9.987,-0.9,-0.7,1.31,0.48,-0.09,0.2
9.995,-0.9,-0.7,1.31,0.15,-0.1,0.17
9.996,-0.9,-0.7,1.31,0.15,-0.1,0.17
9.997,-0.78,-0.52,1.26,0.15,-0.1,0.17
9.997,-0.78,-0.52,1.26,0.15,-0.1,0.17
10.006,-0.78,-0.52,1.26,-0.18,-0.07,0.16
10.007,-0.78,-0.52,1.26,-0.18,-0.07,0.16
10.008,-0.73,-0.39,1.18,-0.18,-0.07,0.16
10.009,-0.73,-0.39,1.18,-0.18,-0.07,0.16
10.015,-0.73,-0.39,1.18,-0.49,-0.01,0.17
10.016,-0.73,-0.39,1.18,-0.49,-0.01,0.17
10.016,-0.76,-0.32,1.08,-0.49,-0.01,0.17
10.017,-0.76,-0.32,1.08,-0.49,-0.01,0.17
10.024,-0.76,-0.32,1.08,-0.49,-0.01,0.17
10.025,-0.76,-0.32,1.08,-0.49,-0.01,0.17
10.025,-0.76,-0.32,1.08,-0.49,-0.01,0.17
10.026,-0.76,-0.32,1.08,-0.49,-0.01,0.17
10.034,-0.76,-0.32,1.08,-0.75,0.07,0.19
10.035,-0.76,-0.32,1.08,-0.75,0.07,0.19
10.036,-0.96,-0.32,0.92,-0.75,0.07,0.19
10.036,-0.96,-0.32,0.92,-0.75,0.07,0.19
10.043,-0.96,-0.32,0.92,-0.93,0.12,0.22
10.044,-0.96,-0.32,0.92,-0.93,0.12,0.22
10.045,-1.07,-0.29,0.9,-0.93,0.12,0.22
10.045,-1.07,-0.29,0.9,-0.93,0.12,0.22
10.052,-1.07,-0.29,0.9,-1.02,0.13,0.24
10.053,-1.07,-0.29,0.9,-1.02,0.13,0.24
10.054,-1.18,-0.27,0.88,-1.02,0.13,0.24
10.055,-1.18,-0.27,0.88,-1.02,0.13,0.24
10.066,-1.18,-0.27,0.88,-1.02,0.08,0.22
10.067,-1.18,-0.27,0.88,-1.02,0.08,0.22
10.067,-1.29,-0.24,0.84,-1.02,0.08,0.22
10.068,-1.29,-0.24,0.84,-1.02,0.08,0.22
10.072,-1.29,-0.24,0.84,-0.94,-0.01,0.18
10.072,-1.29,-0.24,0.84,-0.94,-0.01,0.18
10.073,-1.39,-0.25,0.81,-0.94,-0.01,0.18
10.073,-1.39,-0.25,0.81,-0.94,-0.01,0.18
10.085,-1.39,-0.25,0.81,-0.83,-0.12,0.14
10.086,-1.39,-0.25,0.81,-0.83,-0.12,0.14
10.086,-1.45,-0.29,0.74,-0.83,-0.12,0.14
10.086,-1.45,-0.29,0.74,-0.83,-0.12,0.14
10.103,-1.45,-0.29,0.74,-0.7,-0.23,0.1
10.105,-1.45,-0.29,0.74,-0.7,-0.23,0.1
10.105,-1.45,-0.35,0.63,-0.7,-0.23,0.1
10.106,-1.45,-0.35,0.63,-0.7,-0.23,0.1
10.106,-1.45,-0.35,0.63,-0.7,-0.23,0.1
10.106,-1.45,-0.35,0.63,-0.7,-0.23,0.1
10.107,-1.45,-0.35,0.63,-0.7,-0.23,0.1
10.107,-1.45,-0.35,0.63,-0.7,-0.23,0.1
10.11,-1.45,-0.35,0.63,-0.42,-0.43,0.07
10.11,-1.45,-0.35,0.63,-0.42,-0.43,0.07
10.111,-1.23,-0.52,0.41,-0.42,-0.43,0.07
10.111,-1.23,-0.52,0.41,-0.42,-0.43,0.07
10.119,-1.23,-0.52,0.41,-0.27,-0.49,0.07
10.12,-1.23,-0.52,0.41,-0.27,-0.49,0.07
10.121,-1.09,-0.6,0.32,-0.27,-0.49,0.07
10.121,-1.09,-0.6,0.32,-0.27,-0.49,0.07
10.128,-1.09,-0.6,0.32,-0.12,-0.51,0.07
10.129,-1.09,-0.6,0.32,-0.12,-0.51,0.07
10.129,-0.94,-0.63,0.25,-0.12,-0.51,0.07
10.13,-0.94,-0.63,0.25,-0.12,-0.51,0.07
10.139,-0.94,-0.63,0.25,0.02,-0.48,0.09
10.139,-0.94,-0.63,0.25,0.02,-0.48,0.09
10.14,-0.77,-0.62,0.17,0.02,-0.48,0.09
10.14,-0.77,-0.62,0.17,0.02,-0.48,0.09
10.148,-0.77,-0.62,0.17,0.13,-0.42,0.1
10.149,-0.77,-0.62,0.17,0.13,-0.42,0.1
10.149,-0.59,-0.61,0.09,0.13,-0.42,0.1
10.15,-0.59,-0.61,0.09,0.13,-0.42,0.1
10.157,-0.59,-0.61,0.09,0.21,-0.33,0.11
10.157,-0.59,-0.61,0.09,0.21,-0.33,0.11
10.158,-0.39,-0.56,0,0.21,-0.33,0.11
10.159,-0.39,-0.56,0,0.21,-0.33,0.11
10.167,-0.39,-0.56,0,0.27,-0.21,0.11
10.167,-0.39,-0.56,0,0.27,-0.21,0.11
10.168,-0.27,-0.56,-0.08,0.27,-0.21,0.11
10.169,-0.27,-0.56,-0.08,0.27,-0.21,0.11
10.176,-0.27,-0.56,-0.08,0.31,-0.09,0.09
10.177,-0.27,-0.56,-0.08,0.31,-0.09,0.09
10.178,-0.22,-0.61,-0.12,0.31,-0.09,0.09
10.178,-0.22,-0.61,-0.12,0.31,-0.09,0.09
10.187,-0.22,-0.61,-0.12,0.32,0.03,0.08
10.188,-0.22,-0.61,-0.12,0.32,0.03,0.08
10.188,-0.24,-0.63,-0.21,0.32,0.03,0.08
10.189,-0.24,-0.63,-0.21,0.32,0.03,0.08
10.217,-0.24,-0.63,-0.21,0.31,0.12,0.07
10.218,-0.24,-0.63,-0.21,0.31,0.12,0.07
10.218,-0.29,-0.71,-0.32,0.31,0.12,0.07
10.219,-0.29,-0.71,-0.32,0.31,0.12,0.07
10.219,-0.29,-0.71,-0.32,0.31,0.17,0.08
10.22,-0.29,-0.71,-0.32,0.31,0.17,0.08
10.22,-0.37,-0.77,-0.43,0.31,0.17,0.08
10.221,-0.37,-0.77,-0.43,0.31,0.17,0.08
10.221,-0.37,-0.77,-0.43,0.33,0.17,0.08
10.221,-0.37,-0.77,-0.43,0.33,0.17,0.08
10.222,-0.41,-0.74,-0.53,0.33,0.17,0.08
10.222,-0.41,-0.74,-0.53,0.33,0.17,0.08
10.223,-0.41,-0.74,-0.53,0.33,0.17,0.08
10.223,-0.41,-0.74,-0.53,0.33,0.17,0.08
10.224,-0.41,-0.74,-0.53,0.33,0.17,0.08
10.224,-0.41,-0.74,-0.53,0.33,0.17,0.08
10.233,-0.41,-0.74,-0.53,0.35,0.13,0.07
10.234,-0.41,-0.74,-0.53,0.35,0.13,0.07
10.234,-0.5,-0.63,-0.41,0.35,0.13,0.07
10.234,-0.5,-0.63,-0.41,0.35,0.13,0.07
10.243,-0.5,-0.63,-0.41,0.38,0.05,0.05
10.244,-0.5,-0.63,-0.41,0.38,0.05,0.05
10.244,-0.51,-0.51,-0.24,0.38,0.05,0.05
10.244,-0.51,-0.51,-0.24,0.38,0.05,0.05
10.252,-0.51,-0.51,-0.24,0.39,-0.04,0.03
10.253,-0.51,-0.51,-0.24,0.39,-0.04,0.03
10.253,-0.55,-0.42,-0.01,0.39,-0.04,0.03
10.254,-0.55,-0.42,-0.01,0.39,-0.04,0.03
10.265,-0.55,-0.42,-0.01,0.36,-0.12,0.02
10.266,-0.55,-0.42,-0.01,0.36,-0.12,0.02
10.266,-0.59,-0.34,0.17,0.36,-0.12,0.02
10.266,-0.59,-0.34,0.17,0.36,-0.12,0.02
10.271,-0.59,-0.34,0.17,0.3,-0.17,0.02
10.272,-0.59,-0.34,0.17,0.3,-0.17,0.02
10.272,-0.62,-0.26,0.33,0.3,-0.17,0.02
10.272,-0.62,-0.26,0.33,0.3,-0.17,0.02
10.284,-0.62,-0.26,0.33,0.23,-0.19,0.03
10.285,-0.62,-0.26,0.33,0.23,-0.19,0.03
10.285,-0.67,-0.16,0.5,0.23,-0.19,0.03
10.285,-0.67,-0.16,0.5,0.23,-0.19,0.03
10.29,-0.67,-0.16,0.5,0.16,-0.19,0.03
10.291,-0.67,-0.16,0.5,0.16,-0.19,0.03
10.291,-0.71,-0.06,0.61,0.16,-0.19,0.03
10.292,-0.71,-0.06,0.61,0.16,-0.19,0.03
10.3,-0.71,-0.06,0.61,0.09,-0.19,0.03
10.301,-0.71,-0.06,0.61,0.09,-0.19,0.03
10.301,-0.7,0.01,0.72,0.09,-0.19,0.03
10.302,-0.7,0.01,0.72,0.09,-0.19,0.03
10.309,-0.7,0.01,0.72,0.02,-0.18,0.03
10.31,-0.7,0.01,0.72,0.02,-0.18,0.03
10.31,-0.69,0.05,0.79,0.02,-0.18,0.03
10.311,-0.69,0.05,0.79,0.02,-0.18,0.03
10.319,-0.69,0.05,0.79,-0.05,-0.17,0.03
10.32,-0.69,0.05,0.79,-0.05,-0.17,0.03
10.32,-0.64,0.05,0.82,-0.05,-0.17,0.03
10.321,-0.64,0.05,0.82,-0.05,-0.17,0.03
10.328,-0.64,0.05,0.82,-0.1,-0.15,0.03
10.329,-0.64,0.05,0.82,-0.1,-0.15,0.03
10.33,-0.56,0.04,0.83,-0.1,-0.15,0.03
10.33,-0.56,0.04,0.83,-0.1,-0.15,0.03
10.338,-0.56,0.04,0.83,-0.14,-0.12,0.02
10.339,-0.56,0.04,0.83,-0.14,-0.12,0.02
10.339,-0.48,0.06,0.84,-0.14,-0.12,0.02
10.339,-0.48,0.06,0.84,-0.14,-0.12,0.02
10.347,-0.48,0.06,0.84,-0.16,-0.09,0.04
10.348,-0.48,0.06,0.84,-0.16,-0.09,0.04
10.349,-0.38,0.09,0.84,-0.16,-0.09,0.04
10.349,-0.38,0.09,0.84,-0.16,-0.09,0.04
10.358,-0.38,0.09,0.84,-0.18,-0.04,0.06
10.359,-0.38,0.09,0.84,-0.18,-0.04,0.06
10.359,-0.27,0.11,0.79,-0.18,-0.04,0.06
10.36,-0.27,0.11,0.79,-0.18,-0.04,0.06
10.366,-0.27,0.11,0.79,-0.19,0.02,0.08
10.367,-0.27,0.11,0.79,-0.19,0.02,0.08
10.368,-0.18,0.12,0.73,-0.19,0.02,0.08
10.368,-0.18,0.12,0.73,-0.19,0.02,0.08
10.376,-0.18,0.12,0.73,-0.18,0.08,0.08
10.376,-0.18,0.12,0.73,-0.18,0.08,0.08
10.377,-0.11,0.11,0.63,-0.18,0.08,0.08
10.377,-0.11,0.11,0.63,-0.18,0.08,0.08
10.386,-0.11,0.11,0.63,-0.17,0.15,0.07
10.387,-0.11,0.11,0.63,-0.17,0.15,0.07
10.387,-0.08,0.09,0.48,-0.17,0.15,0.07
10.388,-0.08,0.09,0.48,-0.17,0.15,0.07
10.404,-0.08,0.09,0.48,-0.15,0.2,0.05
10.405,-0.08,0.09,0.48,-0.15,0.2,0.05
10.405,-0.09,0.08,0.34,-0.15,0.2,0.05
10.406,-0.09,0.08,0.34,-0.15,0.2,0.05
10.406,-0.09,0.08,0.34,-0.13,0.22,0.02
10.406,-0.09,0.08,0.34,-0.13,0.22,0.02
10.406,-0.08,0.06,0.23,-0.13,0.22,0.02
10.407,-0.08,0.06,0.23,-0.13,0.22,0.02
10.414,-0.08,0.06,0.23,-0.1,0.22,0.01
10.415,-0.08,0.06,0.23,-0.1,0.22,0.01
10.415,-0.12,0.03,0.13,-0.1,0.22,0.01
10.415,-0.12,0.03,0.13,-0.1,0.22,0.01
10.424,-0.12,0.03,0.13,-0.1,0.22,0.01
10.425,-0.12,0.03,0.13,-0.1,0.22,0.01
10.425,-0.12,0.03,0.13,-0.1,0.22,0.01
10.426,-0.12,0.03,0.13,-0.1,0.22,0.01
10.434,-0.12,0.03,0.13,-0.08,0.19,0
10.436,-0.12,0.03,0.13,-0.08,0.19,0
10.437,-0.13,0,0.08,-0.08,0.19,0
10.438,-0.13,0,0.08,-0.08,0.19,0
10.442,-0.13,0,0.08,-0.06,0.14,0
10.443,-0.13,0,0.08,-0.06,0.14,0
10.443,-0.16,-0.01,0.09,-0.06,0.14,0
10.443,-0.16,-0.01,0.09,-0.06,0.14,0
10.453,-0.16,-0.01,0.09,-0.04,0.08,0.02
10.453,-0.16,-0.01,0.09,-0.04,0.08,0.02
10.454,-0.19,-0.01,0.15,-0.04,0.08,0.02
10.454,-0.19,-0.01,0.15,-0.04,0.08,0.02
10.466,-0.19,-0.01,0.15,-0.02,0.03,0.04
10.467,-0.19,-0.01,0.15,-0.02,0.03,0.04
10.468,-0.21,0,0.22,-0.02,0.03,0.04
10.468,-0.21,0,0.22,-0.02,0.03,0.04
10.475,-0.21,0,0.22,0,-0.02,0.05
10.476,-0.21,0,0.22,0,-0.02,0.05
10.477,-0.24,0.02,0.32,0,-0.02,0.05
10.477,-0.24,0.02,0.32,0,-0.02,0.05
10.482,-0.24,0.02,0.32,0.02,-0.06,0.03
10.483,-0.24,0.02,0.32,0.02,-0.06,0.03
10.484,-0.21,0.05,0.4,0.02,-0.06,0.03
10.484,-0.21,0.05,0.4,0.02,-0.06,0.03
10.49,-0.21,0.05,0.4,0.05,-0.08,0
10.491,-0.21,0.05,0.4,0.05,-0.08,0
10.491,-0.17,0.06,0.5,0.05,-0.08,0
10.492,-0.17,0.06,0.5,0.05,-0.08,0
10.499,-0.17,0.06,0.5,0.07,-0.08,-0.02
10.501,-0.17,0.06,0.5,0.07,-0.08,-0.02
10.502,-0.14,0.06,0.59,0.07,-0.08,-0.02
10.503,-0.14,0.06,0.59,0.07,-0.08,-0.02
10.509,-0.14,0.06,0.59,0.07,-0.06,-0.03
10.51,-0.14,0.06,0.59,0.07,-0.06,-0.03
10.51,-0.14,0.04,0.6,0.07,-0.06,-0.03
10.51,-0.14,0.04,0.6,0.07,-0.06,-0.03
10.519,-0.14,0.04,0.6,0.06,-0.02,-0.02
10.52,-0.14,0.04,0.6,0.06,-0.02,-0.02
10.52,-0.17,0.02,0.63,0.06,-0.02,-0.02
10.521,-0.17,0.02,0.63,0.06,-0.02,-0.02
10.528,-0.17,0.02,0.63,0.05,0.02,0
10.528,-0.17,0.02,0.63,0.05,0.02,0
10.529,-0.2,0.02,0.64,0.05,0.02,0
10.529,-0.2,0.02,0.64,0.05,0.02,0
10.538,-0.2,0.02,0.64,0.05,0.05,0
10.538,-0.2,0.02,0.64,0.05,0.05,0
10.539,-0.23,0.02,0.65,0.05,0.05,0
10.539,-0.23,0.02,0.65,0.05,0.05,0
10.547,-0.23,0.02,0.65,0.07,0.07,0
10.548,-0.23,0.02,0.65,0.07,0.07,0
10.549,-0.23,0.01,0.71,0.07,0.07,0
10.549,-0.23,0.01,0.71,0.07,0.07,0
10.557,-0.23,0.01,0.71,0.08,0.07,-0.01
10.558,-0.23,0.01,0.71,0.08,0.07,-0.01
10.558,-0.24,0,0.73,0.08,0.07,-0.01
10.559,-0.24,0,0.73,0.08,0.07,-0.01
10.566,-0.24,0,0.73,0.1,0.06,-0.03
10.567,-0.24,0,0.73,0.1,0.06,-0.03
10.568,-0.24,-0.01,0.71,0.1,0.06,-0.03
10.569,-0.24,-0.01,0.71,0.1,0.06,-0.03
10.575,-0.24,-0.01,0.71,0.11,0.05,-0.03
10.576,-0.24,-0.01,0.71,0.11,0.05,-0.03
10.577,-0.23,0,0.67,0.11,0.05,-0.03
10.577,-0.23,0,0.67,0.11,0.05,-0.03
10.586,-0.23,0,0.67,0.12,0.04,-0.05
10.587,-0.23,0,0.67,0.12,0.04,-0.05
10.588,-0.22,0.04,0.6,0.12,0.04,-0.05
10.588,-0.22,0.04,0.6,0.12,0.04,-0.05
10.606,-0.22,0.04,0.6,0.13,0.03,-0.07
10.606,-0.22,0.04,0.6,0.13,0.03,-0.07
10.607,-0.22,0.06,0.55,0.13,0.03,-0.07
10.607,-0.22,0.06,0.55,0.13,0.03,-0.07
10.607,-0.22,0.06,0.55,0.13,0.02,-0.08
10.608,-0.22,0.06,0.55,0.13,0.02,-0.08
10.608,-0.24,0.07,0.5,0.13,0.02,-0.08
10.608,-0.24,0.07,0.5,0.13,0.02,-0.08
10.614,-0.24,0.07,0.5,0.1,0.01,-0.07
10.615,-0.24,0.07,0.5,0.1,0.01,-0.07
10.615,-0.24,0.08,0.45,0.1,0.01,-0.07
10.616,-0.24,0.08,0.45,0.1,0.01,-0.07
10.624,-0.24,0.08,0.45,0.1,0.01,-0.07
10.625,-0.24,0.08,0.45,0.1,0.01,-0.07
10.626,-0.24,0.08,0.45,0.1,0.01,-0.07
10.627,-0.24,0.08,0.45,0.1,0.01,-0.07
10.634,-0.24,0.08,0.45,0.06,0,-0.04
10.635,-0.24,0.08,0.45,0.06,0,-0.04
10.635,-0.21,0.08,0.33,0.06,0,-0.04
10.636,-0.21,0.08,0.33,0.06,0,-0.04
10.642,-0.21,0.08,0.33,0.02,-0.02,-0.01
10.643,-0.21,0.08,0.33,0.02,-0.02,-0.01
10.643,-0.19,0.08,0.26,0.02,-0.02,-0.01
10.644,-0.19,0.08,0.26,0.02,-0.02,-0.01
10.652,-0.19,0.08,0.26,-0.01,-0.03,0
10.653,-0.19,0.08,0.26,-0.01,-0.03,0
10.653,-0.19,0.08,0.23,-0.01,-0.03,0
10.654,-0.19,0.08,0.23,-0.01,-0.03,0
10.666,-0.19,0.08,0.23,-0.04,-0.05,0.01
10.667,-0.19,0.08,0.23,-0.04,-0.05,0.01
10.668,-0.18,0.08,0.22,-0.04,-0.05,0.01
10.668,-0.18,0.08,0.22,-0.04,-0.05,0.01
10.671,-0.18,0.08,0.22,-0.05,-0.06,0.01
10.672,-0.18,0.08,0.22,-0.05,-0.06,0.01
10.672,-0.19,0.06,0.24,-0.05,-0.06,0.01
10.672,-0.19,0.06,0.24,-0.05,-0.06,0.01
10.688,-0.19,0.06,0.24,-0.06,-0.07,0.01
10.689,-0.19,0.06,0.24,-0.06,-0.07,0.01
10.689,-0.19,0.06,0.26,-0.06,-0.07,0.01
10.69,-0.19,0.06,0.26,-0.06,-0.07,0.01
10.69,-0.19,0.06,0.26,-0.07,-0.07,0
10.69,-0.19,0.06,0.26,-0.07,-0.07,0
10.69,-0.17,0.06,0.29,-0.07,-0.07,0
10.691,-0.17,0.06,0.29,-0.07,-0.07,0
10.7,-0.17,0.06,0.29,-0.06,-0.06,0
10.701,-0.17,0.06,0.29,-0.06,-0.06,0
10.701,-0.19,0.08,0.32,-0.06,-0.06,0
10.702,-0.19,0.08,0.32,-0.06,-0.06,0
10.71,-0.19,0.08,0.32,-0.05,-0.05,0
10.71,-0.19,0.08,0.32,-0.05,-0.05,0
10.711,-0.19,0.11,0.36,-0.05,-0.05,0
10.711,-0.19,0.11,0.36,-0.05,-0.05,0
10.719,-0.19,0.11,0.36,-0.04,-0.04,0.01
10.72,-0.19,0.11,0.36,-0.04,-0.04,0.01
10.721,-0.2,0.14,0.4,-0.04,-0.04,0.01
10.721,-0.2,0.14,0.4,-0.04,-0.04,0.01
10.728,-0.2,0.14,0.4,-0.05,-0.02,0.03
10.73,-0.2,0.14,0.4,-0.05,-0.02,0.03
10.73,-0.23,0.15,0.42,-0.05,-0.02,0.03
10.731,-0.23,0.15,0.42,-0.05,-0.02,0.03
10.738,-0.23,0.15,0.42,-0.07,-0.01,0.05
10.738,-0.23,0.15,0.42,-0.07,-0.01,0.05
10.739,-0.25,0.15,0.43,-0.07,-0.01,0.05
10.739,-0.25,0.15,0.43,-0.07,-0.01,0.05
10.747,-0.25,0.15,0.43,-0.08,0,0.06
10.748,-0.25,0.15,0.43,-0.08,0,0.06
10.749,-0.26,0.12,0.44,-0.08,0,0.06
10.749,-0.26,0.12,0.44,-0.08,0,0.06
10.757,-0.26,0.12,0.44,-0.09,0.01,0.05
10.758,-0.26,0.12,0.44,-0.09,0.01,0.05
10.758,-0.28,0.06,0.45,-0.09,0.01,0.05
10.759,-0.28,0.06,0.45,-0.09,0.01,0.05
10.767,-0.28,0.06,0.45,-0.08,0.01,0.04
10.768,-0.28,0.06,0.45,-0.08,0.01,0.04
10.769,-0.3,0.02,0.47,-0.08,0.01,0.04
10.769,-0.3,0.02,0.47,-0.08,0.01,0.04
10.783,-0.3,0.02,0.47,-0.06,0,0.03
10.784,-0.3,0.02,0.47,-0.06,0,0.03
10.785,-0.3,-0.01,0.47,-0.06,0,0.03
10.785,-0.3,-0.01,0.47,-0.06,0,0.03
10.786,-0.3,-0.01,0.47,-0.02,-0.01,0.01
10.786,-0.3,-0.01,0.47,-0.02,-0.01,0.01
10.786,-0.29,-0.02,0.48,-0.02,-0.01,0.01
10.787,-0.29,-0.02,0.48,-0.02,-0.01,0.01
10.801,-0.29,-0.02,0.48,0.03,-0.02,-0.01
10.802,-0.29,-0.02,0.48,0.03,-0.02,-0.01
10.803,-0.26,-0.03,0.46,0.03,-0.02,-0.01
10.803,-0.26,-0.03,0.46,0.03,-0.02,-0.01
10.804,-0.26,-0.03,0.46,0.07,-0.03,-0.03
10.805,-0.26,-0.03,0.46,0.07,-0.03,-0.03
10.805,-0.24,-0.03,0.44,0.07,-0.03,-0.03
10.805,-0.24,-0.03,0.44,0.07,-0.03,-0.03
10.815,-0.24,-0.03,0.44,0.11,-0.03,-0.04
10.816,-0.24,-0.03,0.44,0.11,-0.03,-0.04
10.817,-0.22,-0.02,0.43,0.11,-0.03,-0.04
10.817,-0.22,-0.02,0.43,0.11,-0.03,-0.04
10.823,-0.22,-0.02,0.43,0.11,-0.03,-0.04
10.824,-0.22,-0.02,0.43,0.11,-0.03,-0.04
10.825,-0.22,-0.02,0.43,0.11,-0.03,-0.04
10.825,-0.22,-0.02,0.43,0.11,-0.03,-0.04
10.833,-0.22,-0.02,0.43,0.13,-0.02,-0.04
10.834,-0.22,-0.02,0.43,0.13,-0.02,-0.04
10.835,-0.23,-0.02,0.48,0.13,-0.02,-0.04
10.835,-0.23,-0.02,0.48,0.13,-0.02,-0.04
10.843,-0.23,-0.02,0.48,0.13,-0.01,-0.03
10.843,-0.23,-0.02,0.48,0.13,-0.01,-0.03
10.844,-0.24,-0.02,0.51,0.13,-0.01,-0.03
10.844,-0.24,-0.02,0.51,0.13,-0.01,-0.03
10.852,-0.24,-0.02,0.51,0.12,0,-0.02
10.853,-0.24,-0.02,0.51,0.12,0,-0.02
10.854,-0.23,0,0.54,0.12,0,-0.02
10.854,-0.23,0,0.54,0.12,0,-0.02
10.866,-0.23,0,0.54,0.12,0.01,-0.01
10.866,-0.23,0,0.54,0.12,0.01,-0.01
10.867,-0.23,0.04,0.52,0.12,0.01,-0.01
10.867,-0.23,0.04,0.52,0.12,0.01,-0.01
10.871,-0.23,0.04,0.52,0.11,0.02,-0.01
10.872,-0.23,0.04,0.52,0.11,0.02,-0.01
10.873,-0.23,0.1,0.52,0.11,0.02,-0.01
10.873,-0.23,0.1,0.52,0.11,0.02,-0.01
10.887,-0.23,0.1,0.52,0.09,0.03,-0.02
10.887,-0.23,0.1,0.52,0.09,0.03,-0.02
10.888,-0.24,0.16,0.52,0.09,0.03,-0.02
10.888,-0.24,0.16,0.52,0.09,0.03,-0.02
10.89,-0.24,0.16,0.52,0.07,0.03,-0.03
10.891,-0.24,0.16,0.52,0.07,0.03,-0.03
10.891,-0.24,0.21,0.53,0.07,0.03,-0.03
10.891,-0.24,0.21,0.53,0.07,0.03,-0.03
10.9,-0.24,0.21,0.53,0.03,0.03,-0.03
10.901,-0.24,0.21,0.53,0.03,0.03,-0.03
10.901,-0.2,0.22,0.57,0.03,0.03,-0.03
10.901,-0.2,0.22,0.57,0.03,0.03,-0.03
10.91,-0.2,0.22,0.57,-0.03,0.04,-0.02
10.91,-0.2,0.22,0.57,-0.03,0.04,-0.02
10.911,-0.16,0.22,0.61,-0.03,0.04,-0.02
10.912,-0.16,0.22,0.61,-0.03,0.04,-0.02
10.919,-0.16,0.22,0.61,-0.09,0.05,0.01
10.92,-0.16,0.22,0.61,-0.09,0.05,0.01
10.921,-0.15,0.22,0.64,-0.09,0.05,0.01
10.921,-0.15,0.22,0.64,-0.09,0.05,0.01
10.928,-0.15,0.22,0.64,-0.15,0.07,0.04
10.929,-0.15,0.22,0.64,-0.15,0.07,0.04
10.93,-0.17,0.2,0.67,-0.15,0.07,0.04
10.93,-0.17,0.2,0.67,-0.15,0.07,0.04
10.937,-0.17,0.2,0.67,-0.18,0.09,0.07
10.938,-0.17,0.2,0.67,-0.18,0.09,0.07
10.939,-0.21,0.2,0.65,-0.18,0.09,0.07
10.939,-0.21,0.2,0.65,-0.18,0.09,0.07
10.948,-0.21,0.2,0.65,-0.19,0.11,0.08
10.95,-0.21,0.2,0.65,-0.19,0.11,0.08
10.951,-0.2,0.17,0.63,-0.19,0.11,0.08
10.951,-0.2,0.17,0.63,-0.19,0.11,0.08
10.958,-0.2,0.17,0.63,-0.18,0.11,0.07
10.959,-0.2,0.17,0.63,-0.18,0.11,0.07
10.959,-0.19,0.12,0.59,-0.18,0.11,0.07
10.96,-0.19,0.12,0.59,-0.18,0.11,0.07
10.966,-0.19,0.12,0.59,-0.16,0.1,0.06
10.967,-0.19,0.12,0.59,-0.16,0.1,0.06
10.967,-0.13,0.08,0.56,-0.16,0.1,0.06
10.967,-0.13,0.08,0.56,-0.16,0.1,0.06
10.98,-0.13,0.08,0.56,-0.14,0.09,0.07
10.981,-0.13,0.08,0.56,-0.14,0.09,0.07
10.981,-0.11,0.06,0.53,-0.14,0.09,0.07
10.982,-0.11,0.06,0.53,-0.14,0.09,0.07
10.986,-0.11,0.06,0.53,-0.11,0.09,0.08
10.986,-0.11,0.06,0.53,-0.11,0.09,0.08
10.987,-0.11,0.06,0.53,-0.11,0.09,0.08
10.987,-0.11,0.06,0.53,-0.11,0.09,0.08
11,-0.11,0.06,0.53,-0.08,0.08,0.09
11,-0.11,0.06,0.53,-0.08,0.08,0.09
11.001,-0.11,0.06,0.53,-0.08,0.08,0.09
11.001,-0.11,0.06,0.53,-0.08,0.08,0.09
11.005,-0.11,0.06,0.53,-0.05,0.08,0.09
11.005,-0.11,0.06,0.53,-0.05,0.08,0.09
11.006,-0.11,0.06,0.53,-0.05,0.08,0.09
11.006,-0.11,0.06,0.53,-0.05,0.08,0.09
11.014,-0.11,0.06,0.53,-0.05,0.08,0.09
11.015,-0.11,0.06,0.53,-0.05,0.08,0.09
11.015,-0.11,0.06,0.53,-0.05,0.08,0.09
11.016,-0.11,0.06,0.53,-0.05,0.08,0.09
11.024,-0.11,0.06,0.53,-0.02,0.08,0.08
11.025,-0.11,0.06,0.53,-0.02,0.08,0.08
11.025,-0.12,0.06,0.53,-0.02,0.08,0.08
11.026,-0.12,0.06,0.53,-0.02,0.08,0.08
11.034,-0.12,0.06,0.53,0,0.07,0.08
11.035,-0.12,0.06,0.53,0,0.07,0.08
11.035,-0.12,0.06,0.53,0,0.07,0.08
11.036,-0.12,0.06,0.53,0,0.07,0.08
11.042,-0.12,0.06,0.53,0.01,0.07,0.07
11.043,-0.12,0.06,0.53,0.01,0.07,0.07
11.043,-0.12,0.06,0.53,0.01,0.07,0.07
11.043,-0.12,0.06,0.53,0.01,0.07,0.07
11.052,-0.12,0.06,0.53,0.01,0.06,0.06
11.053,-0.12,0.06,0.53,0.01,0.06,0.06
11.053,-0.12,0.06,0.53,0.01,0.06,0.06
11.054,-0.12,0.06,0.53,0.01,0.06,0.06
11.061,-0.12,0.06,0.53,0.01,0.05,0.05
11.062,-0.12,0.06,0.53,0.01,0.05,0.05
11.062,-0.12,0.06,0.53,0.01,0.05,0.05
11.063,-0.12,0.06,0.53,0.01,0.05,0.05
11.071,-0.12,0.06,0.53,0.01,0.04,0.04
11.072,-0.12,0.06,0.53,0.01,0.04,0.04
11.072,-0.12,0.06,0.53,0.01,0.04,0.04
11.073,-0.12,0.06,0.53,0.01,0.04,0.04
11.081,-0.12,0.06,0.53,0.01,0.03,0.04
11.081,-0.12,0.06,0.53,0.01,0.03,0.04
11.082,-0.12,0.06,0.52,0.01,0.03,0.04
11.082,-0.12,0.06,0.52,0.01,0.03,0.04
11.103,-0.12,0.06,0.52,0.01,0.03,0.03
11.105,-0.12,0.06,0.52,0.01,0.03,0.03
11.105,-0.13,0.06,0.52,0.01,0.03,0.03
11.105,-0.13,0.06,0.52,0.01,0.03,0.03
11.106,-0.13,0.06,0.52,0.01,0.03,0.03
11.106,-0.13,0.06,0.52,0.01,0.03,0.03
11.106,-0.13,0.06,0.52,0.01,0.03,0.03
11.107,-0.13,0.06,0.52,0.01,0.03,0.03
11.121,-0.13,0.06,0.52,0,0.02,0.02
11.122,-0.13,0.06,0.52,0,0.02,0.02
11.123,-0.13,0.06,0.52,0,0.02,0.02
11.123,-0.13,0.06,0.52,0,0.02,0.02
11.123,-0.13,0.06,0.52,0,0.02,0.02
11.124,-0.13,0.06,0.52,0,0.02,0.02
11.124,-0.14,0.06,0.52,0,0.02,0.02
11.124,-0.14,0.06,0.52,0,0.02,0.02
11.13,-0.14,0.06,0.52,0,0.01,0.01
11.131,-0.14,0.06,0.52,0,0.01,0.01
11.131,-0.14,0.06,0.52,0,0.01,0.01
11.132,-0.14,0.06,0.52,0,0.01,0.01
11.138,-0.14,0.06,0.52,0,0.01,0.01
11.139,-0.14,0.06,0.52,0,0.01,0.01
11.14,-0.15,0.06,0.51,0,0.01,0.01
11.14,-0.15,0.06,0.51,0,0.01,0.01
11.147,-0.15,0.06,0.51,0,0.01,0.01
11.149,-0.15,0.06,0.51,0,0.01,0.01
11.15,-0.15,0.07,0.51,0,0.01,0.01
11.15,-0.15,0.07,0.51,0,0.01,0.01
11.157,-0.15,0.07,0.51,0,0.01,0.01
11.157,-0.15,0.07,0.51,0,0.01,0.01
11.158,-0.15,0.07,0.51,0,0.01,0.01
11.158,-0.15,0.07,0.51,0,0.01,0.01
11.167,-0.15,0.07,0.51,0,0.01,0.01
11.168,-0.15,0.07,0.51,0,0.01,0.01
11.168,-0.16,0.07,0.51,0,0.01,0.01
11.169,-0.16,0.07,0.51,0,0.01,0.01
11.175,-0.16,0.07,0.51,0,0,0
11.176,-0.16,0.07,0.51,0,0,0
11.176,-0.16,0.07,0.51,0,0,0
11.176,-0.16,0.07,0.51,0,0,0
11.185,-0.16,0.07,0.51,0,0,0
11.186,-0.16,0.07,0.51,0,0,0
11.186,-0.17,0.07,0.5,0,0,0
11.186,-0.17,0.07,0.5,0,0,0
11.201,-0.17,0.07,0.5,0,0,0
11.202,-0.17,0.07,0.5,0,0,0
11.202,-0.17,0.07,0.5,0,0,0
11.203,-0.17,0.07,0.5,0,0,0
11.204,-0.17,0.07,0.5,0,0,0
11.205,-0.17,0.07,0.5,0,0,0
11.205,-0.17,0.07,0.5,0,0,0
11.205,-0.17,0.07,0.5,0,0,0
11.214,-0.17,0.07,0.5,0,0,0
11.215,-0.17,0.07,0.5,0,0,0
11.215,-0.18,0.07,0.5,0,0,0
11.216,-0.18,0.07,0.5,0,0,0
11.224,-0.18,0.07,0.5,0,0,0
11.225,-0.18,0.07,0.5,0,0,0
11.225,-0.18,0.07,0.5,0,0,0
11.226,-0.18,0.07,0.5,0,0,0
11.233,-0.18,0.07,0.5,0,0,0
11.234,-0.18,0.07,0.5,0,0,0
11.234,-0.18,0.07,0.5,0,0,0
11.235,-0.18,0.07,0.5,0,0,0
11.244,-0.18,0.07,0.5,0,0,0
11.245,-0.18,0.07,0.5,0,0,0
11.245,-0.19,0.07,0.5,0,0,0
11.246,-0.19,0.07,0.5,0,0,0
11.252,-0.19,0.07,0.5,0,0,0
11.253,-0.19,0.07,0.5,0,0,0
11.254,-0.19,0.07,0.49,0,0,0
11.254,-0.19,0.07,0.49,0,0,0
11.262,-0.19,0.07,0.49,0,0,0
11.263,-0.19,0.07,0.49,0,0,0
11.263,-0.19,0.07,0.49,0,0,0
11.264,-0.19,0.07,0.49,0,0,0
11.271,-0.19,0.07,0.49,0,0,0
11.272,-0.19,0.07,0.49,0,0,0
11.273,-0.2,0.07,0.49,0,0,0
11.273,-0.2,0.07,0.49,0,0,0
11.284,-0.2,0.07,0.49,0,0,0
11.285,-0.2,0.07,0.49,0,0,0
11.285,-0.2,0.07,0.49,0,0,0
11.286,-0.2,0.07,0.49,0,0,0
11.29,-0.2,0.07,0.49,0,0,0
11.291,-0.2,0.07,0.49,0,0,0
11.291,-0.2,0.07,0.49,0,0,0
11.292,-0.2,0.07,0.49,0,0,0
11.302,-0.2,0.07,0.49,0,0,0
11.303,-0.2,0.07,0.49,0,0,0
11.303,-0.2,0.07,0.49,0,0,0
11.304,-0.2,0.07,0.49,0,0,0
11.311,-0.2,0.07,0.49,0,0,0
11.311,-0.2,0.07,0.49,0,0,0
11.312,-0.21,0.07,0.48,0,0,0
11.312,-0.21,0.07,0.48,0,0,0
11.318,-0.21,0.07,0.48,0,0,0
11.319,-0.21,0.07,0.48,0,0,0
11.32,-0.21,0.07,0.48,0,0,0
11.32,-0.21,0.07,0.48,0,0,0
11.328,-0.21,0.07,0.48,0,0,0
11.329,-0.21,0.07,0.48,0,0,0
11.329,-0.21,0.07,0.48,0,0,0
11.33,-0.21,0.07,0.48,0,0,0
11.338,-0.21,0.07,0.48,0,0,0
11.339,-0.21,0.07,0.48,0,0,0
11.34,-0.22,0.07,0.48,0,0,0
11.34,-0.22,0.07,0.48,0,0,0
11.347,-0.22,0.07,0.48,0,0,0
11.349,-0.22,0.07,0.48,0,0,0
11.349,-0.22,0.07,0.48,0,0,0
11.35,-0.22,0.07,0.48,0,0,0
11.357,-0.22,0.07,0.48,0,0,0
11.358,-0.22,0.07,0.48,0,0,0
11.359,-0.22,0.07,0.48,0,0,0
11.359,-0.22,0.07,0.48,0,0,0
11.366,-0.22,0.07,0.48,0,0,0
11.368,-0.22,0.07,0.48,0,0,0
11.369,-0.22,0.07,0.48,0,0,0
11.369,-0.22,0.07,0.48,0,0,0
11.381,-0.22,0.07,0.48,0,0,0
11.382,-0.22,0.07,0.48,0,0,0
11.382,-0.22,0.07,0.48,0,0,0
11.383,-0.22,0.07,0.48,0,0,0
11.385,-0.22,0.07,0.48,0,0,0
11.386,-0.22,0.07,0.48,0,0,0
11.386,-0.23,0.07,0.48,0,0,0
11.387,-0.23,0.07,0.48,0,0,0
11.407,-0.23,0.07,0.48,0,0,0
11.408,-0.23,0.07,0.48,0,0,0
11.408,-0.23,0.07,0.47,0,0,0
11.408,-0.23,0.07,0.47,0,0,0
11.409,-0.23,0.07,0.47,0,0,0
11.409,-0.23,0.07,0.47,0,0,0
11.409,-0.23,0.07,0.47,0,0,0
11.409,-0.23,0.07,0.47,0,0,0
11.415,-0.23,0.07,0.47,0,0,0
11.416,-0.23,0.07,0.47,0,0,0
11.416,-0.23,0.07,0.47,0,0,0
11.417,-0.23,0.07,0.47,0,0,0
11.423,-0.23,0.07,0.47,0,0,0
11.424,-0.23,0.07,0.47,0,0,0
11.425,-0.23,0.07,0.47,0,0,0
11.426,-0.23,0.07,0.47,0,0,0
11.433,-0.23,0.07,0.47,0,0,0
11.434,-0.23,0.07,0.47,0,0,0
11.435,-0.23,0.07,0.47,0,0,0
11.435,-0.23,0.07,0.47,0,0,0
11.443,-0.23,0.07,0.47,0,0,0
11.444,-0.23,0.07,0.47,0,0,0
11.445,-0.23,0.07,0.47,0,0,0
11.446,-0.23,0.07,0.47,0,0,0
11.452,-0.23,0.07,0.47,0,0,0
11.453,-0.23,0.07,0.47,0,0,0
11.453,-0.23,0.07,0.47,0,0,0
11.454,-0.23,0.07,0.47,0,0,0
11.461,-0.23,0.07,0.47,0,0,0
11.462,-0.23,0.07,0.47,0,0,0
11.463,-0.23,0.07,0.47,0,0,0
11.463,-0.23,0.07,0.47,0,0,0
11.471,-0.23,0.07,0.47,0,0,0
11.471,-0.23,0.07,0.47,0,0,0
11.472,-0.23,0.07,0.47,0,0,0
11.472,-0.23,0.07,0.47,0,0,0
11.481,-0.23,0.07,0.47,0,0,0
11.482,-0.23,0.07,0.47,0,0,0
11.483,-0.23,0.07,0.47,0,0,0
11.483,-0.23,0.07,0.47,0,0,0
11.49,-0.23,0.07,0.47,0,0,0
11.491,-0.23,0.07,0.47,0,0,0
11.491,-0.23,0.07,0.47,0,0,0
11.492,-0.23,0.07,0.47,0,0,0
11.502,-0.23,0.07,0.47,0,0,0
11.503,-0.23,0.07,0.47,0,0,0
11.504,-0.23,0.07,0.47,0,0,0
11.504,-0.23,0.07,0.47,0,0,0
11.511,-0.23,0.07,0.47,0,0,0
11.512,-0.23,0.07,0.47,0,0,0
11.512,-0.23,0.07,0.47,0,0,0
11.513,-0.23,0.07,0.47,0,0,0
11.519,-0.23,0.07,0.47,0,0,0
11.52,-0.23,0.07,0.47,0,0,0
11.521,-0.23,0.07,0.47,0,0,0
11.521,-0.23,0.07,0.47,0,0,0
11.528,-0.23,0.07,0.47,0,0,0
11.529,-0.23,0.07,0.47,0,0,0
11.53,-0.23,0.07,0.47,0,0,0
11.53,-0.23,0.07,0.47,0,0,0
11.538,-0.23,0.07,0.47,0,0,0
11.539,-0.23,0.07,0.47,0,0,0
11.54,-0.23,0.07,0.47,0,0,0
11.54,-0.23,0.07,0.47,0,0,0
11.547,-0.23,0.07,0.47,0,0,0
11.549,-0.23,0.07,0.47,0,0,0
11.55,-0.23,0.07,0.47,0,0,0
11.551,-0.23,0.07,0.47,0,0,0
11.556,-0.23,0.07,0.47,0,0,0
11.558,-0.23,0.07,0.47,0,0,0
11.559,-0.23,0.07,0.47,0,0,0
11.559,-0.23,0.07,0.47,0,0,0
11.567,-0.23,0.07,0.47,0,0,0
11.567,-0.23,0.07,0.47,0,0,0
11.568,-0.23,0.07,0.47,0,0,0
11.569,-0.23,0.07,0.47,0,0,0
11.575,-0.23,0.07,0.47,0,0,0
11.576,-0.23,0.07,0.47,0,0,0
11.576,-0.23,0.07,0.47,0,0,0
11.577,-0.23,0.07,0.47,0,0,0
11.585,-0.23,0.07,0.47,0,0,0
11.586,-0.23,0.07,0.47,0,0,0
11.587,-0.23,0.07,0.47,0,0,0
11.587,-0.23,0.07,0.47,0,0,0
11.604,-0.23,0.07,0.47,0,0,0
11.605,-0.23,0.07,0.47,0,0,0
11.605,-0.23,0.07,0.47,0,0,0
11.606,-0.23,0.07,0.47,0,0,0
11.606,-0.23,0.07,0.47,0,0,0
11.606,-0.23,0.07,0.47,0,0,0
11.606,-0.23,0.07,0.47,0,0,0
11.607,-0.23,0.07,0.47,0,0,0
11.615,-0.23,0.07,0.47,0,0,0
11.616,-0.23,0.07,0.47,0,0,0
11.616,-0.23,0.07,0.47,0,0,0
11.616,-0.23,0.07,0.47,0,0,0
11.624,-0.23,0.07,0.47,0,0,0
11.625,-0.23,0.07,0.47,0,0,0
11.625,-0.23,0.07,0.47,0,0,0
11.626,-0.23,0.07,0.47,0,0,0
11.634,-0.23,0.07,0.47,0,0,0
11.635,-0.23,0.07,0.47,0,0,0
11.635,-0.23,0.07,0.47,0,0,0
11.636,-0.23,0.07,0.47,0,0,0
11.644,-0.23,0.07,0.47,0,0,0
11.645,-0.23,0.07,0.47,0,0,0
11.646,-0.23,0.07,0.47,0,0,0
11.646,-0.23,0.07,0.47,0,0,0
11.653,-0.23,0.07,0.47,0,0,0
11.654,-0.23,0.07,0.47,0,0,0
11.655,-0.23,0.07,0.47,0,0,0
11.656,-0.23,0.07,0.47,0,0,0
11.663,-0.23,0.07,0.47,0,0,0
11.664,-0.23,0.07,0.47,0,0,0
11.665,-0.23,0.07,0.47,0,0,0
11.666,-0.23,0.07,0.47,0,0,0
11.671,-0.23,0.07,0.47,0,0,0
11.671,-0.23,0.07,0.47,0,0,0
11.671,-0.23,0.07,0.47,0,0,0
11.672,-0.23,0.07,0.47,0,0,0
11.681,-0.23,0.07,0.47,0,0,0
11.682,-0.23,0.07,0.47,0,0,0
11.682,-0.23,0.07,0.47,0,0,0
11.683,-0.23,0.07,0.47,0,0,0
11.691,-0.23,0.07,0.47,0,0,0
11.691,-0.23,0.07,0.47,0,0,0
11.691,-0.23,0.07,0.47,0,0,0
11.692,-0.23,0.07,0.47,0,0,0
11.707,-0.23,0.07,0.47,0,0,0
11.708,-0.23,0.07,0.47,0,0,0
11.709,-0.23,0.07,0.47,0,0,0
11.709,-0.23,0.07,0.47,0,0,0
11.709,-0.23,0.07,0.47,0,0,0
11.709,-0.23,0.07,0.47,0,0,0
11.71,-0.23,0.07,0.47,0,0,0
11.71,-0.23,0.07,0.47,0,0,0
11.719,-0.23,0.07,0.47,0,0,0
11.719,-0.23,0.07,0.47,0,0,0
11.719,-0.23,0.07,0.47,0,0,0
11.72,-0.23,0.07,0.47,0,0,0
11.728,-0.23,0.07,0.47,0,0,0
11.729,-0.23,0.07,0.47,0,0,0
11.729,-0.23,0.07,0.47,0,0,0
11.73,-0.23,0.07,0.47,0,0,0
11.738,-0.23,0.07,0.47,0,0,0
11.739,-0.23,0.07,0.47,0,0,0
11.74,-0.23,0.07,0.47,0,0,0
11.74,-0.23,0.07,0.47,0,0,0
11.747,-0.23,0.07,0.47,0,0,0
11.748,-0.23,0.07,0.47,0,0,0
11.748,-0.23,0.07,0.47,0,0,0
11.749,-0.23,0.07,0.47,0,0,0
11.757,-0.23,0.07,0.47,0,0,0
11.758,-0.23,0.07,0.47,0,0,0
11.759,-0.23,0.07,0.47,0,0,0
11.759,-0.23,0.07,0.47,0,0,0
11.767,-0.23,0.07,0.47,0,0,0
11.768,-0.23,0.07,0.47,0,0,0
11.768,-0.23,0.07,0.47,0,0,0
11.769,-0.23,0.07,0.47,0,0,0
11.781,-0.23,0.07,0.47,0,0,0
11.782,-0.23,0.07,0.47,0,0,0
11.783,-0.23,0.07,0.47,0,0,0
11.783,-0.23,0.07,0.47,0,0,0
11.785,-0.23,0.07,0.47,0,0,0
11.786,-0.23,0.07,0.47,0,0,0
11.786,-0.23,0.07,0.47,0,0,0
11.786,-0.23,0.07,0.47,0,0,0
11.8,-0.23,0.07,0.47,0,0,0
11.8,-0.23,0.07,0.47,0,0,0
11.801,-0.23,0.07,0.47,0,0,0
11.801,-0.23,0.07,0.47,0,0,0
11.804,-0.23,0.07,0.47,0,0,0
11.805,-0.23,0.07,0.47,0,0,0
11.805,-0.23,0.07,0.47,0,0,0
11.805,-0.23,0.07,0.47,0,0,0
11.815,-0.23,0.07,0.47,0,0,0
11.815,-0.23,0.07,0.47,0,0,0
11.816,-0.23,0.07,0.47,0,0,0
11.816,-0.23,0.07,0.47,0,0,0
11.824,-0.23,0.07,0.47,0,0,0
11.825,-0.23,0.07,0.47,0,0,0
11.825,-0.23,0.07,0.47,0,0,0
11.826,-0.23,0.07,0.47,0,0,0
11.833,-0.23,0.07,0.47,0,0,0
11.834,-0.23,0.07,0.47,0,0,0
11.835,-0.23,0.07,0.47,0,0,0
11.835,-0.23,0.07,0.47,0,0,0
11.843,-0.23,0.07,0.47,0,0,0
11.843,-0.23,0.07,0.47,0,0,0
11.844,-0.23,0.07,0.47,0,0,0
11.844,-0.23,0.07,0.47,0,0,0
11.852,-0.23,0.07,0.47,0,0,0
11.853,-0.23,0.07,0.47,0,0,0
11.854,-0.23,0.07,0.47,0,0,0
11.854,-0.23,0.07,0.47,0,0,0
11.861,-0.23,0.07,0.47,0,0,0
11.862,-0.23,0.07,0.47,0,0,0
11.862,-0.23,0.07,0.47,0,0,0
11.863,-0.23,0.07,0.47,0,0,0
11.871,-0.23,0.07,0.47,0,0,0
11.872,-0.23,0.07,0.47,0,0,0
11.873,-0.23,0.07,0.47,0,0,0
11.873,-0.23,0.07,0.47,0,0,0
11.885,-0.23,0.07,0.47,0,0,0
11.887,-0.23,0.07,0.47,0,0,0
11.888,-0.23,0.07,0.47,0,0,0
11.889,-0.23,0.07,0.47,0,0,0
11.89,-0.23,0.07,0.47,0,0,0
11.891,-0.23,0.07,0.47,0,0,0
11.891,-0.23,0.07,0.47,0,0,0
11.892,-0.23,0.07,0.47,0,0,0
11.904,-0.23,0.07,0.47,0,0,0
11.906,-0.23,0.07,0.47,0,0,0
11.906,-0.23,0.07,0.47,0,0,0
11.906,-0.23,0.07,0.47,0,0,0
11.913,-0.23,0.07,0.47,0,0,0
11.914,-0.23,0.07,0.47,0,0,0
11.914,-0.23,0.07,0.47,0,0,0
11.914,-0.23,0.07,0.47,0,0,0
11.919,-0.23,0.07,0.47,0,0,0
11.919,-0.23,0.07,0.47,0,0,0
11.919,-0.23,0.07,0.47,0,0,0
11.92,-0.23,0.07,0.47,0,0,0
11.928,-0.23,0.07,0.47,0,0,0
11.929,-0.23,0.07,0.47,0,0,0
11.929,-0.23,0.07,0.47,0,0,0
11.93,-0.23,0.07,0.47,0,0,0
11.938,-0.23,0.07,0.47,0,0,0
11.939,-0.23,0.07,0.47,0,0,0
11.939,-0.23,0.07,0.47,0,0,0
11.94,-0.23,0.07,0.47,0,0,0
11.947,-0.23,0.07,0.47,0,0,0
11.948,-0.23,0.07,0.47,0,0,0
11.949,-0.23,0.07,0.47,0,0,0
11.949,-0.23,0.07,0.47,0,0,0
11.957,-0.23,0.07,0.47,0,0,0
11.958,-0.23,0.07,0.47,0,0,0
11.958,-0.23,0.07,0.47,0,0,0
11.959,-0.23,0.07,0.47,0,0,0
11.967,-0.23,0.07,0.47,0,0,0
11.967,-0.23,0.07,0.47,0,0,0
11.968,-0.23,0.07,0.47,0,0,0
11.968,-0.23,0.07,0.47,0,0,0
11.98,-0.23,0.07,0.47,0,0,0
11.981,-0.23,0.07,0.47,0,0,0
11.982,-0.23,0.07,0.47,0,0,0
11.982,-0.23,0.07,0.47,0,0,0
11.985,-0.23,0.07,0.47,0,0,0
11.985,-0.23,0.07,0.47,0,0,0
11.986,-0.23,0.07,0.47,0,0,0
11.986,-0.23,0.07,0.47,0,0,0
11.999,-0.23,0.07,0.47,0,0,0
12,-0.23,0.07,0.47,0,0,0
12,-0.23,0.07,0.47,0,0,0
12.001,-0.23,0.07,0.47,0,0,0
12.004,-0.23,0.07,0.47,0,0,0
12.005,-0.23,0.07,0.47,0,0,0
12.005,-0.23,0.07,0.47,0,0,0
12.006,-0.23,0.07,0.47,0,0,0
12.014,-0.23,0.07,0.47,0,0,0
12.015,-0.23,0.07,0.47,0,0,0
12.015,-0.23,0.07,0.47,0,0,0
12.016,-0.23,0.07,0.47,0,0,0
12.023,-0.23,0.07,0.47,0,0,0
12.024,-0.23,0.07,0.47,0,0,0
12.024,-0.23,0.07,0.47,0,0,0
12.025,-0.23,0.07,0.47,0,0,0
12.033,-0.23,0.07,0.47,0,0,0
12.034,-0.23,0.07,0.47,0,0,0
12.034,-0.23,0.07,0.47,0,0,0
12.035,-0.23,0.07,0.47,0,0,0
12.043,-0.23,0.07,0.47,0,0,0
12.044,-0.23,0.07,0.47,0,0,0
12.044,-0.23,0.07,0.47,0,0,0
12.045,-0.23,0.07,0.47,0,0,0
12.053,-0.23,0.07,0.47,0,0,0
12.053,-0.23,0.07,0.47,0,0,0
12.054,-0.23,0.07,0.47,0,0,0
12.054,-0.23,0.07,0.47,0,0,0
12.061,-0.23,0.07,0.47,0,0,0
12.062,-0.23,0.07,0.47,0,0,0
12.062,-0.23,0.07,0.47,0,0,0
12.063,-0.23,0.07,0.47,0,0,0
12.071,-0.23,0.07,0.47,0,0,0
12.072,-0.23,0.07,0.47,0,0,0
12.072,-0.23,0.07,0.47,0,0,0
12.073,-0.23,0.07,0.47,0,0,0
12.082,-0.23,0.07,0.47,0,0,0
12.083,-0.23,0.07,0.47,0,0,0
12.083,-0.23,0.07,0.47,0,0,0
12.084,-0.23,0.07,0.47,0,0,0
12.105,-0.23,0.07,0.47,0,0,0
12.106,-0.23,0.07,0.47,0,0,0
12.106,-0.23,0.07,0.47,0,0,0
12.106,-0.23,0.07,0.47,0,0,0
12.107,-0.23,0.07,0.47,0,0,0
12.107,-0.23,0.07,0.47,0,0,0
12.107,-0.23,0.07,0.47,0,0,0
12.107,-0.23,0.07,0.47,0,0,0
12.111,-0.23,0.07,0.47,0,0,0
12.112,-0.23,0.07,0.47,0,0,0
12.112,-0.23,0.07,0.47,0,0,0
12.113,-0.23,0.07,0.47,0,0,0
12.119,-0.23,0.07,0.47,0,0,0
12.119,-0.23,0.07,0.47,0,0,0
12.12,-0.23,0.07,0.47,0,0,0
12.12,-0.23,0.07,0.47,0,0,0
12.128,-0.23,0.07,0.47,0,0,0
12.13,-0.23,0.07,0.47,0,0,0
12.13,-0.23,0.07,0.47,0,0,0
12.131,-0.23,0.07,0.47,0,0,0
12.138,-0.23,0.07,0.47,0,0,0
12.139,-0.23,0.07,0.47,0,0,0
12.139,-0.23,0.07,0.47,0,0,0
12.14,-0.23,0.07,0.47,0,0,0
12.147,-0.23,0.07,0.47,0,0,0
12.148,-0.23,0.07,0.47,0,0,0
12.149,-0.23,0.07,0.47,0,0,0
12.149,-0.23,0.07,0.47,0,0,0
12.157,-0.23,0.07,0.47,0,0,0
12.157,-0.23,0.07,0.47,0,0,0
12.158,-0.23,0.07,0.47,0,0,0
12.158,-0.23,0.07,0.47,0,0,0
12.166,-0.23,0.07,0.47,0,0,0
12.167,-0.23,0.07,0.47,0,0,0
12.168,-0.23,0.07,0.47,0,0,0
12.168,-0.23,0.07,0.47,0,0,0
12.181,-0.23,0.07,0.47,0,0,0
12.182,-0.23,0.07,0.47,0,0,0
12.183,-0.23,0.07,0.47,0,0,0
12.183,-0.23,0.07,0.47,0,0,0
12.185,-0.23,0.07,0.47,0,0,0
12.186,-0.23,0.07,0.47,0,0,0
12.186,-0.23,0.07,0.47,0,0,0
12.187,-0.23,0.07,0.47,0,0,0
12.198,-0.23,0.07,0.47,0,0,0
12.199,-0.23,0.07,0.47,0,0,0
12.199,-0.23,0.07,0.47,0,0,0
12.2,-0.23,0.07,0.47,0,0,0
12.204,-0.23,0.07,0.47,0,0,0
12.205,-0.23,0.07,0.47,0,0,0
12.205,-0.23,0.07,0.47,0,0,0
12.205,-0.23,0.07,0.47,0,0,0
12.213,-0.23,0.07,0.47,0,0,0
12.214,-0.23,0.07,0.47,0,0,0
12.215,-0.23,0.07,0.47,0,0,0
12.215,-0.23,0.07,0.47,0,0,0
12.223,-0.23,0.07,0.47,0,0,0
12.224,-0.23,0.07,0.47,0,0,0
12.225,-0.23,0.07,0.47,0,0,0
12.225,-0.23,0.07,0.47,0,0,0
12.233,-0.23,0.07,0.47,0,0,0
12.233,-0.23,0.07,0.47,0,0,0
12.234,-0.23,0.07,0.47,0,0,0
12.234,-0.23,0.07,0.47,0,0,0
12.243,-0.23,0.07,0.47,0,0,0
12.243,-0.23,0.07,0.47,0,0,0
12.244,-0.23,0.07,0.47,0,0,0
12.244,-0.23,0.07,0.47,0,0,0
12.252,-0.23,0.07,0.47,0,0,0
12.252,-0.23,0.07,0.47,0,0,0
12.253,-0.23,0.07,0.47,0,0,0
12.253,-0.23,0.07,0.47,0,0,0
12.261,-0.23,0.07,0.47,0,0,0
12.262,-0.23,0.07,0.47,0,0,0
12.262,-0.23,0.07,0.47,0,0,0
12.262,-0.23,0.07,0.47,0,0,0
12.271,-0.23,0.07,0.47,0,0,0
12.272,-0.23,0.07,0.47,0,0,0
12.272,-0.23,0.07,0.47,0,0,0
12.273,-0.23,0.07,0.47,0,0,0
12.281,-0.23,0.07,0.47,0,0,0
12.282,-0.23,0.07,0.47,0,0,0
12.283,-0.23,0.07,0.47,0,0,0
12.283,-0.23,0.07,0.47,0,0,0
12.29,-0.23,0.07,0.47,0,0,0
12.291,-0.23,0.07,0.47,0,0,0
12.291,-0.23,0.07,0.47,0,0,0
12.291,-0.23,0.07,0.47,0,0,0
12.309,-0.23,0.07,0.47,0,0,0
12.31,-0.23,0.07,0.47,0,0,0
12.31,-0.23,0.07,0.47,0,0,0
12.31,-0.23,0.07,0.47,0,0,0
12.31,-0.23,0.07,0.47,0,0,0
12.311,-0.23,0.07,0.47,0,0,0
12.311,-0.23,0.07,0.47,0,0,0
12.311,-0.23,0.07,0.47,0,0,0
12.319,-0.23,0.07,0.47,0,0,0
12.319,-0.23,0.07,0.47,0,0,0
12.32,-0.23,0.07,0.47,0,0,0
12.32,-0.23,0.07,0.47,0,0,0
12.328,-0.23,0.07,0.47,0,0,0
12.329,-0.23,0.07,0.47,0,0,0
12.329,-0.23,0.07,0.47,0,0,0
12.329,-0.23,0.07,0.47,0,0,0
12.338,-0.23,0.07,0.47,0,0,0
12.339,-0.23,0.07,0.47,0,0,0
12.339,-0.23,0.07,0.47,0,0,0
12.339,-0.23,0.07,0.47,0,0,0
12.347,-0.23,0.07,0.47,0,0,0
12.348,-0.23,0.07,0.47,0,0,0
12.349,-0.23,0.07,0.47,0,0,0
12.349,-0.23,0.07,0.47,0,0,0
12.357,-0.23,0.07,0.47,0,0,0
12.357,-0.23,0.07,0.47,0,0,0
12.358,-0.23,0.07,0.47,0,0,0
12.358,-0.23,0.07,0.47,0,0,0
12.366,-0.23,0.07,0.47,0,0,0
12.367,-0.23,0.07,0.47,0,0,0
12.367,-0.23,0.07,0.47,0,0,0
12.368,-0.23,0.07,0.47,0,0,0
12.381,-0.23,0.07,0.47,0,0,0
12.382,-0.23,0.07,0.47,0,0,0
12.383,-0.23,0.07,0.47,0,0,0
12.383,-0.23,0.07,0.47,0,0,0
12.385,-0.23,0.07,0.47,0,0,0
12.386,-0.23,0.07,0.47,0,0,0
12.386,-0.23,0.07,0.47,0,0,0
12.387,-0.23,0.07,0.47,0,0,0
12.402,-0.23,0.07,0.47,0,0,0
12.403,-0.23,0.07,0.47,0,0,0
12.403,-0.23,0.07,0.47,0,0,0
12.404,-0.23,0.07,0.47,0,0,0
12.404,-0.23,0.07,0.47,0,0,0
12.404,-0.23,0.07,0.47,0,0,0
12.405,-0.23,0.07,0.47,0,0,0
12.405,-0.23,0.07,0.47,0,0,0
12.413,-0.23,0.07,0.47,0,0,0
12.414,-0.23,0.07,0.47,0,0,0
12.414,-0.23,0.07,0.47,0,0,0
12.415,-0.23,0.07,0.47,0,0,0
12.423,-0.23,0.07,0.47,0,0,0
12.424,-0.23,0.07,0.47,0,0,0
12.424,-0.23,0.07,0.47,0,0,0
12.425,-0.23,0.07,0.47,0,0,0
12.433,-0.23,0.07,0.47,0,0,0
12.435,-0.23,0.07,0.47,0,0,0
12.435,-0.23,0.07,0.47,0,0,0
12.436,-0.23,0.07,0.47,0,0,0
12.443,-0.23,0.07,0.47,0,0,0
12.444,-0.23,0.07,0.47,0,0,0
12.445,-0.23,0.07,0.47,0,0,0
12.445,-0.23,0.07,0.47,0,0,0
12.452,-0.23,0.07,0.47,0,0,0
12.452,-0.23,0.07,0.47,0,0,0
12.453,-0.23,0.07,0.47,0,0,0
12.453,-0.23,0.07,0.47,0,0,0
12.461,-0.23,0.07,0.47,0,0,0
12.462,-0.23,0.07,0.47,0,0,0
12.462,-0.23,0.07,0.47,0,0,0
12.463,-0.23,0.07,0.47,0,0,0
12.471,-0.23,0.07,0.47,0,0,0
12.472,-0.23,0.07,0.47,0,0,0
12.472,-0.23,0.07,0.47,0,0,0
12.473,-0.23,0.07,0.47,0,0,0
12.482,-0.23,0.07,0.47,0,0,0
12.483,-0.23,0.07,0.47,0,0,0
12.483,-0.23,0.07,0.47,0,0,0
12.484,-0.23,0.07,0.47,0,0,0
12.49,-0.23,0.07,0.47,0,0,0
12.491,-0.23,0.07,0.47,0,0,0
12.491,-0.23,0.07,0.47,0,0,0
12.492,-0.23,0.07,0.47,0,0,0
12.51,-0.23,0.07,0.47,0,0,0
12.511,-0.23,0.07,0.47,0,0,0
12.511,-0.23,0.07,0.47,0,0,0
12.511,-0.23,0.07,0.47,0,0,0
12.511,-0.23,0.07,0.47,0,0,0
12.512,-0.23,0.07,0.47,0,0,0
12.512,-0.23,0.07,0.47,0,0,0
12.512,-0.23,0.07,0.47,0,0,0
12.519,-0.23,0.07,0.47,0,0,0
12.519,-0.23,0.07,0.47,0,0,0
12.52,-0.23,0.07,0.47,0,0,0
12.52,-0.23,0.07,0.47,0,0,0
12.528,-0.23,0.07,0.47,0,0,0
12.529,-0.23,0.07,0.47,0,0,0
12.529,-0.23,0.07,0.47,0,0,0
12.529,-0.23,0.07,0.47,0,0,0
12.538,-0.23,0.07,0.47,0,0,0
12.539,-0.23,0.07,0.47,0,0,0
12.539,-0.23,0.07,0.47,0,0,0
12.54,-0.23,0.07,0.47,0,0,0
12.547,-0.23,0.07,0.47,0,0,0
12.548,-0.23,0.07,0.47,0,0,0
12.549,-0.23,0.07,0.47,0,0,0
12.549,-0.23,0.07,0.47,0,0,0
12.557,-0.23,0.07,0.47,0,0,0
12.558,-0.23,0.07,0.47,0,0,0
12.558,-0.23,0.07,0.47,0,0,0
12.559,-0.23,0.07,0.47,0,0,0
12.566,-0.23,0.07,0.47,0,0,0
12.567,-0.23,0.07,0.47,0,0,0
12.567,-0.23,0.07,0.47,0,0,0
12.568,-0.23,0.07,0.47,0,0,0
12.582,-0.23,0.07,0.47,0,0,0
12.583,-0.23,0.07,0.47,0,0,0
12.583,-0.23,0.07,0.47,0,0,0
12.584,-0.23,0.07,0.47,0,0,0
12.585,-0.23,0.07,0.47,0,0,0
12.585,-0.23,0.07,0.47,0,0,0
12.586,-0.23,0.07,0.47,0,0,0
12.586,-0.23,0.07,0.47,0,0,0
12.604,-0.23,0.07,0.47,0,0,0
12.604,-0.23,0.07,0.47,0,0,0
12.605,-0.23,0.07,0.47,0,0,0
12.605,-0.23,0.07,0.47,0,0,0
12.605,-0.23,0.07,0.47,0,0,0
12.606,-0.23,0.07,0.47,0,0,0
12.606,-0.23,0.07,0.47,0,0,0
12.606,-0.23,0.07,0.47,0,0,0
12.614,-0.23,0.07,0.47,0,0,0
12.615,-0.23,0.07,0.47,0,0,0
12.616,-0.23,0.07,0.47,0,0,0
12.617,-0.23,0.07,0.47,0,0,0
12.623,-0.23,0.07,0.47,0,0,0
12.624,-0.23,0.07,0.47,0,0,0
12.624,-0.23,0.07,0.47,0,0,0
12.625,-0.23,0.07,0.47,0,0,0
12.632,-0.23,0.07,0.47,0,0,0
12.634,-0.23,0.07,0.47,0,0,0
12.635,-0.23,0.07,0.47,0,0,0
12.636,-0.23,0.07,0.47,0,0,0
12.642,-0.23,0.07,0.47,0,0,0
12.643,-0.23,0.07,0.47,0,0,0
12.644,-0.23,0.07,0.47,0,0,0
12.644,-0.23,0.07,0.47,0,0,0
12.651,-0.23,0.07,0.47,0,0,0
12.652,-0.23,0.07,0.47,0,0,0
12.652,-0.23,0.07,0.47,0,0,0
12.653,-0.23,0.07,0.47,0,0,0
12.661,-0.23,0.07,0.47,0,0,0
12.662,-0.23,0.07,0.47,0,0,0
12.663,-0.23,0.07,0.47,0,0,0
12.663,-0.23,0.07,0.47,0,0,0
12.671,-0.23,0.07,0.47,0,0,0
12.671,-0.23,0.07,0.47,0,0,0
12.672,-0.23,0.07,0.47,0,0,0
12.673,-0.23,0.07,0.47,0,0,0
12.682,-0.23,0.07,0.47,0,0,0
12.683,-0.23,0.07,0.47,0,0,0
12.683,-0.23,0.07,0.47,0,0,0
12.684,-0.23,0.07,0.47,0,0,0
12.69,-0.23,0.07,0.47,0,0,0
12.691,-0.23,0.07,0.47,0,0,0
12.691,-0.23,0.07,0.47,0,0,0
12.692,-0.23,0.07,0.47,0,0,0
12.701,-0.23,0.07,0.47,0,0,0
12.701,-0.23,0.07,0.47,0,0,0
12.702,-0.23,0.07,0.47,0,0,0
12.702,-0.23,0.07,0.47,0,0,0
12.709,-0.23,0.07,0.47,0,0,0
12.71,-0.23,0.07,0.47,0,0,0
12.71,-0.23,0.07,0.47,0,0,0
12.711,-0.23,0.07,0.47,0,0,0
12.719,-0.23,0.07,0.47,0,0,0
12.72,-0.23,0.07,0.47,0,0,0
12.721,-0.23,0.07,0.47,0,0,0
12.721,-0.23,0.07,0.47,0,0,0
12.727,-0.23,0.07,0.47,0,0,0
12.728,-0.23,0.07,0.47,0,0,0
12.729,-0.23,0.07,0.47,0,0,0
12.729,-0.23,0.07,0.47,0,0,0
