time,ax,ay,az,wx,wy,wz
5.003,0.63,0.06,-1.59,-0.92,1.38,-0.25
5.004,0.63,0.06,-1.59,-0.92,1.38,-0.25
5.004,0.69,0.1,-1.55,-0.92,1.38,-0.25
5.005,0.69,0.1,-1.55,-0.92,1.38,-0.25
5.012,0.69,0.1,-1.55,-0.78,1.22,-0.18
5.013,0.69,0.1,-1.55,-0.78,1.22,-0.18
5.013,0.73,0.13,-1.53,-0.78,1.22,-0.18
5.014,0.73,0.13,-1.53,-0.78,1.22,-0.18
5.021,0.73,0.13,-1.53,-0.64,1.1,-0.14
5.022,0.73,0.13,-1.53,-0.64,1.1,-0.14
5.022,0.8,0.15,-1.49,-0.64,1.1,-0.14
5.022,0.8,0.15,-1.49,-0.64,1.1,-0.14
5.032,0.8,0.15,-1.49,-0.52,1.02,-0.13
5.032,0.8,0.15,-1.49,-0.52,1.02,-0.13
5.033,0.91,0.17,-1.41,-0.52,1.02,-0.13
5.033,0.91,0.17,-1.41,-0.52,1.02,-0.13
5.041,0.91,0.17,-1.41,-0.42,0.97,-0.14
5.042,0.91,0.17,-1.41,-0.42,0.97,-0.14
5.043,1.05,0.19,-1.31,-0.42,0.97,-0.14
5.043,1.05,0.19,-1.31,-0.42,0.97,-0.14
5.051,1.05,0.19,-1.31,-0.33,0.94,-0.18
5.051,1.05,0.19,-1.31,-0.33,0.94,-0.18
5.052,1.28,0.19,-1.25,-0.33,0.94,-0.18
5.052,1.28,0.19,-1.25,-0.33,0.94,-0.18
5.06,1.28,0.19,-1.25,-0.25,0.92,-0.25
5.061,1.28,0.19,-1.25,-0.25,0.92,-0.25
5.062,1.55,0.2,-1.21,-0.25,0.92,-0.25
5.062,1.55,0.2,-1.21,-0.25,0.92,-0.25
5.071,1.55,0.2,-1.21,-0.17,0.9,-0.35
5.072,1.55,0.2,-1.21,-0.17,0.9,-0.35
5.073,1.81,0.2,-1.13,-0.17,0.9,-0.35
5.073,1.81,0.2,-1.13,-0.17,0.9,-0.35
5.079,1.81,0.2,-1.13,-0.11,0.86,-0.49
5.079,1.81,0.2,-1.13,-0.11,0.86,-0.49
5.08,2,0.22,-1.04,-0.11,0.86,-0.49
5.08,2,0.22,-1.04,-0.11,0.86,-0.49
5.088,2,0.22,-1.04,-0.06,0.81,-0.67
5.089,2,0.22,-1.04,-0.06,0.81,-0.67
5.09,2.03,0.34,-0.89,-0.06,0.81,-0.67
5.09,2.03,0.34,-0.89,-0.06,0.81,-0.67
5.098,2.03,0.34,-0.89,-0.01,0.74,-0.85
5.099,2.03,0.34,-0.89,-0.01,0.74,-0.85
5.1,1.93,0.55,-0.77,-0.01,0.74,-0.85
5.1,1.93,0.55,-0.77,-0.01,0.74,-0.85
5.11,1.93,0.55,-0.77,0.04,0.67,-1
5.111,1.93,0.55,-0.77,0.04,0.67,-1
5.112,1.72,0.82,-0.71,0.04,0.67,-1
5.113,1.72,0.82,-0.71,0.04,0.67,-1
5.118,1.72,0.82,-0.71,0.09,0.62,-1.09
5.119,1.72,0.82,-0.71,0.09,0.62,-1.09
5.119,1.46,1.16,-0.69,0.09,0.62,-1.09
5.119,1.46,1.16,-0.69,0.09,0.62,-1.09
5.138,1.46,1.16,-0.69,0.14,0.56,-1.1
5.139,1.46,1.16,-0.69,0.14,0.56,-1.1
5.139,1.21,1.45,-0.72,0.14,0.56,-1.1
5.14,1.21,1.45,-0.72,0.14,0.56,-1.1
5.14,1.21,1.45,-0.72,0.14,0.56,-1.1
5.141,1.21,1.45,-0.72,0.14,0.56,-1.1
5.141,1.21,1.45,-0.72,0.14,0.56,-1.1
5.142,1.21,1.45,-0.72,0.14,0.56,-1.1
5.145,1.21,1.45,-0.72,0.17,0.52,-1.02
5.146,1.21,1.45,-0.72,0.17,0.52,-1.02
5.146,0.77,1.65,-0.85,0.17,0.52,-1.02
5.146,0.77,1.65,-0.85,0.17,0.52,-1.02
5.155,0.77,1.65,-0.85,0.17,0.51,-0.86
5.156,0.77,1.65,-0.85,0.17,0.51,-0.86
5.156,0.59,1.5,-0.84,0.17,0.51,-0.86
5.157,0.59,1.5,-0.84,0.17,0.51,-0.86
5.164,0.59,1.5,-0.84,0.14,0.53,-0.63
5.165,0.59,1.5,-0.84,0.14,0.53,-0.63
5.166,0.45,1.17,-0.79,0.14,0.53,-0.63
5.166,0.45,1.17,-0.79,0.14,0.53,-0.63
5.175,0.45,1.17,-0.79,0.06,0.57,-0.36
5.175,0.45,1.17,-0.79,0.06,0.57,-0.36
5.176,0.35,0.7,-0.75,0.06,0.57,-0.36
5.176,0.35,0.7,-0.75,0.06,0.57,-0.36
5.184,0.35,0.7,-0.75,-0.01,0.61,-0.08
5.184,0.35,0.7,-0.75,-0.01,0.61,-0.08
5.185,0.37,0.17,-0.78,-0.01,0.61,-0.08
5.185,0.37,0.17,-0.78,-0.01,0.61,-0.08
5.194,0.37,0.17,-0.78,-0.08,0.64,0.15
5.195,0.37,0.17,-0.78,-0.08,0.64,0.15
5.195,0.43,-0.27,-0.99,-0.08,0.64,0.15
5.196,0.43,-0.27,-0.99,-0.08,0.64,0.15
5.212,0.43,-0.27,-0.99,-0.15,0.68,0.33
5.213,0.43,-0.27,-0.99,-0.15,0.68,0.33
5.213,0.52,-0.51,-1.38,-0.15,0.68,0.33
5.213,0.52,-0.51,-1.38,-0.15,0.68,0.33
5.214,0.52,-0.51,-1.38,-0.24,0.74,0.42
5.214,0.52,-0.51,-1.38,-0.24,0.74,0.42
5.214,0.64,-0.51,-3.06,-0.24,0.74,0.42
5.214,0.64,-0.51,-3.06,-0.24,0.74,0.42
5.222,0.64,-0.51,-3.06,-0.43,0.88,0.44
5.223,0.64,-0.51,-3.06,-0.43,0.88,0.44
5.223,0.67,-0.32,-3.38,-0.43,0.88,0.44
5.223,0.67,-0.32,-3.38,-0.43,0.88,0.44
5.231,0.67,-0.32,-3.38,-0.8,1.14,0.41
5.232,0.67,-0.32,-3.38,-0.8,1.14,0.41
5.232,0.56,0.01,-3.82,-0.8,1.14,0.41
5.233,0.56,0.01,-3.82,-0.8,1.14,0.41
5.241,0.56,0.01,-3.82,-1.33,1.5,0.36
5.242,0.56,0.01,-3.82,-1.33,1.5,0.36
5.243,0.3,0.39,-4.09,-1.33,1.5,0.36
5.243,0.3,0.39,-4.09,-1.33,1.5,0.36
5.25,0.3,0.39,-4.09,-1.89,1.89,0.35
5.251,0.3,0.39,-4.09,-1.89,1.89,0.35
5.251,-0.11,0.77,-3.94,-1.89,1.89,0.35
5.252,-0.11,0.77,-3.94,-1.89,1.89,0.35
5.26,-0.11,0.77,-3.94,-2.36,2.17,0.38
5.261,-0.11,0.77,-3.94,-2.36,2.17,0.38
5.261,-0.61,1.14,-3.35,-2.36,2.17,0.38
5.261,-0.61,1.14,-3.35,-2.36,2.17,0.38
5.269,-0.61,1.14,-3.35,-2.67,2.24,0.49
5.27,-0.61,1.14,-3.35,-2.67,2.24,0.49
5.27,-1.14,1.42,-1.84,-2.67,2.24,0.49
5.271,-1.14,1.42,-1.84,-2.67,2.24,0.49
5.279,-1.14,1.42,-1.84,-2.74,2.06,0.64
5.279,-1.14,1.42,-1.84,-2.74,2.06,0.64
5.28,-1.51,1.59,-1.71,-2.74,2.06,0.64
5.28,-1.51,1.59,-1.71,-2.74,2.06,0.64
5.291,-1.51,1.59,-1.71,-2.53,1.63,0.83
5.291,-1.51,1.59,-1.71,-2.53,1.63,0.83
5.292,-1.53,1.65,-1.78,-2.53,1.63,0.83
5.292,-1.53,1.65,-1.78,-2.53,1.63,0.83
5.298,-1.53,1.65,-1.78,-2.1,1.07,1.04
5.298,-1.53,1.65,-1.78,-2.1,1.07,1.04
5.298,-1.12,1.6,-2.18,-2.1,1.07,1.04
5.299,-1.12,1.6,-2.18,-2.1,1.07,1.04
5.309,-1.12,1.6,-2.18,-1.63,0.55,1.21
5.31,-1.12,1.6,-2.18,-1.63,0.55,1.21
5.31,0.63,1.46,-2.76,-1.63,0.55,1.21
5.31,0.63,1.46,-2.76,-1.63,0.55,1.21
5.317,0.63,1.46,-2.76,-1.28,0.21,1.25
5.317,0.63,1.46,-2.76,-1.28,0.21,1.25
5.318,2.15,1.26,-3.38,-1.28,0.21,1.25
5.318,2.15,1.26,-3.38,-1.28,0.21,1.25
5.328,2.15,1.26,-3.38,-1.14,0.16,1
5.329,2.15,1.26,-3.38,-1.14,0.16,1
5.329,2.68,0.91,-4,-1.14,0.16,1
5.33,2.68,0.91,-4,-1.14,0.16,1
5.336,2.68,0.91,-4,-1.14,0.16,1
5.336,2.68,0.91,-4,-1.14,0.16,1
5.336,2.68,0.91,-4,-1.14,0.16,1
5.337,2.68,0.91,-4,-1.14,0.16,1
5.345,2.68,0.91,-4,-1.18,0.44,0.41
5.346,2.68,0.91,-4,-1.18,0.44,0.41
5.347,3.11,-0.29,-4.92,-1.18,0.44,0.41
5.347,3.11,-0.29,-4.92,-1.18,0.44,0.41
5.355,3.11,-0.29,-4.92,-1.38,0.97,-0.37
5.356,3.11,-0.29,-4.92,-1.38,0.97,-0.37
5.356,2.77,-0.87,-4.86,-1.38,0.97,-0.37
5.356,2.77,-0.87,-4.86,-1.38,0.97,-0.37
5.365,2.77,-0.87,-4.86,-1.66,1.57,-1.05
5.365,2.77,-0.87,-4.86,-1.66,1.57,-1.05
5.366,2.26,-1.13,-4.44,-1.66,1.57,-1.05
5.366,2.26,-1.13,-4.44,-1.66,1.57,-1.05
5.375,2.26,-1.13,-4.44,-1.89,2,-1.47
5.375,2.26,-1.13,-4.44,-1.89,2,-1.47
5.376,1.88,-1.02,-3.83,-1.89,2,-1.47
5.376,1.88,-1.02,-3.83,-1.89,2,-1.47
5.384,1.88,-1.02,-3.83,-1.94,2.12,-1.61
5.384,1.88,-1.02,-3.83,-1.94,2.12,-1.61
5.385,1.7,-0.6,-3.16,-1.94,2.12,-1.61
5.385,1.7,-0.6,-3.16,-1.94,2.12,-1.61
5.393,1.7,-0.6,-3.16,-1.76,1.94,-1.58
5.394,1.7,-0.6,-3.16,-1.76,1.94,-1.58
5.395,1.63,0.02,-2.58,-1.76,1.94,-1.58
5.395,1.63,0.02,-2.58,-1.76,1.94,-1.58
5.403,1.63,0.02,-2.58,-1.41,1.57,-1.46
5.403,1.63,0.02,-2.58,-1.41,1.57,-1.46
5.404,1.61,1.69,-2.13,-1.41,1.57,-1.46
5.404,1.61,1.69,-2.13,-1.41,1.57,-1.46
5.412,1.61,1.69,-2.13,-0.99,1.15,-1.33
5.413,1.61,1.69,-2.13,-0.99,1.15,-1.33
5.414,1.54,1.89,-1.64,-0.99,1.15,-1.33
5.414,1.54,1.89,-1.64,-0.99,1.15,-1.33
5.435,1.54,1.89,-1.64,-0.6,0.77,-1.23
5.436,1.54,1.89,-1.64,-0.6,0.77,-1.23
5.436,1.43,2.21,-1.13,-0.6,0.77,-1.23
5.437,1.43,2.21,-1.13,-0.6,0.77,-1.23
5.437,1.43,2.21,-1.13,-0.27,0.44,-1.18
5.438,1.43,2.21,-1.13,-0.27,0.44,-1.18
5.438,1.32,2.43,-0.75,-0.27,0.44,-1.18
5.439,1.32,2.43,-0.75,-0.27,0.44,-1.18
5.441,1.32,2.43,-0.75,0.05,0.13,-1.16
5.441,1.32,2.43,-0.75,0.05,0.13,-1.16
5.442,1.21,2.51,-0.5,0.05,0.13,-1.16
5.442,1.21,2.51,-0.5,0.05,0.13,-1.16
5.451,1.21,2.51,-0.5,0.37,-0.19,-1.14
5.451,1.21,2.51,-0.5,0.37,-0.19,-1.14
5.452,1.11,2.41,-0.52,0.37,-0.19,-1.14
5.452,1.11,2.41,-0.52,0.37,-0.19,-1.14
5.46,1.11,2.41,-0.52,0.69,-0.54,-1.11
5.461,1.11,2.41,-0.52,0.69,-0.54,-1.11
5.461,1,2.06,-0.8,0.69,-0.54,-1.11
5.462,1,2.06,-0.8,0.69,-0.54,-1.11
5.469,1,2.06,-0.8,0.63,-0.89,-1.05
5.47,1,2.06,-0.8,0.63,-0.89,-1.05
5.471,0.9,1.55,-1.22,0.63,-0.89,-1.05
5.471,0.9,1.55,-1.22,0.63,-0.89,-1.05
5.479,0.9,1.55,-1.22,0.51,-1.18,-0.94
5.48,0.9,1.55,-1.22,0.51,-1.18,-0.94
5.481,0.84,0.95,-1.79,0.51,-1.18,-0.94
5.481,0.84,0.95,-1.79,0.51,-1.18,-0.94
5.488,0.84,0.95,-1.79,0.57,-1.34,-0.78
5.488,0.84,0.95,-1.79,0.57,-1.34,-0.78
5.489,0.88,0.39,-2.31,0.57,-1.34,-0.78
5.489,0.88,0.39,-2.31,0.57,-1.34,-0.78
5.498,0.88,0.39,-2.31,0.43,-1.35,-0.58
5.499,0.88,0.39,-2.31,0.43,-1.35,-0.58
5.499,0.96,0.08,-2.68,0.43,-1.35,-0.58
5.499,0.96,0.08,-2.68,0.43,-1.35,-0.58
5.508,0.96,0.08,-2.68,0.13,-1.24,-0.36
5.508,0.96,0.08,-2.68,0.13,-1.24,-0.36
5.509,1.06,0.01,-2.83,0.13,-1.24,-0.36
5.509,1.06,0.01,-2.83,0.13,-1.24,-0.36
5.518,1.06,0.01,-2.83,-0.24,-1.04,-0.18
5.519,1.06,0.01,-2.83,-0.24,-1.04,-0.18
5.519,1.09,0.18,-2.75,-0.24,-1.04,-0.18
5.519,1.09,0.18,-2.75,-0.24,-1.04,-0.18
5.528,1.09,0.18,-2.75,-0.6,-0.81,-0.04
5.529,1.09,0.18,-2.75,-0.6,-0.81,-0.04
5.529,1,0.51,-2.56,-0.6,-0.81,-0.04
5.529,1,0.51,-2.56,-0.6,-0.81,-0.04
5.537,1,0.51,-2.56,-0.6,-0.81,-0.04
5.538,1,0.51,-2.56,-0.6,-0.81,-0.04
5.538,1,0.51,-2.56,-0.6,-0.81,-0.04
5.539,1,0.51,-2.56,-0.6,-0.81,-0.04
5.546,1,0.51,-2.56,-0.88,-0.64,0.01
5.547,1,0.51,-2.56,-0.88,-0.64,0.01
5.547,0.74,1.42,-2.26,-0.88,-0.64,0.01
5.548,0.74,1.42,-2.26,-0.88,-0.64,0.01
5.556,0.74,1.42,-2.26,-1.06,-0.56,0
5.556,0.74,1.42,-2.26,-1.06,-0.56,0
5.557,0.61,1.87,-2.18,-1.06,-0.56,0
5.557,0.61,1.87,-2.18,-1.06,-0.56,0
5.565,0.61,1.87,-2.18,-1.17,-0.55,-0.04
5.566,0.61,1.87,-2.18,-1.17,-0.55,-0.04
5.567,0.6,2.3,-2.21,-1.17,-0.55,-0.04
5.567,0.6,2.3,-2.21,-1.17,-0.55,-0.04
5.575,0.6,2.3,-2.21,-1.25,-0.54,-0.08
5.575,0.6,2.3,-2.21,-1.25,-0.54,-0.08
5.576,0.67,2.61,-2.28,-1.25,-0.54,-0.08
5.576,0.67,2.61,-2.28,-1.25,-0.54,-0.08
5.584,0.67,2.61,-2.28,-1.35,-0.52,-0.11
5.584,0.67,2.61,-2.28,-1.35,-0.52,-0.11
5.585,0.88,2.81,-2.31,-1.35,-0.52,-0.11
5.586,0.88,2.81,-2.31,-1.35,-0.52,-0.11
5.594,0.88,2.81,-2.31,-1.48,-0.47,-0.15
5.595,0.88,2.81,-2.31,-1.48,-0.47,-0.15
5.596,1.15,2.88,-2.23,-1.48,-0.47,-0.15
5.596,1.15,2.88,-2.23,-1.48,-0.47,-0.15
5.616,1.15,2.88,-2.23,-1.64,-0.39,-0.23
5.616,1.15,2.88,-2.23,-1.64,-0.39,-0.23
5.617,1.42,2.82,-2.09,-1.64,-0.39,-0.23
5.617,1.42,2.82,-2.09,-1.64,-0.39,-0.23
5.617,1.42,2.82,-2.09,-1.78,-0.28,-0.37
5.618,1.42,2.82,-2.09,-1.78,-0.28,-0.37
5.618,1.64,2.69,-1.97,-1.78,-0.28,-0.37
5.618,1.64,2.69,-1.97,-1.78,-0.28,-0.37
5.623,1.64,2.69,-1.97,-1.87,-0.16,-0.56
5.624,1.64,2.69,-1.97,-1.87,-0.16,-0.56
5.624,1.7,2.45,-1.93,-1.87,-0.16,-0.56
5.625,1.7,2.45,-1.93,-1.87,-0.16,-0.56
5.632,1.7,2.45,-1.93,-1.88,-0.04,-0.78
5.632,1.7,2.45,-1.93,-1.88,-0.04,-0.78
5.633,1.61,2.11,-1.99,-1.88,-0.04,-0.78
5.634,1.61,2.11,-1.99,-1.88,-0.04,-0.78
5.641,1.61,2.11,-1.99,-1.81,0.05,-0.99
5.642,1.61,2.11,-1.99,-1.81,0.05,-0.99
5.643,1.4,1.77,-2.07,-1.81,0.05,-0.99
5.644,1.4,1.77,-2.07,-1.81,0.05,-0.99
5.651,1.4,1.77,-2.07,-1.69,0.08,-1.14
5.652,1.4,1.77,-2.07,-1.69,0.08,-1.14
5.652,1.05,1.45,-2.22,-1.69,0.08,-1.14
5.653,1.05,1.45,-2.22,-1.69,0.08,-1.14
5.66,1.05,1.45,-2.22,-1.53,0.03,-1.19
5.662,1.05,1.45,-2.22,-1.53,0.03,-1.19
5.663,0.67,1.23,-2.35,-1.53,0.03,-1.19
5.664,0.67,1.23,-2.35,-1.53,0.03,-1.19
5.669,0.67,1.23,-2.35,-1.36,-0.12,-1.14
5.67,0.67,1.23,-2.35,-1.36,-0.12,-1.14
5.67,0.29,1.16,-2.38,-1.36,-0.12,-1.14
5.67,0.29,1.16,-2.38,-1.36,-0.12,-1.14
5.679,0.29,1.16,-2.38,-1.19,-0.38,-1.02
5.68,0.29,1.16,-2.38,-1.19,-0.38,-1.02
5.68,0.04,1.2,-2.35,-1.19,-0.38,-1.02
5.681,0.04,1.2,-2.35,-1.19,-0.38,-1.02
5.691,0.04,1.2,-2.35,-1.04,-0.69,-0.85
5.692,0.04,1.2,-2.35,-1.04,-0.69,-0.85
5.692,-0.05,1.3,-2.2,-1.04,-0.69,-0.85
5.693,-0.05,1.3,-2.2,-1.04,-0.69,-0.85
5.697,-0.05,1.3,-2.2,-0.91,-1.01,-0.67
5.698,-0.05,1.3,-2.2,-0.91,-1.01,-0.67
5.698,0.04,1.38,-1.99,-0.91,-1.01,-0.67
5.699,0.04,1.38,-1.99,-0.91,-1.01,-0.67
5.708,0.04,1.38,-1.99,-0.8,-1.26,-0.52
5.708,0.04,1.38,-1.99,-0.8,-1.26,-0.52
5.709,0.24,1.39,-1.84,-0.8,-1.26,-0.52
5.709,0.24,1.39,-1.84,-0.8,-1.26,-0.52
5.717,0.24,1.39,-1.84,-0.7,-1.44,-0.43
5.718,0.24,1.39,-1.84,-0.7,-1.44,-0.43
5.718,0.42,1.35,-1.73,-0.7,-1.44,-0.43
5.718,0.42,1.35,-1.73,-0.7,-1.44,-0.43
5.728,0.42,1.35,-1.73,-0.59,-1.53,-0.44
5.729,0.42,1.35,-1.73,-0.59,-1.53,-0.44
5.73,0.51,1.28,-1.66,-0.59,-1.53,-0.44
5.73,0.51,1.28,-1.66,-0.59,-1.53,-0.44
5.738,0.51,1.28,-1.66,-0.48,-1.53,-0.52
5.739,0.51,1.28,-1.66,-0.48,-1.53,-0.52
5.739,0.52,1.26,-1.61,-0.48,-1.53,-0.52
5.739,0.52,1.26,-1.61,-0.48,-1.53,-0.52
5.746,0.52,1.26,-1.61,-0.48,-1.53,-0.52
5.747,0.52,1.26,-1.61,-0.48,-1.53,-0.52
5.747,0.52,1.26,-1.61,-0.48,-1.53,-0.52
5.748,0.52,1.26,-1.61,-0.48,-1.53,-0.52
5.755,0.52,1.26,-1.61,-0.37,-1.48,-0.63
5.755,0.52,1.26,-1.61,-0.37,-1.48,-0.63
5.756,0.44,1.38,-1.45,-0.37,-1.48,-0.63
5.756,0.44,1.38,-1.45,-0.37,-1.48,-0.63
5.765,0.44,1.38,-1.45,-0.27,-1.43,-0.77
5.765,0.44,1.38,-1.45,-0.27,-1.43,-0.77
5.766,0.41,1.45,-1.29,-0.27,-1.43,-0.77
5.766,0.41,1.45,-1.29,-0.27,-1.43,-0.77
5.775,0.41,1.45,-1.29,-0.17,-1.41,-0.92
5.776,0.41,1.45,-1.29,-0.17,-1.41,-0.92
5.776,0.38,1.51,-1.17,-0.17,-1.41,-0.92
5.776,0.38,1.51,-1.17,-0.17,-1.41,-0.92
5.784,0.38,1.51,-1.17,-0.09,-1.42,-1.04
5.785,0.38,1.51,-1.17,-0.09,-1.42,-1.04
5.786,0.32,1.59,-1.2,-0.09,-1.42,-1.04
5.786,0.32,1.59,-1.2,-0.09,-1.42,-1.04
5.794,0.32,1.59,-1.2,-0.03,-1.43,-1.14
5.795,0.32,1.59,-1.2,-0.03,-1.43,-1.14
5.795,0.2,1.67,-1.35,-0.03,-1.43,-1.14
5.796,0.2,1.67,-1.35,-0.03,-1.43,-1.14
5.803,0.2,1.67,-1.35,-0.01,-1.43,-1.19
5.803,0.2,1.67,-1.35,-0.01,-1.43,-1.19
5.804,0.03,1.78,-1.55,-0.01,-1.43,-1.19
5.804,0.03,1.78,-1.55,-0.01,-1.43,-1.19
5.813,0.03,1.78,-1.55,-0.05,-1.43,-1.19
5.814,0.03,1.78,-1.55,-0.05,-1.43,-1.19
5.814,-0.18,1.88,-1.68,-0.05,-1.43,-1.19
5.815,-0.18,1.88,-1.68,-0.05,-1.43,-1.19
5.831,-0.18,1.88,-1.68,-0.16,-1.42,-1.14
5.832,-0.18,1.88,-1.68,-0.16,-1.42,-1.14
5.833,-0.37,2,-1.67,-0.16,-1.42,-1.14
5.833,-0.37,2,-1.67,-0.16,-1.42,-1.14
5.834,-0.37,2,-1.67,-0.33,-1.41,-1.04
5.834,-0.37,2,-1.67,-0.33,-1.41,-1.04
5.834,-0.44,2.08,-1.59,-0.33,-1.41,-1.04
5.835,-0.44,2.08,-1.59,-0.33,-1.41,-1.04
5.841,-0.44,2.08,-1.59,-0.52,-1.39,-0.89
5.842,-0.44,2.08,-1.59,-0.52,-1.39,-0.89
5.842,-0.4,2.14,-1.54,-0.52,-1.39,-0.89
5.842,-0.4,2.14,-1.54,-0.52,-1.39,-0.89
5.851,-0.4,2.14,-1.54,-0.7,-1.35,-0.73
5.852,-0.4,2.14,-1.54,-0.7,-1.35,-0.73
5.852,-0.28,2.22,-1.57,-0.7,-1.35,-0.73
5.853,-0.28,2.22,-1.57,-0.7,-1.35,-0.73
5.86,-0.28,2.22,-1.57,-0.84,-1.3,-0.6
5.861,-0.28,2.22,-1.57,-0.84,-1.3,-0.6
5.861,-0.09,2.29,-1.67,-0.84,-1.3,-0.6
5.862,-0.09,2.29,-1.67,-0.84,-1.3,-0.6
5.87,-0.09,2.29,-1.67,-0.96,-1.22,-0.52
5.871,-0.09,2.29,-1.67,-0.96,-1.22,-0.52
5.871,0.13,2.44,-1.71,-0.96,-1.22,-0.52
5.871,0.13,2.44,-1.71,-0.96,-1.22,-0.52
5.879,0.13,2.44,-1.71,-1.06,-1.12,-0.5
5.88,0.13,2.44,-1.71,-1.06,-1.12,-0.5
5.88,0.36,2.64,-1.71,-1.06,-1.12,-0.5
5.88,0.36,2.64,-1.71,-1.06,-1.12,-0.5
5.888,0.36,2.64,-1.71,-1.17,-0.98,-0.54
5.889,0.36,2.64,-1.71,-1.17,-0.98,-0.54
5.89,0.61,2.87,-1.67,-1.17,-0.98,-0.54
5.89,0.61,2.87,-1.67,-1.17,-0.98,-0.54
5.898,0.61,2.87,-1.67,-1.28,-0.81,-0.64
5.899,0.61,2.87,-1.67,-1.28,-0.81,-0.64
5.9,0.89,3.12,-1.64,-1.28,-0.81,-0.64
5.9,0.89,3.12,-1.64,-1.28,-0.81,-0.64
5.91,0.89,3.12,-1.64,-1.39,-0.68,-0.73
5.911,0.89,3.12,-1.64,-1.39,-0.68,-0.73
5.912,1.14,3.36,-1.68,-1.39,-0.68,-0.73
5.912,1.14,3.36,-1.68,-1.39,-0.68,-0.73
5.918,1.14,3.36,-1.68,-1.5,-0.6,-0.78
5.919,1.14,3.36,-1.68,-1.5,-0.6,-0.78
5.919,1.38,3.58,-1.75,-1.5,-0.6,-0.78
5.92,1.38,3.58,-1.75,-1.5,-0.6,-0.78
5.938,1.38,3.58,-1.75,-1.62,-0.42,-0.9
5.939,1.38,3.58,-1.75,-1.62,-0.42,-0.9
5.94,1.6,3.77,-1.81,-1.62,-0.42,-0.9
5.94,1.6,3.77,-1.81,-1.62,-0.42,-0.9
5.94,1.6,3.77,-1.81,-1.74,-0.12,-1.07
5.94,1.6,3.77,-1.81,-1.74,-0.12,-1.07
5.941,1.75,3.9,-1.86,-1.74,-0.12,-1.07
5.941,1.75,3.9,-1.86,-1.74,-0.12,-1.07
5.945,1.75,3.9,-1.86,-1.74,-0.12,-1.07
5.946,1.75,3.9,-1.86,-1.74,-0.12,-1.07
5.946,1.75,3.9,-1.86,-1.74,-0.12,-1.07
5.946,1.75,3.9,-1.86,-1.74,-0.12,-1.07
5.955,1.75,3.9,-1.86,-1.88,0.16,-1.22
5.956,1.75,3.9,-1.86,-1.88,0.16,-1.22
5.957,1.75,4.03,-1.96,-1.88,0.16,-1.22
5.957,1.75,4.03,-1.96,-1.88,0.16,-1.22
5.965,1.75,4.03,-1.96,-2,0.41,-1.32
5.965,1.75,4.03,-1.96,-2,0.41,-1.32
5.966,1.66,4.04,-1.92,-2,0.41,-1.32
5.967,1.66,4.04,-1.92,-2,0.41,-1.32
5.974,1.66,4.04,-1.92,-2.11,0.59,-1.37
5.976,1.66,4.04,-1.92,-2.11,0.59,-1.37
5.976,1.51,4.05,-1.87,-2.11,0.59,-1.37
5.977,1.51,4.05,-1.87,-2.11,0.59,-1.37
5.984,1.51,4.05,-1.87,-2.17,0.66,-1.36
5.985,1.51,4.05,-1.87,-2.17,0.66,-1.36
5.985,1.41,4.08,-1.87,-2.17,0.66,-1.36
5.986,1.41,4.08,-1.87,-2.17,0.66,-1.36
5.993,1.41,4.08,-1.87,-2.19,0.66,-1.28
5.994,1.41,4.08,-1.87,-2.19,0.66,-1.28
5.995,1.37,4.05,-1.93,-2.19,0.66,-1.28
5.995,1.37,4.05,-1.93,-2.19,0.66,-1.28
6.008,1.37,4.05,-1.93,-2.16,0.62,-1.17
6.009,1.37,4.05,-1.93,-2.16,0.62,-1.17
6.009,1.37,4.02,-2.02,-2.16,0.62,-1.17
6.009,1.37,4.02,-2.02,-2.16,0.62,-1.17
6.012,1.37,4.02,-2.02,-2.09,0.54,-1.07
6.013,1.37,4.02,-2.02,-2.09,0.54,-1.07
6.013,1.45,4,-2.09,-2.09,0.54,-1.07
6.014,1.45,4,-2.09,-2.09,0.54,-1.07
6.026,1.45,4,-2.09,-2,0.44,-0.97
6.027,1.45,4,-2.09,-2,0.44,-0.97
6.027,1.53,4.01,-2.12,-2,0.44,-0.97
6.028,1.53,4.01,-2.12,-2,0.44,-0.97
6.031,1.53,4.01,-2.12,-1.9,0.34,-0.89
6.031,1.53,4.01,-2.12,-1.9,0.34,-0.89
6.031,1.62,4.06,-2.1,-1.9,0.34,-0.89
6.032,1.62,4.06,-2.1,-1.9,0.34,-0.89
6.041,1.62,4.06,-2.1,-1.82,0.27,-0.81
6.042,1.62,4.06,-2.1,-1.82,0.27,-0.81
6.042,1.69,4.13,-2.05,-1.82,0.27,-0.81
6.042,1.69,4.13,-2.05,-1.82,0.27,-0.81
6.051,1.69,4.13,-2.05,-1.74,0.24,-0.74
6.051,1.69,4.13,-2.05,-1.74,0.24,-0.74
6.052,1.72,4.23,-1.91,-1.74,0.24,-0.74
6.052,1.72,4.23,-1.91,-1.74,0.24,-0.74
6.06,1.72,4.23,-1.91,-1.68,0.24,-0.68
6.061,1.72,4.23,-1.91,-1.68,0.24,-0.68
6.062,1.73,4.33,-1.69,-1.68,0.24,-0.68
6.062,1.73,4.33,-1.69,-1.68,0.24,-0.68
6.07,1.73,4.33,-1.69,-1.63,0.27,-0.66
6.071,1.73,4.33,-1.69,-1.63,0.27,-0.66
6.071,1.7,4.39,-1.46,-1.63,0.27,-0.66
6.071,1.7,4.39,-1.46,-1.63,0.27,-0.66
6.079,1.7,4.39,-1.46,-1.58,0.3,-0.62
6.08,1.7,4.39,-1.46,-1.58,0.3,-0.62
6.08,1.61,4.38,-1.14,-1.58,0.3,-0.62
6.08,1.61,4.38,-1.14,-1.58,0.3,-0.62
6.088,1.61,4.38,-1.14,-1.52,0.33,-0.62
6.089,1.61,4.38,-1.14,-1.52,0.33,-0.62
6.089,1.54,4.27,-0.87,-1.52,0.33,-0.62
6.09,1.54,4.27,-0.87,-1.52,0.33,-0.62
6.098,1.54,4.27,-0.87,-1.44,0.36,-0.69
6.099,1.54,4.27,-0.87,-1.44,0.36,-0.69
6.1,1.58,4.06,-0.69,-1.44,0.36,-0.69
6.1,1.58,4.06,-0.69,-1.44,0.36,-0.69
6.109,1.58,4.06,-0.69,-1.34,0.39,-0.73
6.11,1.58,4.06,-0.69,-1.34,0.39,-0.73
6.111,1.7,3.78,-0.66,-1.34,0.39,-0.73
6.111,1.7,3.78,-0.66,-1.34,0.39,-0.73
6.117,1.7,3.78,-0.66,-1.19,0.42,-0.77
6.118,1.7,3.78,-0.66,-1.19,0.42,-0.77
6.118,2,3.54,-1,-1.19,0.42,-0.77
6.119,2,3.54,-1,-1.19,0.42,-0.77
6.13,2,3.54,-1,-1.01,0.46,-0.81
6.131,2,3.54,-1,-1.01,0.46,-0.81
6.131,2.44,3.39,-2.58,-1.01,0.46,-0.81
6.131,2.44,3.39,-2.58,-1.01,0.46,-0.81
6.138,2.44,3.39,-2.58,-1.01,0.46,-0.81
6.138,2.44,3.39,-2.58,-1.01,0.46,-0.81
6.139,2.44,3.39,-2.58,-1.01,0.46,-0.81
6.139,2.44,3.39,-2.58,-1.01,0.46,-0.81
6.147,2.44,3.39,-2.58,-0.83,0.49,-0.84
6.147,2.44,3.39,-2.58,-0.83,0.49,-0.84
6.148,3.4,3.48,-3.12,-0.83,0.49,-0.84
6.148,3.4,3.48,-3.12,-0.83,0.49,-0.84
6.156,3.4,3.48,-3.12,-0.74,0.52,-0.85
6.157,3.4,3.48,-3.12,-0.74,0.52,-0.85
6.157,3.81,3.55,-3.15,-0.74,0.52,-0.85
6.158,3.81,3.55,-3.15,-0.74,0.52,-0.85
6.165,3.81,3.55,-3.15,-0.78,0.58,-0.84
6.165,3.81,3.55,-3.15,-0.78,0.58,-0.84
6.166,4.09,3.6,-2.91,-0.78,0.58,-0.84
6.167,4.09,3.6,-2.91,-0.78,0.58,-0.84
6.175,4.09,3.6,-2.91,-0.89,0.7,-0.83
6.176,4.09,3.6,-2.91,-0.89,0.7,-0.83
6.176,4.28,3.66,-2.45,-0.89,0.7,-0.83
6.177,4.28,3.66,-2.45,-0.89,0.7,-0.83
6.184,4.28,3.66,-2.45,-1,0.86,-0.87
6.185,4.28,3.66,-2.45,-1,0.86,-0.87
6.185,4.38,3.73,-1.97,-1,0.86,-0.87
6.186,4.38,3.73,-1.97,-1,0.86,-0.87
6.194,4.38,3.73,-1.97,-1.05,1.04,-0.93
6.195,4.38,3.73,-1.97,-1.05,1.04,-0.93
6.196,4.41,3.77,-1.6,-1.05,1.04,-0.93
6.196,4.41,3.77,-1.6,-1.05,1.04,-0.93
6.203,4.41,3.77,-1.6,-1.05,1.21,-1.01
6.204,4.41,3.77,-1.6,-1.05,1.21,-1.01
6.205,4.39,3.81,-1.31,-1.05,1.21,-1.01
6.205,4.39,3.81,-1.31,-1.05,1.21,-1.01
6.212,4.39,3.81,-1.31,-1.01,1.36,-1.1
6.212,4.39,3.81,-1.31,-1.01,1.36,-1.1
6.213,4.34,3.82,-1.09,-1.01,1.36,-1.1
6.213,4.34,3.82,-1.09,-1.01,1.36,-1.1
6.223,4.34,3.82,-1.09,-0.96,1.47,-1.17
6.224,4.34,3.82,-1.09,-0.96,1.47,-1.17
6.224,4.24,3.79,-0.83,-0.96,1.47,-1.17
6.225,4.24,3.79,-0.83,-0.96,1.47,-1.17
6.231,4.24,3.79,-0.83,-0.92,1.54,-1.21
6.232,4.24,3.79,-0.83,-0.92,1.54,-1.21
6.232,4.04,3.7,-0.45,-0.92,1.54,-1.21
6.232,4.04,3.7,-0.45,-0.92,1.54,-1.21
6.241,4.04,3.7,-0.45,-0.9,1.57,-1.07
6.242,4.04,3.7,-0.45,-0.9,1.57,-1.07
6.242,3.77,3.54,-0.08,-0.9,1.57,-1.07
6.243,3.77,3.54,-0.08,-0.9,1.57,-1.07
6.251,3.77,3.54,-0.08,-0.89,1.57,-0.9
6.252,3.77,3.54,-0.08,-0.89,1.57,-0.9
6.252,3.42,3.33,0.28,-0.89,1.57,-0.9
6.252,3.42,3.33,0.28,-0.89,1.57,-0.9
6.26,3.42,3.33,0.28,-0.85,1.53,-0.87
6.261,3.42,3.33,0.28,-0.85,1.53,-0.87
6.261,3.05,3.08,0.52,-0.85,1.53,-0.87
6.261,3.05,3.08,0.52,-0.85,1.53,-0.87
6.27,3.05,3.08,0.52,-0.77,1.46,-0.84
6.27,3.05,3.08,0.52,-0.77,1.46,-0.84
6.271,2.69,2.8,0.64,-0.77,1.46,-0.84
6.271,2.69,2.8,0.64,-0.77,1.46,-0.84
6.279,2.69,2.8,0.64,-0.65,1.35,-0.79
6.28,2.69,2.8,0.64,-0.65,1.35,-0.79
6.28,2.37,2.53,0.69,-0.65,1.35,-0.79
6.28,2.37,2.53,0.69,-0.65,1.35,-0.79
6.288,2.37,2.53,0.69,-0.49,1.2,-0.71
6.288,2.37,2.53,0.69,-0.49,1.2,-0.71
6.289,2.16,2.33,0.62,-0.49,1.2,-0.71
6.289,2.16,2.33,0.62,-0.49,1.2,-0.71
6.297,2.16,2.33,0.62,-0.33,1.01,-0.62
6.298,2.16,2.33,0.62,-0.33,1.01,-0.62
6.299,2.01,2.16,0.52,-0.33,1.01,-0.62
6.299,2.01,2.16,0.52,-0.33,1.01,-0.62
6.309,2.01,2.16,0.52,-0.17,0.8,-0.52
6.31,2.01,2.16,0.52,-0.17,0.8,-0.52
6.311,1.9,2.06,0.4,-0.17,0.8,-0.52
6.311,1.9,2.06,0.4,-0.17,0.8,-0.52
6.317,1.9,2.06,0.4,-0.04,0.59,-0.44
6.318,1.9,2.06,0.4,-0.04,0.59,-0.44
6.318,1.77,2.03,0.27,-0.04,0.59,-0.44
6.319,1.77,2.03,0.27,-0.04,0.59,-0.44
6.33,1.77,2.03,0.27,0.05,0.4,-0.36
6.331,1.77,2.03,0.27,0.05,0.4,-0.36
6.332,1.59,2.01,0.18,0.05,0.4,-0.36
6.332,1.59,2.01,0.18,0.05,0.4,-0.36
6.339,1.59,2.01,0.18,0.05,0.4,-0.36
6.34,1.59,2.01,0.18,0.05,0.4,-0.36
6.341,1.59,2.01,0.18,0.05,0.4,-0.36
6.341,1.59,2.01,0.18,0.05,0.4,-0.36
6.345,1.59,2.01,0.18,0.09,0.22,-0.31
6.346,1.59,2.01,0.18,0.09,0.22,-0.31
6.346,1.24,2.1,-0.06,0.09,0.22,-0.31
6.347,1.24,2.1,-0.06,0.09,0.22,-0.31
6.356,1.24,2.1,-0.06,0.07,0.06,-0.27
6.357,1.24,2.1,-0.06,0.07,0.06,-0.27
6.357,1.05,2.06,-0.25,0.07,0.06,-0.27
6.358,1.05,2.06,-0.25,0.07,0.06,-0.27
6.365,1.05,2.06,-0.25,-0.02,-0.1,-0.22
6.366,1.05,2.06,-0.25,-0.02,-0.1,-0.22
6.367,0.93,2.02,-0.43,-0.02,-0.1,-0.22
6.367,0.93,2.02,-0.43,-0.02,-0.1,-0.22
6.375,0.93,2.02,-0.43,-0.17,-0.27,-0.15
6.376,0.93,2.02,-0.43,-0.17,-0.27,-0.15
6.376,0.92,1.96,-0.55,-0.17,-0.27,-0.15
6.377,0.92,1.96,-0.55,-0.17,-0.27,-0.15
6.383,0.92,1.96,-0.55,-0.35,-0.42,-0.06
6.384,0.92,1.96,-0.55,-0.35,-0.42,-0.06
6.384,1.01,1.88,-0.63,-0.35,-0.42,-0.06
6.385,1.01,1.88,-0.63,-0.35,-0.42,-0.06
6.393,1.01,1.88,-0.63,-0.5,-0.55,0.01
6.394,1.01,1.88,-0.63,-0.5,-0.55,0.01
6.395,1.13,1.7,-0.75,-0.5,-0.55,0.01
6.395,1.13,1.7,-0.75,-0.5,-0.55,0.01
6.408,1.13,1.7,-0.75,-0.59,-0.62,0.04
6.409,1.13,1.7,-0.75,-0.59,-0.62,0.04
6.41,1.25,1.45,-0.91,-0.59,-0.62,0.04
6.41,1.25,1.45,-0.91,-0.59,-0.62,0.04
6.412,1.25,1.45,-0.91,-0.59,-0.64,0
6.413,1.25,1.45,-0.91,-0.59,-0.64,0
6.413,1.27,1.12,-1.18,-0.59,-0.64,0
6.413,1.27,1.12,-1.18,-0.59,-0.64,0
6.434,1.27,1.12,-1.18,-0.5,-0.62,-0.09
6.435,1.27,1.12,-1.18,-0.5,-0.62,-0.09
6.435,1.17,0.74,-1.47,-0.5,-0.62,-0.09
6.436,1.17,0.74,-1.47,-0.5,-0.62,-0.09
6.441,1.17,0.74,-1.47,-0.32,-0.59,-0.2
6.441,1.17,0.74,-1.47,-0.32,-0.59,-0.2
6.441,0.91,0.4,-1.8,-0.32,-0.59,-0.2
6.442,0.91,0.4,-1.8,-0.32,-0.59,-0.2
6.442,0.91,0.4,-1.8,-0.1,-0.59,-0.3
6.442,0.91,0.4,-1.8,-0.1,-0.59,-0.3
6.443,0.48,0.12,-2.11,-0.1,-0.59,-0.3
6.443,0.48,0.12,-2.11,-0.1,-0.59,-0.3
6.45,0.48,0.12,-2.11,0.14,-0.64,-0.36
6.451,0.48,0.12,-2.11,0.14,-0.64,-0.36
6.451,-0.04,-0.07,-2.31,0.14,-0.64,-0.36
6.451,-0.04,-0.07,-2.31,0.14,-0.64,-0.36
6.46,-0.04,-0.07,-2.31,0.34,-0.75,-0.34
6.461,-0.04,-0.07,-2.31,0.34,-0.75,-0.34
6.461,-0.58,-0.16,-2.33,0.34,-0.75,-0.34
6.462,-0.58,-0.16,-2.33,0.34,-0.75,-0.34
6.469,-0.58,-0.16,-2.33,0.49,-0.93,-0.26
6.47,-0.58,-0.16,-2.33,0.49,-0.93,-0.26
6.47,-0.99,-0.2,-2.19,0.49,-0.93,-0.26
6.471,-0.99,-0.2,-2.19,0.49,-0.93,-0.26
6.479,-0.99,-0.2,-2.19,0.58,-1.15,-0.16
6.479,-0.99,-0.2,-2.19,0.58,-1.15,-0.16
6.48,-1.24,-0.17,-1.98,0.58,-1.15,-0.16
6.48,-1.24,-0.17,-1.98,0.58,-1.15,-0.16
6.488,-1.24,-0.17,-1.98,0.62,-1.36,-0.07
6.489,-1.24,-0.17,-1.98,0.62,-1.36,-0.07
6.49,-1.33,-0.1,-1.77,0.62,-1.36,-0.07
6.491,-1.33,-0.1,-1.77,0.62,-1.36,-0.07
6.498,-1.33,-0.1,-1.77,0.64,-1.53,-0.03
6.499,-1.33,-0.1,-1.77,0.64,-1.53,-0.03
6.499,-1.32,-0.02,-1.61,0.64,-1.53,-0.03
6.5,-1.32,-0.02,-1.61,0.64,-1.53,-0.03
6.508,-1.32,-0.02,-1.61,0.63,-1.63,-0.03
6.51,-1.32,-0.02,-1.61,0.63,-1.63,-0.03
6.511,-1.25,0.03,-1.52,0.63,-1.63,-0.03
6.512,-1.25,0.03,-1.52,0.63,-1.63,-0.03
6.517,-1.25,0.03,-1.52,0.6,-1.63,-0.07
6.517,-1.25,0.03,-1.52,0.6,-1.63,-0.07
6.518,-1.19,0.06,-1.53,0.6,-1.63,-0.07
6.518,-1.19,0.06,-1.53,0.6,-1.63,-0.07
6.527,-1.19,0.06,-1.53,0.54,-1.55,-0.12
6.527,-1.19,0.06,-1.53,0.54,-1.55,-0.12
6.528,-1.22,0.08,-1.57,0.54,-1.55,-0.12
6.528,-1.22,0.08,-1.57,0.54,-1.55,-0.12
6.536,-1.22,0.08,-1.57,0.54,-1.55,-0.12
6.537,-1.22,0.08,-1.57,0.54,-1.55,-0.12
6.537,-1.22,0.08,-1.57,0.54,-1.55,-0.12
6.537,-1.22,0.08,-1.57,0.54,-1.55,-0.12
6.546,-1.22,0.08,-1.57,0.45,-1.41,-0.17
6.546,-1.22,0.08,-1.57,0.45,-1.41,-0.17
6.547,-1.51,0.13,-1.72,0.45,-1.41,-0.17
6.547,-1.51,0.13,-1.72,0.45,-1.41,-0.17
6.555,-1.51,0.13,-1.72,0.35,-1.26,-0.21
6.556,-1.51,0.13,-1.72,0.35,-1.26,-0.21
6.557,-1.79,0.13,-1.76,0.35,-1.26,-0.21
6.557,-1.79,0.13,-1.76,0.35,-1.26,-0.21
6.565,-1.79,0.13,-1.76,0.25,-1.13,-0.23
6.566,-1.79,0.13,-1.76,0.25,-1.13,-0.23
6.566,-2.01,0.1,-1.79,0.25,-1.13,-0.23
6.567,-2.01,0.1,-1.79,0.25,-1.13,-0.23
6.575,-2.01,0.1,-1.79,0.15,-1.07,-0.25
6.576,-2.01,0.1,-1.79,0.15,-1.07,-0.25
6.576,-2.15,0.04,-1.81,0.15,-1.07,-0.25
6.577,-2.15,0.04,-1.81,0.15,-1.07,-0.25
6.584,-2.15,0.04,-1.81,0.06,-1.06,-0.24
6.585,-2.15,0.04,-1.81,0.06,-1.06,-0.24
6.586,-2.19,-0.04,-1.8,0.06,-1.06,-0.24
6.586,-2.19,-0.04,-1.8,0.06,-1.06,-0.24
6.594,-2.19,-0.04,-1.8,0,-1.08,-0.23
6.594,-2.19,-0.04,-1.8,0,-1.08,-0.23
6.595,-2.14,-0.14,-1.79,0,-1.08,-0.23
6.596,-2.14,-0.14,-1.79,0,-1.08,-0.23
6.606,-2.14,-0.14,-1.79,-0.03,-1.11,-0.21
6.607,-2.14,-0.14,-1.79,-0.03,-1.11,-0.21
6.607,-2.01,-0.22,-1.78,-0.03,-1.11,-0.21
6.608,-2.01,-0.22,-1.78,-0.03,-1.11,-0.21
6.612,-2.01,-0.22,-1.78,-0.03,-1.11,-0.21
6.613,-2.01,-0.22,-1.78,-0.03,-1.11,-0.21
6.613,-1.86,-0.27,-1.8,-0.03,-1.11,-0.21
6.613,-1.86,-0.27,-1.8,-0.03,-1.11,-0.21
6.624,-1.86,-0.27,-1.8,0,-1.08,-0.24
6.624,-1.86,-0.27,-1.8,0,-1.08,-0.24
6.625,-1.67,-0.26,-1.87,0,-1.08,-0.24
6.625,-1.67,-0.26,-1.87,0,-1.08,-0.24
6.631,-1.67,-0.26,-1.87,0.04,-1.01,-0.28
6.632,-1.67,-0.26,-1.87,0.04,-1.01,-0.28
6.632,-1.51,-0.18,-1.91,0.04,-1.01,-0.28
6.632,-1.51,-0.18,-1.91,0.04,-1.01,-0.28
6.641,-1.51,-0.18,-1.91,0.07,-0.91,-0.31
6.642,-1.51,-0.18,-1.91,0.07,-0.91,-0.31
6.643,-1.48,0.01,-1.92,0.07,-0.91,-0.31
6.643,-1.48,0.01,-1.92,0.07,-0.91,-0.31
6.65,-1.48,0.01,-1.92,0.07,-0.79,-0.3
6.651,-1.48,0.01,-1.92,0.07,-0.79,-0.3
6.651,-1.51,0.31,-1.84,0.07,-0.79,-0.3
6.651,-1.51,0.31,-1.84,0.07,-0.79,-0.3
6.66,-1.51,0.31,-1.84,0.01,-0.66,-0.26
6.661,-1.51,0.31,-1.84,0.01,-0.66,-0.26
6.661,-1.64,0.66,-1.72,0.01,-0.66,-0.26
6.662,-1.64,0.66,-1.72,0.01,-0.66,-0.26
6.669,-1.64,0.66,-1.72,-0.1,-0.56,-0.22
6.67,-1.64,0.66,-1.72,-0.1,-0.56,-0.22
6.67,-1.81,1,-1.59,-0.1,-0.56,-0.22
6.671,-1.81,1,-1.59,-0.1,-0.56,-0.22
6.679,-1.81,1,-1.59,-0.25,-0.5,-0.2
6.68,-1.81,1,-1.59,-0.25,-0.5,-0.2
6.68,-1.89,1.29,-1.45,-0.25,-0.5,-0.2
6.68,-1.89,1.29,-1.45,-0.25,-0.5,-0.2
6.688,-1.89,1.29,-1.45,-0.45,-0.48,-0.2
6.688,-1.89,1.29,-1.45,-0.45,-0.48,-0.2
6.689,-1.88,1.49,-1.33,-0.45,-0.48,-0.2
6.689,-1.88,1.49,-1.33,-0.45,-0.48,-0.2
6.698,-1.88,1.49,-1.33,-0.66,-0.5,-0.22
6.698,-1.88,1.49,-1.33,-0.66,-0.5,-0.22
6.699,-1.79,1.62,-1.22,-0.66,-0.5,-0.22
6.7,-1.79,1.62,-1.22,-0.66,-0.5,-0.22
6.708,-1.79,1.62,-1.22,-0.86,-0.53,-0.24
6.709,-1.79,1.62,-1.22,-0.86,-0.53,-0.24
6.71,-1.63,1.69,-1.15,-0.86,-0.53,-0.24
6.71,-1.63,1.69,-1.15,-0.86,-0.53,-0.24
6.717,-1.63,1.69,-1.15,-1.03,-0.55,-0.27
6.718,-1.63,1.69,-1.15,-1.03,-0.55,-0.27
6.718,-1.47,1.76,-1.04,-1.03,-0.55,-0.27
6.718,-1.47,1.76,-1.04,-1.03,-0.55,-0.27
6.727,-1.47,1.76,-1.04,-1.15,-0.52,-0.29
6.728,-1.47,1.76,-1.04,-1.15,-0.52,-0.29
6.728,-1.32,1.83,-0.88,-1.15,-0.52,-0.29
6.729,-1.32,1.83,-0.88,-1.15,-0.52,-0.29
6.736,-1.32,1.83,-0.88,-1.15,-0.52,-0.29
6.738,-1.32,1.83,-0.88,-1.15,-0.52,-0.29
6.738,-1.32,1.83,-0.88,-1.15,-0.52,-0.29
6.738,-1.32,1.83,-0.88,-1.15,-0.52,-0.29
6.746,-1.32,1.83,-0.88,-1.23,-0.47,-0.29
6.747,-1.32,1.83,-0.88,-1.23,-0.47,-0.29
6.747,-1.11,2.1,-0.18,-1.23,-0.47,-0.29
6.747,-1.11,2.1,-0.18,-1.23,-0.47,-0.29
6.755,-1.11,2.1,-0.18,-1.27,-0.37,-0.28
6.756,-1.11,2.1,-0.18,-1.27,-0.37,-0.28
6.756,-0.95,2.3,0.29,-1.27,-0.37,-0.28
6.757,-0.95,2.3,0.29,-1.27,-0.37,-0.28
6.765,-0.95,2.3,0.29,-1.3,-0.24,-0.26
6.766,-0.95,2.3,0.29,-1.3,-0.24,-0.26
6.767,-0.81,2.5,0.68,-1.3,-0.24,-0.26
6.767,-0.81,2.5,0.68,-1.3,-0.24,-0.26
6.775,-0.81,2.5,0.68,-1.33,-0.06,-0.26
6.776,-0.81,2.5,0.68,-1.33,-0.06,-0.26
6.777,-0.68,2.71,0.99,-1.33,-0.06,-0.26
6.777,-0.68,2.71,0.99,-1.33,-0.06,-0.26
6.783,-0.68,2.71,0.99,-1.38,0.15,-0.27
6.784,-0.68,2.71,0.99,-1.38,0.15,-0.27
6.784,-0.58,2.87,1.16,-1.38,0.15,-0.27
6.785,-0.58,2.87,1.16,-1.38,0.15,-0.27
6.793,-0.58,2.87,1.16,-1.45,0.35,-0.3
6.794,-0.58,2.87,1.16,-1.45,0.35,-0.3
6.795,-0.5,2.99,1.25,-1.45,0.35,-0.3
6.795,-0.5,2.99,1.25,-1.45,0.35,-0.3
6.806,-0.5,2.99,1.25,-1.53,0.53,-0.31
6.807,-0.5,2.99,1.25,-1.53,0.53,-0.31
6.807,-0.44,3.11,1.34,-1.53,0.53,-0.31
6.808,-0.44,3.11,1.34,-1.53,0.53,-0.31
6.812,-0.44,3.11,1.34,-1.62,0.67,-0.31
6.813,-0.44,3.11,1.34,-1.62,0.67,-0.31
6.813,-0.43,3.24,1.37,-1.62,0.67,-0.31
6.814,-0.43,3.24,1.37,-1.62,0.67,-0.31
6.822,-0.43,3.24,1.37,-1.7,0.75,-0.28
6.823,-0.43,3.24,1.37,-1.7,0.75,-0.28
6.823,-0.49,3.39,1.47,-1.7,0.75,-0.28
6.824,-0.49,3.39,1.47,-1.7,0.75,-0.28
6.831,-0.49,3.39,1.47,-1.77,0.78,-0.24
6.832,-0.49,3.39,1.47,-1.77,0.78,-0.24
6.832,-0.65,3.56,1.57,-1.77,0.78,-0.24
6.833,-0.65,3.56,1.57,-1.77,0.78,-0.24
6.841,-0.65,3.56,1.57,-1.85,0.74,-0.18
6.842,-0.65,3.56,1.57,-1.85,0.74,-0.18
6.842,-0.86,3.75,1.74,-1.85,0.74,-0.18
6.842,-0.86,3.75,1.74,-1.85,0.74,-0.18
6.85,-0.86,3.75,1.74,-1.94,0.64,-0.11
6.851,-0.86,3.75,1.74,-1.94,0.64,-0.11
6.852,-1.07,3.98,1.95,-1.94,0.64,-0.11
6.852,-1.07,3.98,1.95,-1.94,0.64,-0.11
6.86,-1.07,3.98,1.95,-2.06,0.47,-0.03
6.861,-1.07,3.98,1.95,-2.06,0.47,-0.03
6.862,-1.26,4.22,2.11,-2.06,0.47,-0.03
6.862,-1.26,4.22,2.11,-2.06,0.47,-0.03
6.869,-1.26,4.22,2.11,-2.21,0.24,0.03
6.87,-1.26,4.22,2.11,-2.21,0.24,0.03
6.871,-1.42,4.47,2.22,-2.21,0.24,0.03
6.871,-1.42,4.47,2.22,-2.21,0.24,0.03
6.879,-1.42,4.47,2.22,-2.39,-0.01,0.08
6.88,-1.42,4.47,2.22,-2.39,-0.01,0.08
6.88,-1.54,4.74,2.3,-2.39,-0.01,0.08
6.881,-1.54,4.74,2.3,-2.39,-0.01,0.08
6.888,-1.54,4.74,2.3,-2.58,-0.29,0.11
6.889,-1.54,4.74,2.3,-2.58,-0.29,0.11
6.89,-1.69,4.97,2.34,-2.58,-0.29,0.11
6.89,-1.69,4.97,2.34,-2.58,-0.29,0.11
6.898,-1.69,4.97,2.34,-2.79,-0.56,0.13
6.899,-1.69,4.97,2.34,-2.79,-0.56,0.13
6.899,-1.91,5.22,2.37,-2.79,-0.56,0.13
6.9,-1.91,5.22,2.37,-2.79,-0.56,0.13
6.908,-1.91,5.22,2.37,-2.99,-0.84,0.16
6.909,-1.91,5.22,2.37,-2.99,-0.84,0.16
6.909,-2.15,5.44,2.41,-2.99,-0.84,0.16
6.91,-2.15,5.44,2.41,-2.99,-0.84,0.16
6.918,-2.15,5.44,2.41,-3.2,-1.13,0.2
6.919,-2.15,5.44,2.41,-3.2,-1.13,0.2
6.919,-2.44,5.57,2.47,-3.2,-1.13,0.2
6.92,-2.44,5.57,2.47,-3.2,-1.13,0.2
6.928,-2.44,5.57,2.47,-3.38,-1.43,0.27
6.929,-2.44,5.57,2.47,-3.38,-1.43,0.27
6.929,-2.67,5.64,2.53,-3.38,-1.43,0.27
6.929,-2.67,5.64,2.53,-3.38,-1.43,0.27
6.936,-2.67,5.64,2.53,-3.38,-1.43,0.27
6.936,-2.67,5.64,2.53,-3.38,-1.43,0.27
6.937,-2.67,5.64,2.53,-3.38,-1.43,0.27
6.937,-2.67,5.64,2.53,-3.38,-1.43,0.27
6.946,-2.67,5.64,2.53,-3.52,-1.75,0.35
6.947,-2.67,5.64,2.53,-3.52,-1.75,0.35
6.947,-2.68,5.62,2.8,-3.52,-1.75,0.35
6.948,-2.68,5.62,2.8,-3.52,-1.75,0.35
6.955,-2.68,5.62,2.8,-3.6,-2.05,0.42
6.956,-2.68,5.62,2.8,-3.6,-2.05,0.42
6.956,-2.48,5.46,2.96,-3.6,-2.05,0.42
6.956,-2.48,5.46,2.96,-3.6,-2.05,0.42
6.966,-2.48,5.46,2.96,-3.62,-2.28,0.49
6.966,-2.48,5.46,2.96,-3.62,-2.28,0.49
6.967,-2.21,5.29,3.14,-3.62,-2.28,0.49
6.967,-2.21,5.29,3.14,-3.62,-2.28,0.49
6.974,-2.21,5.29,3.14,-3.56,-2.39,0.55
6.975,-2.21,5.29,3.14,-3.56,-2.39,0.55
6.976,-2,5.1,3.31,-3.56,-2.39,0.55
6.976,-2,5.1,3.31,-3.56,-2.39,0.55
6.984,-2,5.1,3.31,-3.43,-2.33,0.61
6.985,-2,5.1,3.31,-3.43,-2.33,0.61
6.986,-1.9,4.94,3.52,-3.43,-2.33,0.61
6.986,-1.9,4.94,3.52,-3.43,-2.33,0.61
6.994,-1.9,4.94,3.52,-3.25,-2.13,0.69
6.996,-1.9,4.94,3.52,-3.25,-2.13,0.69
6.996,-1.89,4.75,3.74,-3.25,-2.13,0.69
6.997,-1.89,4.75,3.74,-3.25,-2.13,0.69
7.007,-1.89,4.75,3.74,-3.06,-1.87,0.79
7.008,-1.89,4.75,3.74,-3.06,-1.87,0.79
7.008,-1.92,4.55,4.01,-3.06,-1.87,0.79
7.009,-1.92,4.55,4.01,-3.06,-1.87,0.79
7.012,-1.92,4.55,4.01,-2.87,-1.61,0.89
7.013,-1.92,4.55,4.01,-2.87,-1.61,0.89
7.013,-1.95,4.33,4.25,-2.87,-1.61,0.89
7.014,-1.95,4.33,4.25,-2.87,-1.61,0.89
7.029,-1.95,4.33,4.25,-2.71,-1.39,0.99
7.029,-1.95,4.33,4.25,-2.71,-1.39,0.99
7.03,-1.95,4.1,4.36,-2.71,-1.39,0.99
7.03,-1.95,4.1,4.36,-2.71,-1.39,0.99
7.031,-1.95,4.1,4.36,-2.58,-1.24,1.1
7.031,-1.95,4.1,4.36,-2.58,-1.24,1.1
7.031,-2,3.93,4.41,-2.58,-1.24,1.1
7.032,-2,3.93,4.41,-2.58,-1.24,1.1
7.041,-2,3.93,4.41,-2.48,-1.16,1.21
7.041,-2,3.93,4.41,-2.48,-1.16,1.21
7.041,-2.17,3.87,4.33,-2.48,-1.16,1.21
7.042,-2.17,3.87,4.33,-2.48,-1.16,1.21
7.051,-2.17,3.87,4.33,-2.39,-1.15,1.31
7.052,-2.17,3.87,4.33,-2.39,-1.15,1.31
7.052,-2.5,3.93,4.19,-2.39,-1.15,1.31
7.053,-2.5,3.93,4.19,-2.39,-1.15,1.31
7.061,-2.5,3.93,4.19,-2.31,-1.21,1.36
7.062,-2.5,3.93,4.19,-2.31,-1.21,1.36
7.062,-2.87,4.13,4.19,-2.31,-1.21,1.36
7.063,-2.87,4.13,4.19,-2.31,-1.21,1.36
7.069,-2.87,4.13,4.19,-2.25,-1.38,1.36
7.07,-2.87,4.13,4.19,-2.25,-1.38,1.36
7.071,-3.23,4.34,4.22,-2.25,-1.38,1.36
7.071,-3.23,4.34,4.22,-2.25,-1.38,1.36
7.079,-3.23,4.34,4.22,-2.25,-1.67,1.3
7.08,-3.23,4.34,4.22,-2.25,-1.67,1.3
7.08,-3.43,4.51,4.23,-2.25,-1.67,1.3
7.081,-3.43,4.51,4.23,-2.25,-1.67,1.3
7.088,-3.43,4.51,4.23,-2.2,-2.08,1.19
7.089,-3.43,4.51,4.23,-2.2,-2.08,1.19
7.09,-3.45,4.57,4.21,-2.2,-2.08,1.19
7.09,-3.45,4.57,4.21,-2.2,-2.08,1.19
7.099,-3.45,4.57,4.21,-2.23,-2.52,1.06
7.099,-3.45,4.57,4.21,-2.23,-2.52,1.06
7.1,-3.41,4.44,4.05,-2.23,-2.52,1.06
7.1,-3.41,4.44,4.05,-2.23,-2.52,1.06
7.108,-3.41,4.44,4.05,-2.4,-2.92,0.95
7.109,-3.41,4.44,4.05,-2.4,-2.92,0.95
7.109,-3.34,4.21,3.71,-2.4,-2.92,0.95
7.11,-3.34,4.21,3.71,-2.4,-2.92,0.95
7.117,-3.34,4.21,3.71,-2.48,-3.2,0.86
7.118,-3.34,4.21,3.71,-2.48,-3.2,0.86
7.118,-3.31,3.85,3.35,-2.48,-3.2,0.86
7.119,-3.31,3.85,3.35,-2.48,-3.2,0.86
7.128,-3.31,3.85,3.35,-2.42,-3.32,0.8
7.129,-3.31,3.85,3.35,-2.42,-3.32,0.8
7.13,-3.25,3.4,2.98,-2.42,-3.32,0.8
7.13,-3.25,3.4,2.98,-2.42,-3.32,0.8
7.138,-3.25,3.4,2.98,-2.2,-3.28,0.72
7.139,-3.25,3.4,2.98,-2.2,-3.28,0.72
7.139,-3.05,2.92,2.64,-2.2,-3.28,0.72
7.14,-3.05,2.92,2.64,-2.2,-3.28,0.72
7.147,-3.05,2.92,2.64,-2.2,-3.28,0.72
7.148,-3.05,2.92,2.64,-2.2,-3.28,0.72
7.148,-3.05,2.92,2.64,-2.2,-3.28,0.72
7.149,-3.05,2.92,2.64,-2.2,-3.28,0.72
7.155,-3.05,2.92,2.64,-1.83,-3.1,0.63
7.157,-3.05,2.92,2.64,-1.83,-3.1,0.63
7.157,-2.52,2.36,2.41,-1.83,-3.1,0.63
7.158,-2.52,2.36,2.41,-1.83,-3.1,0.63
7.165,-2.52,2.36,2.41,-1.37,-2.81,0.55
7.166,-2.52,2.36,2.41,-1.37,-2.81,0.55
7.167,-2.34,2.18,2.36,-1.37,-2.81,0.55
7.167,-2.34,2.18,2.36,-1.37,-2.81,0.55
7.175,-2.34,2.18,2.36,-0.87,-2.43,0.51
7.176,-2.34,2.18,2.36,-0.87,-2.43,0.51
7.177,-2.45,2.07,2.3,-0.87,-2.43,0.51
7.177,-2.45,2.07,2.3,-0.87,-2.43,0.51
7.184,-2.45,2.07,2.3,-0.43,-2.04,0.53
7.185,-2.45,2.07,2.3,-0.43,-2.04,0.53
7.185,-2.72,1.97,2.12,-0.43,-2.04,0.53
7.186,-2.72,1.97,2.12,-0.43,-2.04,0.53
7.193,-2.72,1.97,2.12,-0.09,-1.7,0.56
7.194,-2.72,1.97,2.12,-0.09,-1.7,0.56
7.194,-3,1.82,1.85,-0.09,-1.7,0.56
7.195,-3,1.82,1.85,-0.09,-1.7,0.56
7.206,-3,1.82,1.85,0.13,-1.49,0.56
7.206,-3,1.82,1.85,0.13,-1.49,0.56
7.207,-3.13,1.49,1.59,0.13,-1.49,0.56
7.207,-3.13,1.49,1.59,0.13,-1.49,0.56
7.212,-3.13,1.49,1.59,0.28,-1.39,0.49
7.213,-3.13,1.49,1.59,0.28,-1.39,0.49
7.213,-3.04,1.16,1.3,0.28,-1.39,0.49
7.214,-3.04,1.16,1.3,0.28,-1.39,0.49
7.225,-3.04,1.16,1.3,0.41,-1.37,0.35
7.226,-3.04,1.16,1.3,0.41,-1.37,0.35
7.226,-2.89,0.89,1.11,0.41,-1.37,0.35
7.226,-2.89,0.89,1.11,0.41,-1.37,0.35
7.231,-2.89,0.89,1.11,0.55,-1.36,0.2
7.232,-2.89,0.89,1.11,0.55,-1.36,0.2
7.232,-2.82,0.68,0.88,0.55,-1.36,0.2
7.233,-2.82,0.68,0.88,0.55,-1.36,0.2
7.241,-2.82,0.68,0.88,0.69,-1.33,0.06
7.242,-2.82,0.68,0.88,0.69,-1.33,0.06
7.243,-2.93,0.49,0.47,0.69,-1.33,0.06
7.243,-2.93,0.49,0.47,0.69,-1.33,0.06
7.251,-2.93,0.49,0.47,0.82,-1.27,-0.05
7.252,-2.93,0.49,0.47,0.82,-1.27,-0.05
7.252,-3.2,0.16,0.08,0.82,-1.27,-0.05
7.253,-3.2,0.16,0.08,0.82,-1.27,-0.05
7.26,-3.2,0.16,0.08,0.95,-1.2,-0.16
7.262,-3.2,0.16,0.08,0.95,-1.2,-0.16
7.262,-3.34,-0.41,-0.23,0.95,-1.2,-0.16
7.263,-3.34,-0.41,-0.23,0.95,-1.2,-0.16
7.269,-3.34,-0.41,-0.23,1.08,-1.15,-0.29
7.27,-3.34,-0.41,-0.23,1.08,-1.15,-0.29
7.27,-3.3,-1.07,-0.33,1.08,-1.15,-0.29
7.271,-3.3,-1.07,-0.33,1.08,-1.15,-0.29
7.279,-3.3,-1.07,-0.33,1.25,-1.13,-0.47
7.28,-3.3,-1.07,-0.33,1.25,-1.13,-0.47
7.28,-3.09,-1.65,-0.11,1.25,-1.13,-0.47
7.28,-3.09,-1.65,-0.11,1.25,-1.13,-0.47
7.288,-3.09,-1.65,-0.11,1.45,-1.1,-0.66
7.289,-3.09,-1.65,-0.11,1.45,-1.1,-0.66
7.289,-2.9,-1.96,0.27,1.45,-1.1,-0.66
7.29,-2.9,-1.96,0.27,1.45,-1.1,-0.66
7.298,-2.9,-1.96,0.27,1.64,-1.07,-0.81
7.299,-2.9,-1.96,0.27,1.64,-1.07,-0.81
7.3,-3.05,-1.88,0.54,1.64,-1.07,-0.81
7.3,-3.05,-1.88,0.54,1.64,-1.07,-0.81
7.307,-3.05,-1.88,0.54,1.75,-1.04,-0.89
7.309,-3.05,-1.88,0.54,1.75,-1.04,-0.89
7.309,-3.52,-1.71,0.55,1.75,-1.04,-0.89
7.31,-3.52,-1.71,0.55,1.75,-1.04,-0.89
7.317,-3.52,-1.71,0.55,1.75,-0.87,-0.87
7.318,-3.52,-1.71,0.55,1.75,-0.87,-0.87
7.318,-4.01,-1.62,0.2,1.75,-0.87,-0.87
7.318,-4.01,-1.62,0.2,1.75,-0.87,-0.87
7.329,-4.01,-1.62,0.2,1.63,-0.81,-0.75
7.33,-4.01,-1.62,0.2,1.63,-0.81,-0.75
7.33,-4.21,-1.78,-0.34,1.63,-0.81,-0.75
7.331,-4.21,-1.78,-0.34,1.63,-0.81,-0.75
7.337,-4.21,-1.78,-0.34,1.63,-0.81,-0.75
7.338,-4.21,-1.78,-0.34,1.63,-0.81,-0.75
7.338,-4.21,-1.78,-0.34,1.63,-0.81,-0.75
7.339,-4.21,-1.78,-0.34,1.63,-0.81,-0.75
7.345,-4.21,-1.78,-0.34,1.47,-1.04,-0.67
7.346,-4.21,-1.78,-0.34,1.47,-1.04,-0.67
7.347,-2.1,-2.64,-1.36,1.47,-1.04,-0.67
7.347,-2.1,-2.64,-1.36,1.47,-1.04,-0.67
7.355,-2.1,-2.64,-1.36,1.35,-1.2,-0.71
7.356,-2.1,-2.64,-1.36,1.35,-1.2,-0.71
7.357,-1.64,-2.97,-1.56,1.35,-1.2,-0.71
7.358,-1.64,-2.97,-1.56,1.35,-1.2,-0.71
7.365,-1.64,-2.97,-1.56,1.38,-1.1,-0.77
7.366,-1.64,-2.97,-1.56,1.38,-1.1,-0.77
7.367,-1.03,-3.06,-1.55,1.38,-1.1,-0.77
7.367,-1.03,-3.06,-1.55,1.38,-1.1,-0.77
7.375,-1.03,-3.06,-1.55,1.55,-0.77,-0.71
7.376,-1.03,-3.06,-1.55,1.55,-0.77,-0.71
7.377,-0.47,-2.85,-1.36,1.55,-0.77,-0.71
7.377,-0.47,-2.85,-1.36,1.55,-0.77,-0.71
7.383,-0.47,-2.85,-1.36,1.75,-0.25,-0.57
7.384,-0.47,-2.85,-1.36,1.75,-0.25,-0.57
7.384,-0.12,-2.38,-1.04,1.75,-0.25,-0.57
7.385,-0.12,-2.38,-1.04,1.75,-0.25,-0.57
7.393,-0.12,-2.38,-1.04,1.84,0.33,-0.37
7.394,-0.12,-2.38,-1.04,1.84,0.33,-0.37
7.394,0.04,-1.85,-0.73,1.84,0.33,-0.37
7.395,0.04,-1.85,-0.73,1.84,0.33,-0.37
7.405,0.04,-1.85,-0.73,1.74,0.81,-0.14
7.406,0.04,-1.85,-0.73,1.74,0.81,-0.14
7.406,0.23,-1.37,-0.5,1.74,0.81,-0.14
7.407,0.23,-1.37,-0.5,1.74,0.81,-0.14
7.412,0.23,-1.37,-0.5,1.44,1.15,0.13
7.413,0.23,-1.37,-0.5,1.44,1.15,0.13
7.413,0.53,-1.08,-0.36,1.44,1.15,0.13
7.413,0.53,-1.08,-0.36,1.44,1.15,0.13
7.434,0.53,-1.08,-0.36,0.99,1.36,0.41
7.435,0.53,-1.08,-0.36,0.99,1.36,0.41
7.435,1,-0.97,-0.33,0.99,1.36,0.41
7.436,1,-0.97,-0.33,0.99,1.36,0.41
7.436,1,-0.97,-0.33,0.48,1.46,0.5
7.436,1,-0.97,-0.33,0.48,1.46,0.5
7.437,1.66,-0.97,-0.39,0.48,1.46,0.5
7.437,1.66,-0.97,-0.39,0.48,1.46,0.5
7.442,1.66,-0.97,-0.39,0.02,1.56,0.57
7.443,1.66,-0.97,-0.39,0.02,1.56,0.57
7.443,3.21,-1.01,-0.43,0.02,1.56,0.57
7.444,3.21,-1.01,-0.43,0.02,1.56,0.57
7.451,3.21,-1.01,-0.43,-0.34,1.72,0.8
7.452,3.21,-1.01,-0.43,-0.34,1.72,0.8
7.452,3.7,-1.06,-0.46,-0.34,1.72,0.8
7.452,3.7,-1.06,-0.46,-0.34,1.72,0.8
7.46,3.7,-1.06,-0.46,-0.56,2,1.05
7.461,3.7,-1.06,-0.46,-0.56,2,1.05
7.462,4.29,-1.11,-0.38,-0.56,2,1.05
7.462,4.29,-1.11,-0.38,-0.56,2,1.05
7.47,4.29,-1.11,-0.38,-0.66,2.39,1.31
7.471,4.29,-1.11,-0.38,-0.66,2.39,1.31
7.471,4.76,-1.18,-0.16,-0.66,2.39,1.31
7.471,4.76,-1.18,-0.16,-0.66,2.39,1.31
7.479,4.76,-1.18,-0.16,-0.67,2.81,1.55
7.48,4.76,-1.18,-0.16,-0.67,2.81,1.55
7.48,4.94,-1.28,0.17,-0.67,2.81,1.55
7.481,4.94,-1.28,0.17,-0.67,2.81,1.55
7.488,4.94,-1.28,0.17,-0.63,3.16,1.71
7.489,4.94,-1.28,0.17,-0.63,3.16,1.71
7.489,4.87,-1.41,0.54,-0.63,3.16,1.71
7.49,4.87,-1.41,0.54,-0.63,3.16,1.71
7.499,4.87,-1.41,0.54,-0.56,3.39,1.78
7.499,4.87,-1.41,0.54,-0.56,3.39,1.78
7.5,4.59,-1.59,0.82,-0.56,3.39,1.78
7.5,4.59,-1.59,0.82,-0.56,3.39,1.78
7.509,4.59,-1.59,0.82,-0.5,3.49,1.78
7.51,4.59,-1.59,0.82,-0.5,3.49,1.78
7.511,4.23,-1.8,1,-0.5,3.49,1.78
7.511,4.23,-1.8,1,-0.5,3.49,1.78
7.518,4.23,-1.8,1,-0.44,3.45,1.71
7.518,4.23,-1.8,1,-0.44,3.45,1.71
7.519,3.94,-2,1.06,-0.44,3.45,1.71
7.519,3.94,-2,1.06,-0.44,3.45,1.71
7.539,3.94,-2,1.06,-0.35,3.28,1.56
7.539,3.94,-2,1.06,-0.35,3.28,1.56
7.54,3.8,-2.15,1.02,-0.35,3.28,1.56
7.54,3.8,-2.15,1.02,-0.35,3.28,1.56
7.54,3.8,-2.15,1.02,-0.35,3.28,1.56
7.541,3.8,-2.15,1.02,-0.35,3.28,1.56
7.541,3.8,-2.15,1.02,-0.35,3.28,1.56
7.541,3.8,-2.15,1.02,-0.35,3.28,1.56
7.546,3.8,-2.15,1.02,-0.21,3.02,1.34
7.546,3.8,-2.15,1.02,-0.21,3.02,1.34
7.546,4.11,-2.25,0.84,-0.21,3.02,1.34
7.547,4.11,-2.25,0.84,-0.21,3.02,1.34
7.555,4.11,-2.25,0.84,-0.02,2.72,1.09
7.556,4.11,-2.25,0.84,-0.02,2.72,1.09
7.556,4.45,-2.17,0.82,-0.02,2.72,1.09
7.556,4.45,-2.17,0.82,-0.02,2.72,1.09
7.565,4.45,-2.17,0.82,0.22,2.46,0.85
7.565,4.45,-2.17,0.82,0.22,2.46,0.85
7.566,4.75,-2.08,0.87,0.22,2.46,0.85
7.566,4.75,-2.08,0.87,0.22,2.46,0.85
7.575,4.75,-2.08,0.87,0.46,2.26,0.65
7.576,4.75,-2.08,0.87,0.46,2.26,0.65
7.577,4.95,-1.98,0.95,0.46,2.26,0.65
7.578,4.95,-1.98,0.95,0.46,2.26,0.65
7.584,4.95,-1.98,0.95,0.66,2.15,0.52
7.585,4.95,-1.98,0.95,0.66,2.15,0.52
7.586,4.97,-1.89,1.02,0.66,2.15,0.52
7.586,4.97,-1.89,1.02,0.66,2.15,0.52
7.594,4.97,-1.89,1.02,0.78,2.09,0.46
7.595,4.97,-1.89,1.02,0.78,2.09,0.46
7.595,4.85,-1.83,1.02,0.78,2.09,0.46
7.596,4.85,-1.83,1.02,0.78,2.09,0.46
7.607,4.85,-1.83,1.02,0.82,2.03,0.45
7.608,4.85,-1.83,1.02,0.82,2.03,0.45
7.609,4.66,-1.77,0.9,0.82,2.03,0.45
7.609,4.66,-1.77,0.9,0.82,2.03,0.45
7.613,4.66,-1.77,0.9,0.81,1.96,0.44
7.614,4.66,-1.77,0.9,0.81,1.96,0.44
7.614,4.47,-1.71,0.73,0.81,1.96,0.44
7.614,4.47,-1.71,0.73,0.81,1.96,0.44
7.639,4.47,-1.71,0.73,0.8,1.86,0.4
7.639,4.47,-1.71,0.73,0.8,1.86,0.4
7.64,4.23,-1.62,0.54,0.8,1.86,0.4
7.64,4.23,-1.62,0.54,0.8,1.86,0.4
7.64,4.23,-1.62,0.54,0.8,1.7,0.32
7.641,4.23,-1.62,0.54,0.8,1.7,0.32
7.641,3.97,-1.49,0.39,0.8,1.7,0.32
7.641,3.97,-1.49,0.39,0.8,1.7,0.32
7.641,3.97,-1.49,0.39,0.82,1.5,0.21
7.642,3.97,-1.49,0.39,0.82,1.5,0.21
7.642,3.65,-1.32,0.31,0.82,1.5,0.21
7.642,3.65,-1.32,0.31,0.82,1.5,0.21
7.651,3.65,-1.32,0.31,0.83,1.25,0.1
7.651,3.65,-1.32,0.31,0.83,1.25,0.1
7.652,3.33,-1.13,0.28,0.83,1.25,0.1
7.652,3.33,-1.13,0.28,0.83,1.25,0.1
7.66,3.33,-1.13,0.28,0.81,0.98,0
7.661,3.33,-1.13,0.28,0.81,0.98,0
7.661,3.07,-0.95,0.28,0.81,0.98,0
7.661,3.07,-0.95,0.28,0.81,0.98,0
7.67,3.07,-0.95,0.28,0.76,0.7,-0.1
7.67,3.07,-0.95,0.28,0.76,0.7,-0.1
7.67,2.89,-0.79,0.24,0.76,0.7,-0.1
7.671,2.89,-0.79,0.24,0.76,0.7,-0.1
7.679,2.89,-0.79,0.24,0.67,0.44,-0.2
7.68,2.89,-0.79,0.24,0.67,0.44,-0.2
7.68,2.78,-0.71,0.19,0.67,0.44,-0.2
7.681,2.78,-0.71,0.19,0.67,0.44,-0.2
7.688,2.78,-0.71,0.19,0.55,0.22,-0.27
7.689,2.78,-0.71,0.19,0.55,0.22,-0.27
7.69,2.68,-0.7,0.18,0.55,0.22,-0.27
7.69,2.68,-0.7,0.18,0.55,0.22,-0.27
7.698,2.68,-0.7,0.18,0.44,0.05,-0.32
7.699,2.68,-0.7,0.18,0.44,0.05,-0.32
7.7,2.62,-0.77,0.22,0.44,0.05,-0.32
7.7,2.62,-0.77,0.22,0.44,0.05,-0.32
7.708,2.62,-0.77,0.22,0.35,-0.05,-0.33
7.709,2.62,-0.77,0.22,0.35,-0.05,-0.33
7.71,2.6,-0.84,0.32,0.35,-0.05,-0.33
7.71,2.6,-0.84,0.32,0.35,-0.05,-0.33
7.717,2.6,-0.84,0.32,0.29,-0.1,-0.31
7.717,2.6,-0.84,0.32,0.29,-0.1,-0.31
7.718,2.61,-0.88,0.42,0.29,-0.1,-0.31
7.718,2.61,-0.88,0.42,0.29,-0.1,-0.31
7.73,2.61,-0.88,0.42,0.29,-0.1,-0.31
7.73,2.61,-0.88,0.42,0.29,-0.1,-0.31
7.731,2.61,-0.88,0.42,0.29,-0.1,-0.31
7.731,2.61,-0.88,0.42,0.29,-0.1,-0.31
7.738,2.61,-0.88,0.42,0.26,-0.08,-0.26
7.739,2.61,-0.88,0.42,0.26,-0.08,-0.26
7.74,2.77,-0.91,0.44,0.26,-0.08,-0.26
7.74,2.77,-0.91,0.44,0.26,-0.08,-0.26
7.745,2.77,-0.91,0.44,0.26,0,-0.19
7.746,2.77,-0.91,0.44,0.26,0,-0.19
7.747,2.55,-0.91,0.44,0.26,0,-0.19
7.747,2.55,-0.91,0.44,0.26,0,-0.19
7.756,2.55,-0.91,0.44,0.27,0.12,-0.11
7.757,2.55,-0.91,0.44,0.27,0.12,-0.11
7.758,2.17,-0.98,0.44,0.27,0.12,-0.11
7.758,2.17,-0.98,0.44,0.27,0.12,-0.11
7.765,2.17,-0.98,0.44,0.3,0.25,-0.04
7.766,2.17,-0.98,0.44,0.3,0.25,-0.04
7.767,1.65,-1.04,0.45,0.3,0.25,-0.04
7.767,1.65,-1.04,0.45,0.3,0.25,-0.04
7.775,1.65,-1.04,0.45,0.33,0.34,0.01
7.776,1.65,-1.04,0.45,0.33,0.34,0.01
7.777,1.14,-1.07,0.47,0.33,0.34,0.01
7.777,1.14,-1.07,0.47,0.33,0.34,0.01
7.783,1.14,-1.07,0.47,0.36,0.35,0.04
7.784,1.14,-1.07,0.47,0.36,0.35,0.04
7.785,0.72,-1.06,0.45,0.36,0.35,0.04
7.785,0.72,-1.06,0.45,0.36,0.35,0.04
7.794,0.72,-1.06,0.45,0.39,0.27,0.03
7.795,0.72,-1.06,0.45,0.39,0.27,0.03
7.795,0.44,-1.01,0.42,0.39,0.27,0.03
7.796,0.44,-1.01,0.42,0.39,0.27,0.03
7.807,0.44,-1.01,0.42,0.42,0.12,0
7.808,0.44,-1.01,0.42,0.42,0.12,0
7.809,0.28,-0.98,0.39,0.42,0.12,0
7.809,0.28,-0.98,0.39,0.42,0.12,0
7.812,0.28,-0.98,0.39,0.43,-0.04,-0.05
7.813,0.28,-0.98,0.39,0.43,-0.04,-0.05
7.814,0.19,-0.97,0.39,0.43,-0.04,-0.05
7.814,0.19,-0.97,0.39,0.43,-0.04,-0.05
7.824,0.19,-0.97,0.39,0.43,-0.19,-0.09
7.825,0.19,-0.97,0.39,0.43,-0.19,-0.09
7.826,0.17,-0.97,0.47,0.43,-0.19,-0.09
7.826,0.17,-0.97,0.47,0.43,-0.19,-0.09
7.832,0.17,-0.97,0.47,0.42,-0.29,-0.11
7.832,0.17,-0.97,0.47,0.42,-0.29,-0.11
7.832,0.17,-0.97,0.58,0.42,-0.29,-0.11
7.833,0.17,-0.97,0.58,0.42,-0.29,-0.11
7.841,0.17,-0.97,0.58,0.4,-0.33,-0.1
7.842,0.17,-0.97,0.58,0.4,-0.33,-0.1
7.843,0.2,-0.95,0.71,0.4,-0.33,-0.1
7.844,0.2,-0.95,0.71,0.4,-0.33,-0.1
7.853,0.2,-0.95,0.71,0.36,-0.31,-0.04
7.854,0.2,-0.95,0.71,0.36,-0.31,-0.04
7.854,0.28,-0.89,0.8,0.36,-0.31,-0.04
7.855,0.28,-0.89,0.8,0.36,-0.31,-0.04
7.861,0.28,-0.89,0.8,0.29,-0.24,0.04
7.862,0.28,-0.89,0.8,0.29,-0.24,0.04
7.863,0.37,-0.81,0.84,0.29,-0.24,0.04
7.864,0.37,-0.81,0.84,0.29,-0.24,0.04
7.869,0.37,-0.81,0.84,0.21,-0.13,0.15
7.871,0.37,-0.81,0.84,0.21,-0.13,0.15
7.872,0.51,-0.71,0.86,0.21,-0.13,0.15
7.873,0.51,-0.71,0.86,0.21,-0.13,0.15
7.879,0.51,-0.71,0.86,0.11,0.02,0.27
7.88,0.51,-0.71,0.86,0.11,0.02,0.27
7.881,0.64,-0.65,0.9,0.11,0.02,0.27
7.882,0.64,-0.65,0.9,0.11,0.02,0.27
7.888,0.64,-0.65,0.9,0,0.17,0.4
7.889,0.64,-0.65,0.9,0,0.17,0.4
7.89,0.74,-0.61,0.93,0,0.17,0.4
7.891,0.74,-0.61,0.93,0,0.17,0.4
7.898,0.74,-0.61,0.93,-0.12,0.33,0.52
7.899,0.74,-0.61,0.93,-0.12,0.33,0.52
7.9,0.81,-0.6,0.93,-0.12,0.33,0.52
7.9,0.81,-0.6,0.93,-0.12,0.33,0.52
7.909,0.81,-0.6,0.93,-0.23,0.46,0.64
7.91,0.81,-0.6,0.93,-0.23,0.46,0.64
7.91,0.81,-0.65,0.93,-0.23,0.46,0.64
7.911,0.81,-0.65,0.93,-0.23,0.46,0.64
7.94,0.81,-0.65,0.93,-0.31,0.57,0.74
7.941,0.81,-0.65,0.93,-0.31,0.57,0.74
7.942,0.75,-0.72,0.86,-0.31,0.57,0.74
7.942,0.75,-0.72,0.86,-0.31,0.57,0.74
7.942,0.75,-0.72,0.86,-0.38,0.63,0.83
7.943,0.75,-0.72,0.86,-0.38,0.63,0.83
7.943,0.7,-0.8,0.79,-0.38,0.63,0.83
7.943,0.7,-0.8,0.79,-0.38,0.63,0.83
7.943,0.7,-0.8,0.79,-0.38,0.63,0.83
7.944,0.7,-0.8,0.79,-0.38,0.63,0.83
7.944,0.7,-0.8,0.79,-0.38,0.63,0.83
7.944,0.7,-0.8,0.79,-0.38,0.63,0.83
7.945,0.7,-0.8,0.79,-0.4,0.63,0.9
7.946,0.7,-0.8,0.79,-0.4,0.63,0.9
7.946,0.72,-0.92,0.75,-0.4,0.63,0.9
7.946,0.72,-0.92,0.75,-0.4,0.63,0.9
7.956,0.72,-0.92,0.75,-0.4,0.59,0.96
7.956,0.72,-0.92,0.75,-0.4,0.59,0.96
7.957,0.83,-0.92,0.8,-0.4,0.59,0.96
7.957,0.83,-0.92,0.8,-0.4,0.59,0.96
7.965,0.83,-0.92,0.8,-0.36,0.52,1
7.966,0.83,-0.92,0.8,-0.36,0.52,1
7.966,0.96,-0.9,0.85,-0.36,0.52,1
7.967,0.96,-0.9,0.85,-0.36,0.52,1
7.976,0.96,-0.9,0.85,-0.3,0.47,1.03
7.977,0.96,-0.9,0.85,-0.3,0.47,1.03
7.978,1.14,-0.85,0.88,-0.3,0.47,1.03
7.978,1.14,-0.85,0.88,-0.3,0.47,1.03
7.985,1.14,-0.85,0.88,-0.25,0.43,1.05
7.986,1.14,-0.85,0.88,-0.25,0.43,1.05
7.986,1.32,-0.78,0.86,-0.25,0.43,1.05
7.987,1.32,-0.78,0.86,-0.25,0.43,1.05
7.994,1.32,-0.78,0.86,-0.23,0.43,1.07
7.995,1.32,-0.78,0.86,-0.23,0.43,1.07
7.995,1.59,-0.71,0.83,-0.23,0.43,1.07
7.996,1.59,-0.71,0.83,-0.23,0.43,1.07
8.003,1.59,-0.71,0.83,-0.25,0.45,1.11
8.004,1.59,-0.71,0.83,-0.25,0.45,1.11
8.004,2,-0.62,0.77,-0.25,0.45,1.11
8.005,2,-0.62,0.77,-0.25,0.45,1.11
8.012,2,-0.62,0.77,-0.29,0.5,1.15
8.013,2,-0.62,0.77,-0.29,0.5,1.15
8.014,2.59,-0.48,0.66,-0.29,0.5,1.15
8.015,2.59,-0.48,0.66,-0.29,0.5,1.15
8.025,2.59,-0.48,0.66,-0.33,0.59,1.18
8.026,2.59,-0.48,0.66,-0.33,0.59,1.18
8.027,4.01,-0.36,0.59,-0.33,0.59,1.18
8.028,4.01,-0.36,0.59,-0.33,0.59,1.18
8.033,4.01,-0.36,0.59,-0.38,0.74,1.23
8.034,4.01,-0.36,0.59,-0.38,0.74,1.23
8.034,4.19,-0.21,0.57,-0.38,0.74,1.23
8.034,4.19,-0.21,0.57,-0.38,0.74,1.23
8.059,4.19,-0.21,0.57,-0.47,0.96,1.35
8.06,4.19,-0.21,0.57,-0.47,0.96,1.35
8.06,4.32,-0.06,0.61,-0.47,0.96,1.35
8.06,4.32,-0.06,0.61,-0.47,0.96,1.35
8.06,4.32,-0.06,0.61,-0.62,1.18,1.51
8.061,4.32,-0.06,0.61,-0.62,1.18,1.51
8.061,4.16,0.02,0.73,-0.62,1.18,1.51
8.061,4.16,0.02,0.73,-0.62,1.18,1.51
8.061,4.16,0.02,0.73,-0.79,1.34,1.66
8.062,4.16,0.02,0.73,-0.79,1.34,1.66
8.062,3.83,0.08,0.83,-0.79,1.34,1.66
8.062,3.83,0.08,0.83,-0.79,1.34,1.66
8.07,3.83,0.08,0.83,-0.94,1.41,1.72
8.07,3.83,0.08,0.83,-0.94,1.41,1.72
8.071,3.46,0.1,0.89,-0.94,1.41,1.72
8.071,3.46,0.1,0.89,-0.94,1.41,1.72
8.079,3.46,0.1,0.89,-1.06,1.33,1.52
8.08,3.46,0.1,0.89,-1.06,1.33,1.52
8.081,3.1,0.1,0.89,-1.06,1.33,1.52
8.081,3.1,0.1,0.89,-1.06,1.33,1.52
8.089,3.1,0.1,0.89,-1.14,1.16,1.19
8.09,3.1,0.1,0.89,-1.14,1.16,1.19
8.09,2.77,0.11,0.83,-1.14,1.16,1.19
8.091,2.77,0.11,0.83,-1.14,1.16,1.19
8.099,2.77,0.11,0.83,-1.17,0.97,1.01
8.099,2.77,0.11,0.83,-1.17,0.97,1.01
8.1,2.45,0.09,0.69,-1.17,0.97,1.01
8.1,2.45,0.09,0.69,-1.17,0.97,1.01
8.108,2.45,0.09,0.69,-1.16,0.77,0.91
8.109,2.45,0.09,0.69,-1.16,0.77,0.91
8.109,2.1,0.04,0.49,-1.16,0.77,0.91
8.11,2.1,0.04,0.49,-1.16,0.77,0.91
8.135,2.1,0.04,0.49,-1.11,0.53,0.78
8.136,2.1,0.04,0.49,-1.11,0.53,0.78
8.136,1.71,-0.09,0.29,-1.11,0.53,0.78
8.136,1.71,-0.09,0.29,-1.11,0.53,0.78
8.137,1.71,-0.09,0.29,-0.99,0.28,0.63
8.137,1.71,-0.09,0.29,-0.99,0.28,0.63
8.137,1.3,-0.24,0.09,-0.99,0.28,0.63
8.137,1.3,-0.24,0.09,-0.99,0.28,0.63
8.138,1.3,-0.24,0.09,-0.99,0.28,0.63
8.138,1.3,-0.24,0.09,-0.99,0.28,0.63
8.138,1.3,-0.24,0.09,-0.99,0.28,0.63
8.138,1.3,-0.24,0.09,-0.99,0.28,0.63
8.146,1.3,-0.24,0.09,-0.82,0.02,0.46
8.146,1.3,-0.24,0.09,-0.82,0.02,0.46
8.146,0.56,-0.56,-0.05,-0.82,0.02,0.46
8.147,0.56,-0.56,-0.05,-0.82,0.02,0.46
8.155,0.56,-0.56,-0.05,-0.58,-0.25,0.28
8.156,0.56,-0.56,-0.05,-0.58,-0.25,0.28
8.157,0.17,-0.63,-0.02,-0.58,-0.25,0.28
8.157,0.17,-0.63,-0.02,-0.58,-0.25,0.28
8.165,0.17,-0.63,-0.02,-0.3,-0.52,0.09
8.166,0.17,-0.63,-0.02,-0.3,-0.52,0.09
8.167,-0.16,-0.68,0.07,-0.3,-0.52,0.09
8.167,-0.16,-0.68,0.07,-0.3,-0.52,0.09
8.175,-0.16,-0.68,0.07,-0.01,-0.78,-0.09
8.176,-0.16,-0.68,0.07,-0.01,-0.78,-0.09
8.176,-0.44,-0.65,0.14,-0.01,-0.78,-0.09
8.177,-0.44,-0.65,0.14,-0.01,-0.78,-0.09
8.185,-0.44,-0.65,0.14,0.24,-1.02,-0.26
8.186,-0.44,-0.65,0.14,0.24,-1.02,-0.26
8.186,-0.67,-0.58,0.12,0.24,-1.02,-0.26
8.187,-0.67,-0.58,0.12,0.24,-1.02,-0.26
8.194,-0.67,-0.58,0.12,0.41,-1.21,-0.39
8.194,-0.67,-0.58,0.12,0.41,-1.21,-0.39
8.195,-0.88,-0.48,0.02,0.41,-1.21,-0.39
8.195,-0.88,-0.48,0.02,0.41,-1.21,-0.39
8.203,-0.88,-0.48,0.02,0.5,-1.35,-0.49
8.203,-0.88,-0.48,0.02,0.5,-1.35,-0.49
8.204,-1.11,-0.31,-0.15,0.5,-1.35,-0.49
8.204,-1.11,-0.31,-0.15,0.5,-1.35,-0.49
8.213,-1.11,-0.31,-0.15,0.52,-1.46,-0.57
8.214,-1.11,-0.31,-0.15,0.52,-1.46,-0.57
8.214,-1.39,-0.14,-0.27,0.52,-1.46,-0.57
8.215,-1.39,-0.14,-0.27,0.52,-1.46,-0.57
8.224,-1.39,-0.14,-0.27,0.5,-1.55,-0.65
8.225,-1.39,-0.14,-0.27,0.5,-1.55,-0.65
8.226,-1.68,0.05,-0.27,0.5,-1.55,-0.65
8.226,-1.68,0.05,-0.27,0.5,-1.55,-0.65
8.231,-1.68,0.05,-0.27,0.43,-1.64,-0.72
8.232,-1.68,0.05,-0.27,0.43,-1.64,-0.72
8.233,-1.87,0.22,-0.23,0.43,-1.64,-0.72
8.233,-1.87,0.22,-0.23,0.43,-1.64,-0.72
8.248,-1.87,0.22,-0.23,0.32,-1.72,-0.78
8.249,-1.87,0.22,-0.23,0.32,-1.72,-0.78
8.249,-1.91,0.32,-0.25,0.32,-1.72,-0.78
8.249,-1.91,0.32,-0.25,0.32,-1.72,-0.78
8.257,-1.91,0.32,-0.25,0.18,-1.79,-0.84
8.258,-1.91,0.32,-0.25,0.18,-1.79,-0.84
8.259,-1.77,0.37,-0.39,0.18,-1.79,-0.84
8.259,-1.77,0.37,-0.39,0.18,-1.79,-0.84
8.26,-1.77,0.37,-0.39,0.03,-1.81,-0.87
8.26,-1.77,0.37,-0.39,0.03,-1.81,-0.87
8.26,-1.5,0.34,-0.6,0.03,-1.81,-0.87
8.261,-1.5,0.34,-0.6,0.03,-1.81,-0.87
8.27,-1.5,0.34,-0.6,-0.1,-1.77,-0.86
8.27,-1.5,0.34,-0.6,-0.1,-1.77,-0.86
8.271,-1.29,0.24,-0.77,-0.1,-1.77,-0.86
8.271,-1.29,0.24,-0.77,-0.1,-1.77,-0.86
8.279,-1.29,0.24,-0.77,-0.18,-1.65,-0.81
8.28,-1.29,0.24,-0.77,-0.18,-1.65,-0.81
8.28,-1.22,0.11,-0.69,-0.18,-1.65,-0.81
8.281,-1.22,0.11,-0.69,-0.18,-1.65,-0.81
8.289,-1.22,0.11,-0.69,-0.2,-1.45,-0.72
8.29,-1.22,0.11,-0.69,-0.2,-1.45,-0.72
8.29,-1.28,-0.03,-0.34,-0.2,-1.45,-0.72
8.291,-1.28,-0.03,-0.34,-0.2,-1.45,-0.72
8.299,-1.28,-0.03,-0.34,-0.15,-1.21,-0.62
8.299,-1.28,-0.03,-0.34,-0.15,-1.21,-0.62
8.3,-1.42,-0.08,0.18,-0.15,-1.21,-0.62
8.301,-1.42,-0.08,0.18,-0.15,-1.21,-0.62
8.309,-1.42,-0.08,0.18,-0.09,-0.95,-0.53
8.31,-1.42,-0.08,0.18,-0.09,-0.95,-0.53
8.311,-1.55,-0.03,0.74,-0.09,-0.95,-0.53
8.312,-1.55,-0.03,0.74,-0.09,-0.95,-0.53
8.328,-1.55,-0.03,0.74,-0.05,-0.7,-0.44
8.329,-1.55,-0.03,0.74,-0.05,-0.7,-0.44
8.329,-1.63,0.13,1.23,-0.05,-0.7,-0.44
8.33,-1.63,0.13,1.23,-0.05,-0.7,-0.44
8.33,-1.63,0.13,1.23,-0.1,-0.47,-0.35
8.33,-1.63,0.13,1.23,-0.1,-0.47,-0.35
8.331,-1.68,0.36,1.6,-0.1,-0.47,-0.35
8.331,-1.68,0.36,1.6,-0.1,-0.47,-0.35
8.337,-1.68,0.36,1.6,-0.1,-0.47,-0.35
8.34,-1.68,0.36,1.6,-0.1,-0.47,-0.35
8.34,-1.68,0.36,1.6,-0.1,-0.47,-0.35
8.341,-1.68,0.36,1.6,-0.1,-0.47,-0.35
8.346,-1.68,0.36,1.6,-0.24,-0.26,-0.26
8.347,-1.68,0.36,1.6,-0.24,-0.26,-0.26
8.347,-1.64,0.86,2.2,-0.24,-0.26,-0.26
8.348,-1.64,0.86,2.2,-0.24,-0.26,-0.26
8.355,-1.64,0.86,2.2,-0.5,-0.09,-0.17
8.357,-1.64,0.86,2.2,-0.5,-0.09,-0.17
8.358,-1.53,0.97,2.48,-0.5,-0.09,-0.17
8.358,-1.53,0.97,2.48,-0.5,-0.09,-0.17
8.365,-1.53,0.97,2.48,-0.88,0.05,-0.08
8.366,-1.53,0.97,2.48,-0.88,0.05,-0.08
8.367,-1.46,1.02,2.7,-0.88,0.05,-0.08
8.367,-1.46,1.02,2.7,-0.88,0.05,-0.08
8.374,-1.46,1.02,2.7,-1.33,0.19,0
8.376,-1.46,1.02,2.7,-1.33,0.19,0
8.376,-1.49,0.98,2.88,-1.33,0.19,0
8.377,-1.49,0.98,2.88,-1.33,0.19,0
8.384,-1.49,0.98,2.88,-1.77,0.3,0.09
8.385,-1.49,0.98,2.88,-1.77,0.3,0.09
8.386,-1.63,0.88,2.97,-1.77,0.3,0.09
8.386,-1.63,0.88,2.97,-1.77,0.3,0.09
8.393,-1.63,0.88,2.97,-2.12,0.38,0.17
8.394,-1.63,0.88,2.97,-2.12,0.38,0.17
8.395,-1.83,0.76,2.98,-2.12,0.38,0.17
8.395,-1.83,0.76,2.98,-2.12,0.38,0.17
8.403,-1.83,0.76,2.98,-2.34,0.42,0.23
8.403,-1.83,0.76,2.98,-2.34,0.42,0.23
8.404,-1.93,0.56,2.94,-2.34,0.42,0.23
8.404,-1.93,0.56,2.94,-2.34,0.42,0.23
8.413,-1.93,0.56,2.94,-2.41,0.41,0.24
8.414,-1.93,0.56,2.94,-2.41,0.41,0.24
8.414,-1.89,0.35,2.79,-2.41,0.41,0.24
8.415,-1.89,0.35,2.79,-2.41,0.41,0.24
8.434,-1.89,0.35,2.79,-2.33,0.36,0.2
8.435,-1.89,0.35,2.79,-2.33,0.36,0.2
8.436,-1.64,0.17,2.54,-2.33,0.36,0.2
8.436,-1.64,0.17,2.54,-2.33,0.36,0.2
8.436,-1.64,0.17,2.54,-2.33,0.36,0.2
8.437,-1.64,0.17,2.54,-2.33,0.36,0.2
8.437,-1.64,0.17,2.54,-2.33,0.36,0.2
8.438,-1.64,0.17,2.54,-2.33,0.36,0.2
8.441,-1.64,0.17,2.54,-1.72,0.26,0.1
8.442,-1.64,0.17,2.54,-1.72,0.26,0.1
8.442,-0.67,-0.19,1.81,-1.72,0.26,0.1
8.442,-0.67,-0.19,1.81,-1.72,0.26,0.1
8.451,-0.67,-0.19,1.81,-1.2,0.29,0.13
8.451,-0.67,-0.19,1.81,-1.2,0.29,0.13
8.452,-0.09,-0.44,1.42,-1.2,0.29,0.13
8.452,-0.09,-0.44,1.42,-1.2,0.29,0.13
8.46,-0.09,-0.44,1.42,-0.6,0.39,0.22
8.461,-0.09,-0.44,1.42,-0.6,0.39,0.22
8.462,0.51,-0.75,1.01,-0.6,0.39,0.22
8.462,0.51,-0.75,1.01,-0.6,0.39,0.22
8.47,0.51,-0.75,1.01,0.01,0.53,0.34
8.471,0.51,-0.75,1.01,0.01,0.53,0.34
8.471,1.06,-1.07,0.54,0.01,0.53,0.34
8.471,1.06,-1.07,0.54,0.01,0.53,0.34
8.479,1.06,-1.07,0.54,0.6,0.7,0.47
8.48,1.06,-1.07,0.54,0.6,0.7,0.47
8.481,1.55,-1.34,0.08,0.6,0.7,0.47
8.481,1.55,-1.34,0.08,0.6,0.7,0.47
8.489,1.55,-1.34,0.08,1.19,0.88,0.6
8.49,1.55,-1.34,0.08,1.19,0.88,0.6
8.49,1.95,-1.58,-0.34,1.19,0.88,0.6
8.491,1.95,-1.58,-0.34,1.19,0.88,0.6
8.498,1.95,-1.58,-0.34,1.75,1.04,0.72
8.499,1.95,-1.58,-0.34,1.75,1.04,0.72
8.5,2.2,-1.77,-0.58,1.75,1.04,0.72
8.501,2.2,-1.77,-0.58,1.75,1.04,0.72
8.508,2.2,-1.77,-0.58,2.24,1.14,0.81
8.51,2.2,-1.77,-0.58,2.24,1.14,0.81
8.51,2.26,-1.92,-0.61,2.24,1.14,0.81
8.511,2.26,-1.92,-0.61,2.24,1.14,0.81
8.534,2.26,-1.92,-0.61,2.61,1.18,0.84
8.534,2.26,-1.92,-0.61,2.61,1.18,0.84
8.535,2.14,-2.08,-0.46,2.61,1.18,0.84
8.535,2.14,-2.08,-0.46,2.61,1.18,0.84
8.535,2.14,-2.08,-0.46,2.84,1.16,0.83
8.535,2.14,-2.08,-0.46,2.84,1.16,0.83
8.536,1.82,-2.2,-0.21,2.84,1.16,0.83
8.536,1.82,-2.2,-0.21,2.84,1.16,0.83
8.536,1.82,-2.2,-0.21,2.84,1.16,0.83
8.537,1.82,-2.2,-0.21,2.84,1.16,0.83
8.537,1.82,-2.2,-0.21,2.84,1.16,0.83
8.537,1.82,-2.2,-0.21,2.84,1.16,0.83
8.546,1.82,-2.2,-0.21,2.93,1,0.71
8.547,1.82,-2.2,-0.21,2.93,1,0.71
8.547,0.84,-2.36,0.33,2.93,1,0.71
8.548,0.84,-2.36,0.33,2.93,1,0.71
8.556,0.84,-2.36,0.33,2.91,0.81,0.58
8.557,0.84,-2.36,0.33,2.91,0.81,0.58
8.557,0.39,-2.43,0.49,2.91,0.81,0.58
8.558,0.39,-2.43,0.49,2.91,0.81,0.58
8.565,0.39,-2.43,0.49,2.8,0.67,0.48
8.566,0.39,-2.43,0.49,2.8,0.67,0.48
8.567,-0.03,-2.51,0.51,2.8,0.67,0.48
8.567,-0.03,-2.51,0.51,2.8,0.67,0.48
8.575,-0.03,-2.51,0.51,2.63,0.45,0.37
8.576,-0.03,-2.51,0.51,2.63,0.45,0.37
8.577,-0.39,-2.64,0.36,2.63,0.45,0.37
8.577,-0.39,-2.64,0.36,2.63,0.45,0.37
8.584,-0.39,-2.64,0.36,2.43,0.17,0.25
8.585,-0.39,-2.64,0.36,2.43,0.17,0.25
8.586,-0.77,-2.84,0.11,2.43,0.17,0.25
8.586,-0.77,-2.84,0.11,2.43,0.17,0.25
8.594,-0.77,-2.84,0.11,2.25,-0.17,0.14
8.594,-0.77,-2.84,0.11,2.25,-0.17,0.14
8.595,-1.16,-3.08,-0.11,2.25,-0.17,0.14
8.595,-1.16,-3.08,-0.11,2.25,-0.17,0.14
8.603,-1.16,-3.08,-0.11,2.12,-0.54,0.03
8.603,-1.16,-3.08,-0.11,2.12,-0.54,0.03
8.603,-1.52,-3.35,-0.28,2.12,-0.54,0.03
8.604,-1.52,-3.35,-0.28,2.12,-0.54,0.03
8.612,-1.52,-3.35,-0.28,2.06,-0.93,-0.08
8.613,-1.52,-3.35,-0.28,2.06,-0.93,-0.08
8.614,-1.79,-3.61,-0.34,2.06,-0.93,-0.08
8.615,-1.79,-3.61,-0.34,2.06,-0.93,-0.08
8.624,-1.79,-3.61,-0.34,2.06,-1.34,-0.17
8.625,-1.79,-3.61,-0.34,2.06,-1.34,-0.17
8.625,-1.94,-3.79,-0.37,2.06,-1.34,-0.17
8.626,-1.94,-3.79,-0.37,2.06,-1.34,-0.17
8.631,-1.94,-3.79,-0.37,1.72,-1.72,-0.16
8.632,-1.94,-3.79,-0.37,1.72,-1.72,-0.16
8.633,-1.9,-3.91,-0.37,1.72,-1.72,-0.16
8.634,-1.9,-3.91,-0.37,1.72,-1.72,-0.16
8.647,-1.9,-3.91,-0.37,1.1,-2.02,-0.11
8.648,-1.9,-3.91,-0.37,1.1,-2.02,-0.11
8.648,-1.63,-3.95,-0.39,1.1,-2.02,-0.11
8.648,-1.63,-3.95,-0.39,1.1,-2.02,-0.11
8.655,-1.63,-3.95,-0.39,0.97,-2.21,-0.08
8.656,-1.63,-3.95,-0.39,0.97,-2.21,-0.08
8.657,-1.08,-3.92,-0.41,0.97,-2.21,-0.08
8.657,-1.08,-3.92,-0.41,0.97,-2.21,-0.08
8.66,-1.08,-3.92,-0.41,1.18,-1.99,-0.02
8.661,-1.08,-3.92,-0.41,1.18,-1.99,-0.02
8.661,0.48,-3.86,-0.48,1.18,-1.99,-0.02
8.662,0.48,-3.86,-0.48,1.18,-1.99,-0.02
8.671,0.48,-3.86,-0.48,1.3,-1.6,0.04
8.672,0.48,-3.86,-0.48,1.3,-1.6,0.04
8.672,0.94,-3.79,-0.58,1.3,-1.6,0.04
8.673,0.94,-3.79,-0.58,1.3,-1.6,0.04
8.679,0.94,-3.79,-0.58,1.32,-1.25,0.11
8.68,0.94,-3.79,-0.58,1.32,-1.25,0.11
8.681,1.56,-3.74,-0.65,1.32,-1.25,0.11
8.682,1.56,-3.74,-0.65,1.32,-1.25,0.11
8.688,1.56,-3.74,-0.65,1.27,-0.67,0.17
8.69,1.56,-3.74,-0.65,1.27,-0.67,0.17
8.691,2.13,-3.71,-0.66,1.27,-0.67,0.17
8.691,2.13,-3.71,-0.66,1.27,-0.67,0.17
8.698,2.13,-3.71,-0.66,1.16,-0.01,0.3
8.699,2.13,-3.71,-0.66,1.16,-0.01,0.3
8.699,2.63,-3.7,-0.66,1.16,-0.01,0.3
8.7,2.63,-3.7,-0.66,1.16,-0.01,0.3
8.708,2.63,-3.7,-0.66,1.02,0.62,0.47
8.71,2.63,-3.7,-0.66,1.02,0.62,0.47
8.711,3.06,-3.64,-0.72,1.02,0.62,0.47
8.711,3.06,-3.64,-0.72,1.02,0.62,0.47
8.723,3.06,-3.64,-0.72,0.87,1.15,0.62
8.723,3.06,-3.64,-0.72,0.87,1.15,0.62
8.724,3.38,-3.51,-0.92,0.87,1.15,0.62
8.724,3.38,-3.51,-0.92,0.87,1.15,0.62
8.727,3.38,-3.51,-0.92,0.71,1.58,0.74
8.727,3.38,-3.51,-0.92,0.71,1.58,0.74
8.728,3.5,-3.37,-1.22,0.71,1.58,0.74
8.728,3.5,-3.37,-1.22,0.71,1.58,0.74
8.736,3.5,-3.37,-1.22,0.71,1.58,0.74
8.737,3.5,-3.37,-1.22,0.71,1.58,0.74
8.737,3.5,-3.37,-1.22,0.71,1.58,0.74
8.738,3.5,-3.37,-1.22,0.71,1.58,0.74
8.746,3.5,-3.37,-1.22,0.54,1.89,0.85
8.746,3.5,-3.37,-1.22,0.54,1.89,0.85
8.747,1.37,-3.57,-1.52,0.54,1.89,0.85
8.747,1.37,-3.57,-1.52,0.54,1.89,0.85
8.755,1.37,-3.57,-1.52,0.4,1.99,0.91
8.756,1.37,-3.57,-1.52,0.4,1.99,0.91
8.757,0.83,-3.75,-1.36,0.4,1.99,0.91
8.757,0.83,-3.75,-1.36,0.4,1.99,0.91
8.765,0.83,-3.75,-1.36,0.32,1.82,0.92
8.766,0.83,-3.75,-1.36,0.32,1.82,0.92
8.766,-0.95,-3.94,-1.04,0.32,1.82,0.92
8.767,-0.95,-3.94,-1.04,0.32,1.82,0.92
8.774,-0.95,-3.94,-1.04,0.35,1.39,0.88
8.776,-0.95,-3.94,-1.04,0.35,1.39,0.88
8.776,-1.35,-4,-0.71,0.35,1.39,0.88
8.777,-1.35,-4,-0.71,0.35,1.39,0.88
8.784,-1.35,-4,-0.71,0.5,0.76,0.78
8.784,-1.35,-4,-0.71,0.5,0.76,0.78
8.785,-1.7,-3.94,-0.4,0.5,0.76,0.78
8.785,-1.7,-3.94,-0.4,0.5,0.76,0.78
8.793,-1.7,-3.94,-0.4,0.72,0.08,0.67
8.794,-1.7,-3.94,-0.4,0.72,0.08,0.67
8.794,-1.92,-3.8,-0.19,0.72,0.08,0.67
8.795,-1.92,-3.8,-0.19,0.72,0.08,0.67
8.803,-1.92,-3.8,-0.19,0.94,-0.53,0.55
8.804,-1.92,-3.8,-0.19,0.94,-0.53,0.55
8.804,-1.98,-3.61,-0.17,0.94,-0.53,0.55
8.805,-1.98,-3.61,-0.17,0.94,-0.53,0.55
8.812,-1.98,-3.61,-0.17,1.11,-1.02,0.47
8.813,-1.98,-3.61,-0.17,1.11,-1.02,0.47
8.814,-1.94,-3.41,-0.33,1.11,-1.02,0.47
8.815,-1.94,-3.41,-0.33,1.11,-1.02,0.47
8.824,-1.94,-3.41,-0.33,1.19,-1.36,0.41
8.825,-1.94,-3.41,-0.33,1.19,-1.36,0.41
8.826,-1.76,-3.23,-0.63,1.19,-1.36,0.41
8.826,-1.76,-3.23,-0.63,1.19,-1.36,0.41
8.831,-1.76,-3.23,-0.63,1.2,-1.57,0.38
8.832,-1.76,-3.23,-0.63,1.2,-1.57,0.38
8.833,-1.35,-3.12,-1.04,1.2,-1.57,0.38
8.833,-1.35,-3.12,-1.04,1.2,-1.57,0.38
8.841,-1.35,-3.12,-1.04,1.12,-1.67,0.36
8.842,-1.35,-3.12,-1.04,1.12,-1.67,0.36
8.842,-0.76,-3.04,-1.39,1.12,-1.67,0.36
8.842,-0.76,-3.04,-1.39,1.12,-1.67,0.36
8.851,-0.76,-3.04,-1.39,0.99,-1.66,0.39
8.851,-0.76,-3.04,-1.39,0.99,-1.66,0.39
8.852,0.76,-2.99,-1.62,0.99,-1.66,0.39
8.852,0.76,-2.99,-1.62,0.99,-1.66,0.39
8.86,0.76,-2.99,-1.62,0.83,-1.5,0.44
8.86,0.76,-2.99,-1.62,0.83,-1.5,0.44
8.861,1.17,-2.96,-1.68,0.83,-1.5,0.44
8.862,1.17,-2.96,-1.68,0.83,-1.5,0.44
8.869,1.17,-2.96,-1.68,0.67,-1.15,0.5
8.87,1.17,-2.96,-1.68,0.67,-1.15,0.5
8.871,1.63,-2.89,-1.57,0.67,-1.15,0.5
8.871,1.63,-2.89,-1.57,0.67,-1.15,0.5
8.879,1.63,-2.89,-1.57,0.53,-0.65,0.53
8.88,1.63,-2.89,-1.57,0.53,-0.65,0.53
8.881,1.98,-2.78,-1.29,0.53,-0.65,0.53
8.881,1.98,-2.78,-1.29,0.53,-0.65,0.53
8.889,1.98,-2.78,-1.29,0.43,-0.12,0.54
8.89,1.98,-2.78,-1.29,0.43,-0.12,0.54
8.891,2.16,-2.61,-0.89,0.43,-0.12,0.54
8.891,2.16,-2.61,-0.89,0.43,-0.12,0.54
8.899,2.16,-2.61,-0.89,0.36,0.36,0.53
8.9,2.16,-2.61,-0.89,0.36,0.36,0.53
8.9,2.14,-2.35,-0.45,0.36,0.36,0.53
8.901,2.14,-2.35,-0.45,0.36,0.36,0.53
8.909,2.14,-2.35,-0.45,0.3,0.77,0.5
8.911,2.14,-2.35,-0.45,0.3,0.77,0.5
8.912,1.85,-2.07,-0.02,0.3,0.77,0.5
8.913,1.85,-2.07,-0.02,0.3,0.77,0.5
8.93,1.85,-2.07,-0.02,0.25,1.09,0.47
8.931,1.85,-2.07,-0.02,0.25,1.09,0.47
8.931,1.36,-1.8,0.27,0.25,1.09,0.47
8.931,1.36,-1.8,0.27,0.25,1.09,0.47
8.932,1.36,-1.8,0.27,0.19,1.32,0.43
8.932,1.36,-1.8,0.27,0.19,1.32,0.43
8.932,0.79,-1.56,0.47,0.19,1.32,0.43
8.932,0.79,-1.56,0.47,0.19,1.32,0.43
8.939,0.79,-1.56,0.47,0.19,1.32,0.43
8.94,0.79,-1.56,0.47,0.19,1.32,0.43
8.94,0.79,-1.56,0.47,0.19,1.32,0.43
8.94,0.79,-1.56,0.47,0.19,1.32,0.43
8.946,0.79,-1.56,0.47,0.12,1.42,0.38
8.946,0.79,-1.56,0.47,0.12,1.42,0.38
8.947,-0.19,-1.36,0.63,0.12,1.42,0.38
8.947,-0.19,-1.36,0.63,0.12,1.42,0.38
8.956,-0.19,-1.36,0.63,0.05,1.37,0.33
8.957,-0.19,-1.36,0.63,0.05,1.37,0.33
8.958,-0.47,-1.17,0.68,0.05,1.37,0.33
8.958,-0.47,-1.17,0.68,0.05,1.37,0.33
8.965,-0.47,-1.17,0.68,-0.01,1.18,0.28
8.966,-0.47,-1.17,0.68,-0.01,1.18,0.28
8.966,-0.63,-0.98,0.7,-0.01,1.18,0.28
8.967,-0.63,-0.98,0.7,-0.01,1.18,0.28
8.975,-0.63,-0.98,0.7,-0.06,0.89,0.23
8.977,-0.63,-0.98,0.7,-0.06,0.89,0.23
8.978,-0.7,-0.76,0.73,-0.06,0.89,0.23
8.979,-0.7,-0.76,0.73,-0.06,0.89,0.23
8.985,-0.7,-0.76,0.73,-0.11,0.56,0.18
8.986,-0.7,-0.76,0.73,-0.11,0.56,0.18
8.986,-0.72,-0.57,0.77,-0.11,0.56,0.18
8.987,-0.72,-0.57,0.77,-0.11,0.56,0.18
8.993,-0.72,-0.57,0.77,-0.16,0.26,0.12
8.994,-0.72,-0.57,0.77,-0.16,0.26,0.12
8.994,-0.71,-0.45,0.8,-0.16,0.26,0.12
8.995,-0.71,-0.45,0.8,-0.16,0.26,0.12
9.003,-0.71,-0.45,0.8,-0.21,0.03,0.06
9.004,-0.71,-0.45,0.8,-0.21,0.03,0.06
9.004,-0.68,-0.33,0.85,-0.21,0.03,0.06
9.005,-0.68,-0.33,0.85,-0.21,0.03,0.06
9.013,-0.68,-0.33,0.85,-0.27,-0.12,0.01
9.014,-0.68,-0.33,0.85,-0.27,-0.12,0.01
9.014,-0.67,-0.26,0.89,-0.27,-0.12,0.01
9.015,-0.67,-0.26,0.89,-0.27,-0.12,0.01
9.024,-0.67,-0.26,0.89,-0.32,-0.21,-0.01
9.025,-0.67,-0.26,0.89,-0.32,-0.21,-0.01
9.025,-0.65,-0.21,0.91,-0.32,-0.21,-0.01
9.026,-0.65,-0.21,0.91,-0.32,-0.21,-0.01
9.031,-0.65,-0.21,0.91,-0.36,-0.26,-0.02
9.033,-0.65,-0.21,0.91,-0.36,-0.26,-0.02
9.033,-0.63,-0.18,0.96,-0.36,-0.26,-0.02
9.035,-0.63,-0.18,0.96,-0.36,-0.26,-0.02
9.042,-0.63,-0.18,0.96,-0.37,-0.28,-0.02
9.043,-0.63,-0.18,0.96,-0.37,-0.28,-0.02
9.043,-0.62,-0.21,1.01,-0.37,-0.28,-0.02
9.044,-0.62,-0.21,1.01,-0.37,-0.28,-0.02
9.051,-0.62,-0.21,1.01,-0.34,-0.28,-0.03
9.051,-0.62,-0.21,1.01,-0.34,-0.28,-0.03
9.052,-0.6,-0.25,1.1,-0.34,-0.28,-0.03
9.052,-0.6,-0.25,1.1,-0.34,-0.28,-0.03
9.06,-0.6,-0.25,1.1,-0.29,-0.27,-0.03
9.06,-0.6,-0.25,1.1,-0.29,-0.27,-0.03
9.061,-0.52,-0.28,1.19,-0.29,-0.27,-0.03
9.062,-0.52,-0.28,1.19,-0.29,-0.27,-0.03
9.07,-0.52,-0.28,1.19,-0.21,-0.26,-0.02
9.071,-0.52,-0.28,1.19,-0.21,-0.26,-0.02
9.072,-0.35,-0.27,1.24,-0.21,-0.26,-0.02
9.072,-0.35,-0.27,1.24,-0.21,-0.26,-0.02
9.079,-0.35,-0.27,1.24,-0.12,-0.22,0.01
9.08,-0.35,-0.27,1.24,-0.12,-0.22,0.01
9.081,-0.12,-0.27,1.24,-0.12,-0.22,0.01
9.081,-0.12,-0.27,1.24,-0.12,-0.22,0.01
9.089,-0.12,-0.27,1.24,-0.03,-0.15,0.05
9.09,-0.12,-0.27,1.24,-0.03,-0.15,0.05
9.091,0.15,-0.22,1.15,-0.03,-0.15,0.05
9.091,0.15,-0.22,1.15,-0.03,-0.15,0.05
9.098,0.15,-0.22,1.15,0.04,-0.05,0.09
9.099,0.15,-0.22,1.15,0.04,-0.05,0.09
9.099,0.44,-0.16,0.99,0.04,-0.05,0.09
9.1,0.44,-0.16,0.99,0.04,-0.05,0.09
9.107,0.44,-0.16,0.99,0.09,0.08,0.12
9.108,0.44,-0.16,0.99,0.09,0.08,0.12
9.109,0.71,-0.13,0.81,0.09,0.08,0.12
9.111,0.71,-0.13,0.81,0.09,0.08,0.12
9.122,0.71,-0.13,0.81,0.11,0.23,0.14
9.123,0.71,-0.13,0.81,0.11,0.23,0.14
9.124,0.94,-0.06,0.66,0.11,0.23,0.14
9.124,0.94,-0.06,0.66,0.11,0.23,0.14
9.127,0.94,-0.06,0.66,0.1,0.38,0.14
9.128,0.94,-0.06,0.66,0.1,0.38,0.14
9.128,1.12,-0.02,0.52,0.1,0.38,0.14
9.129,1.12,-0.02,0.52,0.1,0.38,0.14
9.145,1.12,-0.02,0.52,0.1,0.38,0.14
9.146,1.12,-0.02,0.52,0.1,0.38,0.14
9.146,1.12,-0.02,0.52,0.1,0.38,0.14
9.146,1.12,-0.02,0.52,0.1,0.38,0.14
9.147,1.12,-0.02,0.52,0.07,0.52,0.14
9.147,1.12,-0.02,0.52,0.07,0.52,0.14
9.147,1.15,-0.12,0.2,0.07,0.52,0.14
9.148,1.15,-0.12,0.2,0.07,0.52,0.14
9.156,1.15,-0.12,0.2,0.02,0.64,0.14
9.157,1.15,-0.12,0.2,0.02,0.64,0.14
9.157,1,-0.2,-0.03,0.02,0.64,0.14
9.157,1,-0.2,-0.03,0.02,0.64,0.14
9.165,1,-0.2,-0.03,-0.01,0.69,0.14
9.166,1,-0.2,-0.03,-0.01,0.69,0.14
9.167,0.81,-0.3,-0.29,-0.01,0.69,0.14
9.167,0.81,-0.3,-0.29,-0.01,0.69,0.14
9.175,0.81,-0.3,-0.29,0,0.67,0.15
9.177,0.81,-0.3,-0.29,0,0.67,0.15
9.178,0.56,-0.36,-0.49,0,0.67,0.15
9.178,0.56,-0.36,-0.49,0,0.67,0.15
9.184,0.56,-0.36,-0.49,0.04,0.55,0.14
9.185,0.56,-0.36,-0.49,0.04,0.55,0.14
9.186,0.32,-0.36,-0.63,0.04,0.55,0.14
9.186,0.32,-0.36,-0.63,0.04,0.55,0.14
9.194,0.32,-0.36,-0.63,0.11,0.37,0.13
9.195,0.32,-0.36,-0.63,0.11,0.37,0.13
9.196,0.09,-0.32,-0.63,0.11,0.37,0.13
9.196,0.09,-0.32,-0.63,0.11,0.37,0.13
9.203,0.09,-0.32,-0.63,0.19,0.15,0.11
9.204,0.09,-0.32,-0.63,0.19,0.15,0.11
9.204,-0.11,-0.26,-0.49,0.19,0.15,0.11
9.205,-0.11,-0.26,-0.49,0.19,0.15,0.11
9.213,-0.11,-0.26,-0.49,0.24,-0.08,0.1
9.214,-0.11,-0.26,-0.49,0.24,-0.08,0.1
9.214,-0.28,-0.19,-0.26,0.24,-0.08,0.1
9.215,-0.28,-0.19,-0.26,0.24,-0.08,0.1
9.224,-0.28,-0.19,-0.26,0.27,-0.29,0.08
9.225,-0.28,-0.19,-0.26,0.27,-0.29,0.08
9.225,-0.45,-0.14,-0.01,0.27,-0.29,0.08
9.226,-0.45,-0.14,-0.01,0.27,-0.29,0.08
9.231,-0.45,-0.14,-0.01,0.28,-0.45,0.06
9.232,-0.45,-0.14,-0.01,0.28,-0.45,0.06
9.233,-0.59,-0.1,0.21,0.28,-0.45,0.06
9.234,-0.59,-0.1,0.21,0.28,-0.45,0.06
9.26,-0.59,-0.1,0.21,0.27,-0.56,0.03
9.26,-0.59,-0.1,0.21,0.27,-0.56,0.03
9.261,-0.72,-0.04,0.38,0.27,-0.56,0.03
9.261,-0.72,-0.04,0.38,0.27,-0.56,0.03
9.261,-0.72,-0.04,0.38,0.26,-0.62,0
9.262,-0.72,-0.04,0.38,0.26,-0.62,0
9.262,-0.79,0.03,0.53,0.26,-0.62,0
9.262,-0.79,0.03,0.53,0.26,-0.62,0
9.262,-0.79,0.03,0.53,0.23,-0.66,-0.02
9.263,-0.79,0.03,0.53,0.23,-0.66,-0.02
9.263,-0.79,0.11,0.66,0.23,-0.66,-0.02
9.263,-0.79,0.11,0.66,0.23,-0.66,-0.02
9.269,-0.79,0.11,0.66,0.2,-0.66,-0.03
9.27,-0.79,0.11,0.66,0.2,-0.66,-0.03
9.27,-0.78,0.17,0.75,0.2,-0.66,-0.03
9.27,-0.78,0.17,0.75,0.2,-0.66,-0.03
9.279,-0.78,0.17,0.75,0.15,-0.65,-0.05
9.28,-0.78,0.17,0.75,0.15,-0.65,-0.05
9.281,-0.75,0.21,0.81,0.15,-0.65,-0.05
9.281,-0.75,0.21,0.81,0.15,-0.65,-0.05
9.289,-0.75,0.21,0.81,0.09,-0.61,-0.07
9.29,-0.75,0.21,0.81,0.09,-0.61,-0.07
9.291,-0.7,0.23,0.82,0.09,-0.61,-0.07
9.292,-0.7,0.23,0.82,0.09,-0.61,-0.07
9.298,-0.7,0.23,0.82,0.03,-0.55,-0.08
9.299,-0.7,0.23,0.82,0.03,-0.55,-0.08
9.299,-0.66,0.24,0.8,0.03,-0.55,-0.08
9.299,-0.66,0.24,0.8,0.03,-0.55,-0.08
9.308,-0.66,0.24,0.8,-0.03,-0.47,-0.08
9.309,-0.66,0.24,0.8,-0.03,-0.47,-0.08
9.31,-0.61,0.28,0.76,-0.03,-0.47,-0.08
9.311,-0.61,0.28,0.76,-0.03,-0.47,-0.08
9.33,-0.61,0.28,0.76,-0.08,-0.39,-0.07
9.331,-0.61,0.28,0.76,-0.08,-0.39,-0.07
9.331,-0.55,0.28,0.71,-0.08,-0.39,-0.07
9.332,-0.55,0.28,0.71,-0.08,-0.39,-0.07
9.332,-0.55,0.28,0.71,-0.13,-0.31,-0.07
9.332,-0.55,0.28,0.71,-0.13,-0.31,-0.07
9.332,-0.51,0.26,0.65,-0.13,-0.31,-0.07
9.333,-0.51,0.26,0.65,-0.13,-0.31,-0.07
9.339,-0.51,0.26,0.65,-0.13,-0.31,-0.07
9.34,-0.51,0.26,0.65,-0.13,-0.31,-0.07
9.34,-0.51,0.26,0.65,-0.13,-0.31,-0.07
9.34,-0.51,0.26,0.65,-0.13,-0.31,-0.07
9.346,-0.51,0.26,0.65,-0.17,-0.22,-0.06
9.347,-0.51,0.26,0.65,-0.17,-0.22,-0.06
9.347,-0.37,0.11,0.45,-0.17,-0.22,-0.06
9.347,-0.37,0.11,0.45,-0.17,-0.22,-0.06
9.355,-0.37,0.11,0.45,-0.2,-0.14,-0.04
9.356,-0.37,0.11,0.45,-0.2,-0.14,-0.04
9.357,-0.33,0.04,0.31,-0.2,-0.14,-0.04
9.357,-0.33,0.04,0.31,-0.2,-0.14,-0.04
9.365,-0.33,0.04,0.31,-0.21,-0.07,-0.01
9.366,-0.33,0.04,0.31,-0.21,-0.07,-0.01
9.366,-0.28,-0.02,0.18,-0.21,-0.07,-0.01
9.367,-0.28,-0.02,0.18,-0.21,-0.07,-0.01
9.375,-0.28,-0.02,0.18,-0.18,-0.02,0.02
9.377,-0.28,-0.02,0.18,-0.18,-0.02,0.02
9.377,-0.25,-0.07,0.09,-0.18,-0.02,0.02
9.378,-0.25,-0.07,0.09,-0.18,-0.02,0.02
9.384,-0.25,-0.07,0.09,-0.14,0.02,0.04
9.385,-0.25,-0.07,0.09,-0.14,0.02,0.04
9.385,-0.25,-0.12,0.05,-0.14,0.02,0.04
9.386,-0.25,-0.12,0.05,-0.14,0.02,0.04
9.393,-0.25,-0.12,0.05,-0.08,0.04,0.06
9.394,-0.25,-0.12,0.05,-0.08,0.04,0.06
9.394,-0.22,-0.15,0.03,-0.08,0.04,0.06
9.395,-0.22,-0.15,0.03,-0.08,0.04,0.06
9.402,-0.22,-0.15,0.03,-0.03,0.04,0.08
9.403,-0.22,-0.15,0.03,-0.03,0.04,0.08
9.403,-0.22,-0.15,0.03,-0.03,0.04,0.08
9.404,-0.22,-0.15,0.03,-0.03,0.04,0.08
9.412,-0.22,-0.15,0.03,0.02,0.05,0.08
9.413,-0.22,-0.15,0.03,0.02,0.05,0.08
9.414,-0.22,-0.14,0.05,0.02,0.05,0.08
9.415,-0.22,-0.14,0.05,0.02,0.05,0.08
9.434,-0.22,-0.14,0.05,0.06,0.05,0.09
9.436,-0.22,-0.14,0.05,0.06,0.05,0.09
9.437,-0.23,-0.11,0.07,0.06,0.05,0.09
9.437,-0.23,-0.11,0.07,0.06,0.05,0.09
9.438,-0.23,-0.11,0.07,0.09,0.05,0.09
9.439,-0.23,-0.11,0.07,0.09,0.05,0.09
9.439,-0.19,-0.09,0.14,0.09,0.05,0.09
9.44,-0.19,-0.09,0.14,0.09,0.05,0.09
9.441,-0.19,-0.09,0.14,0.1,0.05,0.08
9.442,-0.19,-0.09,0.14,0.1,0.05,0.08
9.443,-0.12,-0.06,0.22,0.1,0.05,0.08
9.443,-0.12,-0.06,0.22,0.1,0.05,0.08
9.45,-0.12,-0.06,0.22,0.1,0.06,0.07
9.451,-0.12,-0.06,0.22,0.1,0.06,0.07
9.452,-0.05,-0.01,0.32,0.1,0.06,0.07
9.452,-0.05,-0.01,0.32,0.1,0.06,0.07
9.46,-0.05,-0.01,0.32,0.09,0.09,0.05
9.461,-0.05,-0.01,0.32,0.09,0.09,0.05
9.461,0.02,0.02,0.42,0.09,0.09,0.05
9.461,0.02,0.02,0.42,0.09,0.09,0.05
9.469,0.02,0.02,0.42,0.08,0.12,0.03
9.47,0.02,0.02,0.42,0.08,0.12,0.03
9.471,0.06,0.03,0.5,0.08,0.12,0.03
9.471,0.06,0.03,0.5,0.08,0.12,0.03
9.479,0.06,0.03,0.5,0.06,0.18,0.01
9.48,0.06,0.03,0.5,0.06,0.18,0.01
9.48,0.05,0.03,0.55,0.06,0.18,0.01
9.481,0.05,0.03,0.55,0.06,0.18,0.01
9.488,0.05,0.03,0.55,0.04,0.24,0.01
9.49,0.05,0.03,0.55,0.04,0.24,0.01
9.49,0.04,0.03,0.58,0.04,0.24,0.01
9.491,0.04,0.03,0.58,0.04,0.24,0.01
9.499,0.04,0.03,0.58,0.01,0.3,0.02
9.5,0.04,0.03,0.58,0.01,0.3,0.02
9.5,0.02,0.08,0.58,0.01,0.3,0.02
9.501,0.02,0.08,0.58,0.01,0.3,0.02
9.508,0.02,0.08,0.58,-0.01,0.33,0.02
9.508,0.02,0.08,0.58,-0.01,0.33,0.02
9.509,0.01,0.12,0.59,-0.01,0.33,0.02
9.509,0.01,0.12,0.59,-0.01,0.33,0.02
9.523,0.01,0.12,0.59,-0.01,0.34,0
9.524,0.01,0.12,0.59,-0.01,0.34,0
9.524,0.03,0.13,0.58,-0.01,0.34,0
9.525,0.03,0.13,0.58,-0.01,0.34,0
9.531,0.03,0.13,0.58,-0.02,0.33,-0.02
9.531,0.03,0.13,0.58,-0.02,0.33,-0.02
9.532,0.01,0.14,0.54,-0.02,0.33,-0.02
9.532,0.01,0.14,0.54,-0.02,0.33,-0.02
9.546,0.01,0.14,0.54,-0.02,0.33,-0.02
9.546,0.01,0.14,0.54,-0.02,0.33,-0.02
9.546,0.01,0.14,0.54,-0.02,0.33,-0.02
9.547,0.01,0.14,0.54,-0.02,0.33,-0.02
9.547,0.01,0.14,0.54,-0.04,0.31,-0.03
9.547,0.01,0.14,0.54,-0.04,0.31,-0.03
9.547,-0.07,0.08,0.46,-0.04,0.31,-0.03
9.548,-0.07,0.08,0.46,-0.04,0.31,-0.03
9.555,-0.07,0.08,0.46,-0.05,0.28,-0.04
9.556,-0.07,0.08,0.46,-0.05,0.28,-0.04
9.556,-0.14,0.07,0.45,-0.05,0.28,-0.04
9.556,-0.14,0.07,0.45,-0.05,0.28,-0.04
9.565,-0.14,0.07,0.45,-0.05,0.23,-0.05
9.566,-0.14,0.07,0.45,-0.05,0.23,-0.05
9.566,-0.18,0.05,0.46,-0.05,0.23,-0.05
9.567,-0.18,0.05,0.46,-0.05,0.23,-0.05
9.575,-0.18,0.05,0.46,-0.05,0.17,-0.04
9.576,-0.18,0.05,0.46,-0.05,0.17,-0.04
9.576,-0.22,0.06,0.43,-0.05,0.17,-0.04
9.577,-0.22,0.06,0.43,-0.05,0.17,-0.04
9.584,-0.22,0.06,0.43,-0.04,0.1,-0.03
9.585,-0.22,0.06,0.43,-0.04,0.1,-0.03
9.585,-0.21,0.06,0.45,-0.04,0.1,-0.03
9.586,-0.21,0.06,0.45,-0.04,0.1,-0.03
9.593,-0.21,0.06,0.45,-0.04,0.04,0
9.594,-0.21,0.06,0.45,-0.04,0.04,0
9.594,-0.16,0.05,0.43,-0.04,0.04,0
9.595,-0.16,0.05,0.43,-0.04,0.04,0
9.602,-0.16,0.05,0.43,-0.04,-0.01,0.03
9.603,-0.16,0.05,0.43,-0.04,-0.01,0.03
9.603,-0.12,0.05,0.4,-0.04,-0.01,0.03
9.604,-0.12,0.05,0.4,-0.04,-0.01,0.03
9.613,-0.12,0.05,0.4,-0.03,-0.04,0.04
9.614,-0.12,0.05,0.4,-0.03,-0.04,0.04
9.614,-0.08,0.03,0.37,-0.03,-0.04,0.04
9.615,-0.08,0.03,0.37,-0.03,-0.04,0.04
9.622,-0.08,0.03,0.37,-0.01,-0.05,0.03
9.623,-0.08,0.03,0.37,-0.01,-0.05,0.03
9.624,-0.06,0.02,0.31,-0.01,-0.05,0.03
9.624,-0.06,0.02,0.31,-0.01,-0.05,0.03
9.632,-0.06,0.02,0.31,-0.01,-0.05,0.02
9.632,-0.06,0.02,0.31,-0.01,-0.05,0.02
9.633,-0.08,0.02,0.26,-0.01,-0.05,0.02
9.634,-0.08,0.02,0.26,-0.01,-0.05,0.02
9.647,-0.08,0.02,0.26,-0.01,-0.04,0.02
9.647,-0.08,0.02,0.26,-0.01,-0.04,0.02
9.648,-0.12,0.05,0.24,-0.01,-0.04,0.02
9.648,-0.12,0.05,0.24,-0.01,-0.04,0.02
9.656,-0.12,0.05,0.24,0,-0.04,0.02
9.657,-0.12,0.05,0.24,0,-0.04,0.02
9.657,-0.16,0.06,0.27,0,-0.04,0.02
9.658,-0.16,0.06,0.27,0,-0.04,0.02
9.66,-0.16,0.06,0.27,0,-0.04,0.02
9.66,-0.16,0.06,0.27,0,-0.04,0.02
9.661,-0.18,0.06,0.27,0,-0.04,0.02
9.661,-0.18,0.06,0.27,0,-0.04,0.02
9.669,-0.18,0.06,0.27,0.01,-0.06,0
9.67,-0.18,0.06,0.27,0.01,-0.06,0
9.671,-0.2,0.06,0.3,0.01,-0.06,0
9.671,-0.2,0.06,0.3,0.01,-0.06,0
9.679,-0.2,0.06,0.3,0.02,-0.07,-0.02
9.68,-0.2,0.06,0.3,0.02,-0.07,-0.02
9.68,-0.2,0.08,0.33,0.02,-0.07,-0.02
9.681,-0.2,0.08,0.33,0.02,-0.07,-0.02
9.689,-0.2,0.08,0.33,0.02,-0.08,-0.03
9.69,-0.2,0.08,0.33,0.02,-0.08,-0.03
9.69,-0.22,0.12,0.37,0.02,-0.08,-0.03
9.691,-0.22,0.12,0.37,0.02,-0.08,-0.03
9.698,-0.22,0.12,0.37,0.02,-0.09,-0.04
9.699,-0.22,0.12,0.37,0.02,-0.09,-0.04
9.7,-0.24,0.13,0.42,0.02,-0.09,-0.04
9.701,-0.24,0.13,0.42,0.02,-0.09,-0.04
9.707,-0.24,0.13,0.42,0.01,-0.08,-0.04
9.708,-0.24,0.13,0.42,0.01,-0.08,-0.04
9.709,-0.25,0.14,0.45,0.01,-0.08,-0.04
9.71,-0.25,0.14,0.45,0.01,-0.08,-0.04
9.721,-0.25,0.14,0.45,0.01,-0.07,-0.06
9.722,-0.25,0.14,0.45,0.01,-0.07,-0.06
9.722,-0.25,0.12,0.45,0.01,-0.07,-0.06
9.723,-0.25,0.12,0.45,0.01,-0.07,-0.06
9.727,-0.25,0.12,0.45,0.01,-0.06,-0.06
9.728,-0.25,0.12,0.45,0.01,-0.06,-0.06
9.729,-0.24,0.12,0.43,0.01,-0.06,-0.06
9.73,-0.24,0.12,0.43,0.01,-0.06,-0.06
9.739,-0.24,0.12,0.43,0.01,-0.06,-0.06
9.74,-0.24,0.12,0.43,0.01,-0.06,-0.06
9.741,-0.24,0.12,0.43,0.01,-0.06,-0.06
9.742,-0.24,0.12,0.43,0.01,-0.06,-0.06
9.746,-0.24,0.12,0.43,0,-0.05,-0.04
9.747,-0.24,0.12,0.43,0,-0.05,-0.04
9.747,-0.22,0.09,0.39,0,-0.05,-0.04
9.748,-0.22,0.09,0.39,0,-0.05,-0.04
9.756,-0.22,0.09,0.39,-0.02,-0.03,-0.03
9.757,-0.22,0.09,0.39,-0.02,-0.03,-0.03
9.757,-0.23,0.09,0.39,-0.02,-0.03,-0.03
9.757,-0.23,0.09,0.39,-0.02,-0.03,-0.03
9.765,-0.23,0.09,0.39,-0.03,-0.01,-0.01
9.766,-0.23,0.09,0.39,-0.03,-0.01,-0.01
9.766,-0.23,0.09,0.38,-0.03,-0.01,-0.01
9.766,-0.23,0.09,0.38,-0.03,-0.01,-0.01
9.774,-0.23,0.09,0.38,-0.04,0,0.01
9.775,-0.23,0.09,0.38,-0.04,0,0.01
9.776,-0.24,0.09,0.38,-0.04,0,0.01
9.776,-0.24,0.09,0.38,-0.04,0,0.01
9.784,-0.24,0.09,0.38,-0.04,0.01,0.03
9.784,-0.24,0.09,0.38,-0.04,0.01,0.03
9.785,-0.24,0.09,0.38,-0.04,0.01,0.03
9.785,-0.24,0.09,0.38,-0.04,0.01,0.03
9.793,-0.24,0.09,0.38,-0.04,0.02,0.03
9.794,-0.24,0.09,0.38,-0.04,0.02,0.03
9.795,-0.24,0.09,0.38,-0.04,0.02,0.03
9.795,-0.24,0.09,0.38,-0.04,0.02,0.03
9.803,-0.24,0.09,0.38,-0.03,0.02,0.03
9.804,-0.24,0.09,0.38,-0.03,0.02,0.03
9.804,-0.24,0.08,0.38,-0.03,0.02,0.03
9.805,-0.24,0.08,0.38,-0.03,0.02,0.03
9.812,-0.24,0.08,0.38,-0.03,0.01,0.03
9.813,-0.24,0.08,0.38,-0.03,0.01,0.03
9.814,-0.25,0.08,0.37,-0.03,0.01,0.03
9.814,-0.25,0.08,0.37,-0.03,0.01,0.03
9.823,-0.25,0.08,0.37,-0.02,0.01,0.02
9.824,-0.25,0.08,0.37,-0.02,0.01,0.02
9.825,-0.25,0.08,0.37,-0.02,0.01,0.02
9.826,-0.25,0.08,0.37,-0.02,0.01,0.02
9.831,-0.25,0.08,0.37,-0.02,0.01,0.02
9.832,-0.25,0.08,0.37,-0.02,0.01,0.02
9.832,-0.25,0.08,0.37,-0.02,0.01,0.02
9.832,-0.25,0.08,0.37,-0.02,0.01,0.02
9.846,-0.25,0.08,0.37,-0.02,0.01,0.01
9.846,-0.25,0.08,0.37,-0.02,0.01,0.01
9.846,-0.25,0.08,0.38,-0.02,0.01,0.01
9.847,-0.25,0.08,0.38,-0.02,0.01,0.01
9.854,-0.25,0.08,0.38,-0.01,0.01,0.01
9.855,-0.25,0.08,0.38,-0.01,0.01,0.01
9.856,-0.24,0.08,0.38,-0.01,0.01,0.01
9.856,-0.24,0.08,0.38,-0.01,0.01,0.01
9.86,-0.24,0.08,0.38,-0.01,0.01,0.01
9.861,-0.24,0.08,0.38,-0.01,0.01,0.01
9.861,-0.24,0.08,0.38,-0.01,0.01,0.01
9.862,-0.24,0.08,0.38,-0.01,0.01,0.01
9.87,-0.24,0.08,0.38,-0.01,0,0.01
9.871,-0.24,0.08,0.38,-0.01,0,0.01
9.872,-0.24,0.08,0.38,-0.01,0,0.01
9.872,-0.24,0.08,0.38,-0.01,0,0.01
9.88,-0.24,0.08,0.38,-0.01,0,0.01
9.881,-0.24,0.08,0.38,-0.01,0,0.01
9.882,-0.24,0.07,0.38,-0.01,0,0.01
9.883,-0.24,0.07,0.38,-0.01,0,0.01
9.889,-0.24,0.07,0.38,-0.01,0,0.01
9.89,-0.24,0.07,0.38,-0.01,0,0.01
9.891,-0.24,0.07,0.38,-0.01,0,0.01
9.892,-0.24,0.07,0.38,-0.01,0,0.01
9.898,-0.24,0.07,0.38,0,0,0
9.899,-0.24,0.07,0.38,0,0,0
9.899,-0.25,0.07,0.38,0,0,0
9.9,-0.25,0.07,0.38,0,0,0
9.907,-0.25,0.07,0.38,0,0,0
9.908,-0.25,0.07,0.38,0,0,0
9.909,-0.25,0.07,0.38,0,0,0
9.909,-0.25,0.07,0.38,0,0,0
9.922,-0.25,0.07,0.38,0,0,0
9.922,-0.25,0.07,0.38,0,0,0
9.923,-0.25,0.07,0.38,0,0,0
9.923,-0.25,0.07,0.38,0,0,0
9.927,-0.25,0.07,0.38,0,0,0
9.928,-0.25,0.07,0.38,0,0,0
9.928,-0.25,0.07,0.38,0,0,0
9.929,-0.25,0.07,0.38,0,0,0
9.946,-0.25,0.07,0.38,0,0,0
9.947,-0.25,0.07,0.38,0,0,0
9.947,-0.25,0.07,0.38,0,0,0
9.948,-0.25,0.07,0.38,0,0,0
9.948,-0.25,0.07,0.38,0,0,0
9.948,-0.25,0.07,0.38,0,0,0
9.948,-0.24,0.07,0.38,0,0,0
9.949,-0.24,0.07,0.38,0,0,0
9.955,-0.24,0.07,0.38,0,0,0
9.956,-0.24,0.07,0.38,0,0,0
9.956,-0.24,0.07,0.38,0,0,0
9.956,-0.24,0.07,0.38,0,0,0
9.965,-0.24,0.07,0.38,0,0,0
9.966,-0.24,0.07,0.38,0,0,0
9.966,-0.24,0.07,0.38,0,0,0
9.967,-0.24,0.07,0.38,0,0,0
9.975,-0.24,0.07,0.38,0,0,0
9.976,-0.24,0.07,0.38,0,0,0
9.976,-0.24,0.06,0.38,0,0,0
9.977,-0.24,0.06,0.38,0,0,0
9.983,-0.24,0.06,0.38,0,0,0
9.984,-0.24,0.06,0.38,0,0,0
9.985,-0.24,0.06,0.38,0,0,0
9.985,-0.24,0.06,0.38,0,0,0
9.993,-0.24,0.06,0.38,0,0,0
9.994,-0.24,0.06,0.38,0,0,0
9.995,-0.24,0.06,0.38,0,0,0
9.995,-0.24,0.06,0.38,0,0,0
10.005,-0.24,0.06,0.38,0,0,0
10.006,-0.24,0.06,0.38,0,0,0
10.006,-0.24,0.06,0.38,0,0,0
10.007,-0.24,0.06,0.38,0,0,0
10.012,-0.24,0.06,0.38,0,0,0
10.013,-0.24,0.06,0.38,0,0,0
10.013,-0.24,0.06,0.38,0,0,0
10.013,-0.24,0.06,0.38,0,0,0
10.022,-0.24,0.06,0.38,0,0,0
10.023,-0.24,0.06,0.38,0,0,0
10.023,-0.24,0.06,0.38,0,0,0
10.024,-0.24,0.06,0.38,0,0,0
10.031,-0.24,0.06,0.38,0,0,0
10.032,-0.24,0.06,0.38,0,0,0
10.032,-0.24,0.06,0.38,0,0,0
10.033,-0.24,0.06,0.38,0,0,0
10.042,-0.24,0.06,0.38,0,0,0
10.043,-0.24,0.06,0.38,0,0,0
10.043,-0.24,0.06,0.38,0,0,0
10.044,-0.24,0.06,0.38,0,0,0
10.063,-0.24,0.06,0.38,0,0,0
10.064,-0.24,0.06,0.38,0,0,0
10.064,-0.24,0.06,0.38,0,0,0
10.064,-0.24,0.06,0.38,0,0,0
10.064,-0.24,0.06,0.38,0,0,0
10.065,-0.24,0.06,0.38,0,0,0
10.065,-0.24,0.05,0.38,0,0,0
10.065,-0.24,0.05,0.38,0,0,0
10.071,-0.24,0.05,0.38,0,0,0
10.072,-0.24,0.05,0.38,0,0,0
10.073,-0.24,0.05,0.38,0,0,0
10.073,-0.24,0.05,0.38,0,0,0
10.079,-0.24,0.05,0.38,0,0,0
10.08,-0.24,0.05,0.38,0,0,0
10.081,-0.24,0.05,0.38,0,0,0
10.082,-0.24,0.05,0.38,0,0,0
10.089,-0.24,0.05,0.38,0,0,0
10.091,-0.24,0.05,0.38,0,0,0
10.092,-0.24,0.05,0.38,0,0,0
10.094,-0.24,0.05,0.38,0,0,0
10.098,-0.24,0.05,0.38,0,0,0
10.099,-0.24,0.05,0.38,0,0,0
10.099,-0.24,0.05,0.38,0,0,0
10.099,-0.24,0.05,0.38,0,0,0
10.107,-0.24,0.05,0.38,0,0,0
10.108,-0.24,0.05,0.38,0,0,0
10.108,-0.24,0.05,0.38,0,0,0
10.109,-0.24,0.05,0.38,0,0,0
10.12,-0.24,0.05,0.38,0,0,0
10.12,-0.24,0.05,0.38,0,0,0
10.121,-0.24,0.05,0.38,0,0,0
10.121,-0.24,0.05,0.38,0,0,0
10.127,-0.24,0.05,0.38,0,0,0
10.127,-0.24,0.05,0.38,0,0,0
10.127,-0.24,0.05,0.38,0,0,0
10.128,-0.24,0.05,0.38,0,0,0
10.142,-0.24,0.05,0.38,0,0,0
10.143,-0.24,0.05,0.38,0,0,0
10.143,-0.24,0.05,0.38,0,0,0
10.144,-0.24,0.05,0.38,0,0,0
10.145,-0.24,0.05,0.38,0,0,0
10.146,-0.24,0.05,0.38,0,0,0
10.146,-0.24,0.05,0.38,0,0,0
10.146,-0.24,0.05,0.38,0,0,0
10.156,-0.24,0.05,0.38,0,0,0
10.156,-0.24,0.05,0.38,0,0,0
10.157,-0.24,0.05,0.38,0,0,0
10.157,-0.24,0.05,0.38,0,0,0
10.165,-0.24,0.05,0.38,0,0,0
10.166,-0.24,0.05,0.38,0,0,0
10.166,-0.24,0.05,0.38,0,0,0
10.167,-0.24,0.05,0.38,0,0,0
10.175,-0.24,0.05,0.38,0,0,0
10.176,-0.24,0.05,0.38,0,0,0
10.176,-0.24,0.05,0.38,0,0,0
10.177,-0.24,0.05,0.38,0,0,0
10.184,-0.24,0.05,0.38,0,0,0
10.185,-0.24,0.05,0.38,0,0,0
10.185,-0.24,0.05,0.38,0,0,0
10.186,-0.24,0.05,0.38,0,0,0
10.194,-0.24,0.05,0.38,0,0,0
10.195,-0.24,0.05,0.38,0,0,0
10.195,-0.24,0.05,0.38,0,0,0
10.196,-0.24,0.05,0.38,0,0,0
10.203,-0.24,0.05,0.38,0,0,0
10.204,-0.24,0.05,0.38,0,0,0
10.205,-0.24,0.05,0.38,0,0,0
10.206,-0.24,0.05,0.38,0,0,0
10.214,-0.24,0.05,0.38,0,0,0
10.215,-0.24,0.05,0.38,0,0,0
10.216,-0.24,0.05,0.38,0,0,0
10.216,-0.24,0.05,0.38,0,0,0
10.225,-0.24,0.05,0.38,0,0,0
10.226,-0.24,0.05,0.38,0,0,0
10.227,-0.24,0.05,0.38,0,0,0
10.227,-0.24,0.05,0.38,0,0,0
10.231,-0.24,0.05,0.38,0,0,0
10.232,-0.24,0.05,0.38,0,0,0
10.232,-0.24,0.05,0.38,0,0,0
10.232,-0.24,0.05,0.38,0,0,0
10.251,-0.24,0.05,0.38,0,0,0
10.252,-0.24,0.05,0.38,0,0,0
10.252,-0.24,0.05,0.38,0,0,0
10.252,-0.24,0.05,0.38,0,0,0
10.253,-0.24,0.05,0.38,0,0,0
10.253,-0.24,0.05,0.38,0,0,0
10.253,-0.24,0.05,0.38,0,0,0
10.254,-0.24,0.05,0.38,0,0,0
10.26,-0.24,0.05,0.38,0,0,0
10.261,-0.24,0.05,0.38,0,0,0
10.262,-0.24,0.05,0.38,0,0,0
10.262,-0.24,0.05,0.38,0,0,0
10.269,-0.24,0.05,0.38,0,0,0
10.27,-0.24,0.05,0.38,0,0,0
10.27,-0.24,0.05,0.38,0,0,0
10.271,-0.24,0.05,0.38,0,0,0
10.279,-0.24,0.05,0.38,0,0,0
10.28,-0.24,0.05,0.38,0,0,0
10.28,-0.24,0.05,0.38,0,0,0
10.281,-0.24,0.05,0.38,0,0,0
10.289,-0.24,0.05,0.38,0,0,0
10.29,-0.24,0.05,0.38,0,0,0
10.291,-0.24,0.05,0.38,0,0,0
10.291,-0.24,0.05,0.38,0,0,0
10.298,-0.24,0.05,0.38,0,0,0
10.299,-0.24,0.05,0.38,0,0,0
10.3,-0.24,0.05,0.38,0,0,0
10.3,-0.24,0.05,0.38,0,0,0
10.307,-0.24,0.05,0.38,0,0,0
10.308,-0.24,0.05,0.38,0,0,0
10.309,-0.24,0.05,0.38,0,0,0
10.309,-0.24,0.05,0.38,0,0,0
10.321,-0.24,0.05,0.38,0,0,0
10.322,-0.24,0.05,0.38,0,0,0
10.322,-0.24,0.05,0.38,0,0,0
10.323,-0.24,0.05,0.38,0,0,0
10.327,-0.24,0.05,0.38,0,0,0
10.327,-0.24,0.05,0.38,0,0,0
10.328,-0.24,0.05,0.38,0,0,0
10.328,-0.24,0.05,0.38,0,0,0
10.345,-0.24,0.05,0.38,0,0,0
10.346,-0.24,0.05,0.38,0,0,0
10.346,-0.24,0.05,0.38,0,0,0
10.347,-0.24,0.05,0.38,0,0,0
10.347,-0.24,0.05,0.38,0,0,0
10.347,-0.24,0.05,0.38,0,0,0
10.347,-0.24,0.05,0.38,0,0,0
10.348,-0.24,0.05,0.38,0,0,0
10.356,-0.24,0.05,0.38,0,0,0
10.357,-0.24,0.05,0.38,0,0,0
10.357,-0.24,0.05,0.38,0,0,0
10.357,-0.24,0.05,0.38,0,0,0
10.367,-0.24,0.05,0.38,0,0,0
10.367,-0.24,0.05,0.38,0,0,0
10.368,-0.24,0.05,0.38,0,0,0
10.368,-0.24,0.05,0.38,0,0,0
10.375,-0.24,0.05,0.38,0,0,0
10.376,-0.24,0.05,0.38,0,0,0
10.376,-0.24,0.05,0.38,0,0,0
10.377,-0.24,0.05,0.38,0,0,0
10.384,-0.24,0.05,0.38,0,0,0
10.385,-0.24,0.05,0.38,0,0,0
10.385,-0.24,0.05,0.38,0,0,0
10.386,-0.24,0.05,0.38,0,0,0
10.394,-0.24,0.05,0.38,0,0,0
10.395,-0.24,0.05,0.38,0,0,0
10.396,-0.24,0.05,0.38,0,0,0
10.396,-0.24,0.05,0.38,0,0,0
10.402,-0.24,0.05,0.38,0,0,0
10.404,-0.24,0.05,0.38,0,0,0
10.404,-0.24,0.05,0.38,0,0,0
10.406,-0.24,0.05,0.38,0,0,0
10.412,-0.24,0.05,0.38,0,0,0
10.413,-0.24,0.05,0.38,0,0,0
10.414,-0.24,0.05,0.38,0,0,0
10.414,-0.24,0.05,0.38,0,0,0
10.434,-0.24,0.05,0.38,0,0,0
10.435,-0.24,0.05,0.38,0,0,0
10.436,-0.24,0.05,0.38,0,0,0
10.436,-0.24,0.05,0.38,0,0,0
10.436,-0.24,0.05,0.38,0,0,0
10.437,-0.24,0.05,0.38,0,0,0
10.437,-0.24,0.05,0.38,0,0,0
10.437,-0.24,0.05,0.38,0,0,0
10.441,-0.24,0.05,0.38,0,0,0
10.441,-0.24,0.05,0.38,0,0,0
10.442,-0.24,0.05,0.38,0,0,0
10.442,-0.24,0.05,0.38,0,0,0
10.451,-0.24,0.05,0.38,0,0,0
10.451,-0.24,0.05,0.38,0,0,0
10.452,-0.24,0.05,0.38,0,0,0
10.452,-0.24,0.05,0.38,0,0,0
10.46,-0.24,0.05,0.38,0,0,0
10.461,-0.24,0.05,0.38,0,0,0
10.461,-0.24,0.05,0.38,0,0,0
10.462,-0.24,0.05,0.38,0,0,0
10.47,-0.24,0.05,0.38,0,0,0
10.471,-0.24,0.05,0.38,0,0,0
10.471,-0.24,0.05,0.38,0,0,0
10.471,-0.24,0.05,0.38,0,0,0
10.479,-0.24,0.05,0.38,0,0,0
10.48,-0.24,0.05,0.38,0,0,0
10.48,-0.24,0.05,0.38,0,0,0
10.481,-0.24,0.05,0.38,0,0,0
10.488,-0.24,0.05,0.38,0,0,0
10.489,-0.24,0.05,0.38,0,0,0
10.49,-0.24,0.05,0.38,0,0,0
10.49,-0.24,0.05,0.38,0,0,0
10.497,-0.24,0.05,0.38,0,0,0
10.498,-0.24,0.05,0.38,0,0,0
10.499,-0.24,0.05,0.38,0,0,0
10.499,-0.24,0.05,0.38,0,0,0
10.507,-0.24,0.05,0.38,0,0,0
10.508,-0.24,0.05,0.38,0,0,0
10.508,-0.24,0.05,0.38,0,0,0
10.509,-0.24,0.05,0.38,0,0,0
10.522,-0.24,0.05,0.38,0,0,0
10.524,-0.24,0.05,0.38,0,0,0
10.525,-0.24,0.05,0.38,0,0,0
10.525,-0.24,0.05,0.38,0,0,0
10.527,-0.24,0.05,0.38,0,0,0
10.528,-0.24,0.05,0.38,0,0,0
10.529,-0.24,0.05,0.38,0,0,0
10.53,-0.24,0.05,0.38,0,0,0
10.537,-0.24,0.05,0.38,0,0,0
10.538,-0.24,0.05,0.38,0,0,0
10.539,-0.24,0.05,0.38,0,0,0
10.539,-0.24,0.05,0.38,0,0,0
10.546,-0.24,0.05,0.38,0,0,0
10.546,-0.24,0.05,0.38,0,0,0
10.547,-0.24,0.05,0.38,0,0,0
10.547,-0.24,0.05,0.38,0,0,0
10.555,-0.24,0.05,0.38,0,0,0
10.556,-0.24,0.05,0.38,0,0,0
10.557,-0.24,0.05,0.38,0,0,0
10.557,-0.24,0.05,0.38,0,0,0
10.565,-0.24,0.05,0.38,0,0,0
10.566,-0.24,0.05,0.38,0,0,0
10.567,-0.24,0.05,0.38,0,0,0
10.567,-0.24,0.05,0.38,0,0,0
10.574,-0.24,0.05,0.38,0,0,0
10.575,-0.24,0.05,0.38,0,0,0
10.576,-0.24,0.05,0.38,0,0,0
10.576,-0.24,0.05,0.38,0,0,0
10.583,-0.24,0.05,0.38,0,0,0
10.584,-0.24,0.05,0.38,0,0,0
10.585,-0.24,0.05,0.38,0,0,0
10.585,-0.24,0.05,0.38,0,0,0
10.593,-0.24,0.05,0.38,0,0,0
10.594,-0.24,0.05,0.38,0,0,0
10.595,-0.24,0.05,0.38,0,0,0
10.596,-0.24,0.05,0.38,0,0,0
10.603,-0.24,0.05,0.38,0,0,0
10.603,-0.24,0.05,0.38,0,0,0
10.604,-0.24,0.05,0.38,0,0,0
10.605,-0.24,0.05,0.38,0,0,0
10.613,-0.24,0.05,0.38,0,0,0
10.614,-0.24,0.05,0.38,0,0,0
10.615,-0.24,0.05,0.38,0,0,0
10.616,-0.24,0.05,0.38,0,0,0
10.627,-0.24,0.05,0.38,0,0,0
10.627,-0.24,0.05,0.38,0,0,0
10.628,-0.24,0.05,0.38,0,0,0
10.628,-0.24,0.05,0.38,0,0,0
10.631,-0.24,0.05,0.38,0,0,0
10.632,-0.24,0.05,0.38,0,0,0
10.632,-0.24,0.05,0.38,0,0,0
10.632,-0.24,0.05,0.38,0,0,0
10.65,-0.24,0.05,0.38,0,0,0
10.651,-0.24,0.05,0.38,0,0,0
10.651,-0.24,0.05,0.38,0,0,0
10.651,-0.24,0.05,0.38,0,0,0
10.651,-0.24,0.05,0.38,0,0,0
10.652,-0.24,0.05,0.38,0,0,0
10.652,-0.24,0.05,0.38,0,0,0
10.652,-0.24,0.05,0.38,0,0,0
10.659,-0.24,0.05,0.38,0,0,0
10.66,-0.24,0.05,0.38,0,0,0
10.66,-0.24,0.05,0.38,0,0,0
10.661,-0.24,0.05,0.38,0,0,0
10.67,-0.24,0.05,0.38,0,0,0
10.671,-0.24,0.05,0.38,0,0,0
10.671,-0.24,0.05,0.38,0,0,0
10.672,-0.24,0.05,0.38,0,0,0
10.679,-0.24,0.05,0.38,0,0,0
10.679,-0.24,0.05,0.38,0,0,0
10.68,-0.24,0.05,0.38,0,0,0
10.68,-0.24,0.05,0.38,0,0,0
10.689,-0.24,0.05,0.38,0,0,0
10.69,-0.24,0.05,0.38,0,0,0
10.691,-0.24,0.05,0.38,0,0,0
10.691,-0.24,0.05,0.38,0,0,0
10.699,-0.24,0.05,0.38,0,0,0
10.7,-0.24,0.05,0.38,0,0,0
10.701,-0.24,0.05,0.38,0,0,0
10.701,-0.24,0.05,0.38,0,0,0
10.707,-0.24,0.05,0.38,0,0,0
10.708,-0.24,0.05,0.38,0,0,0
10.708,-0.24,0.05,0.38,0,0,0
10.709,-0.24,0.05,0.38,0,0,0
10.718,-0.24,0.05,0.38,0,0,0
10.718,-0.24,0.05,0.38,0,0,0
10.719,-0.24,0.05,0.38,0,0,0
10.719,-0.24,0.05,0.38,0,0,0
10.727,-0.24,0.05,0.38,0,0,0
10.727,-0.24,0.05,0.38,0,0,0
10.728,-0.24,0.05,0.38,0,0,0
10.728,-0.24,0.05,0.38,0,0,0
10.737,-0.24,0.05,0.38,0,0,0
10.738,-0.24,0.05,0.38,0,0,0
10.738,-0.24,0.05,0.38,0,0,0
10.739,-0.24,0.05,0.38,0,0,0
10.746,-0.24,0.05,0.38,0,0,0
10.746,-0.24,0.05,0.38,0,0,0
10.747,-0.24,0.05,0.38,0,0,0
10.747,-0.24,0.05,0.38,0,0,0
10.76,-0.24,0.05,0.38,0,0,0
10.761,-0.24,0.05,0.38,0,0,0
10.761,-0.24,0.05,0.38,0,0,0
10.762,-0.24,0.05,0.38,0,0,0
10.769,-0.24,0.05,0.38,0,0,0
10.77,-0.24,0.05,0.38,0,0,0
10.771,-0.24,0.05,0.38,0,0,0
10.771,-0.24,0.05,0.38,0,0,0
10.774,-0.24,0.05,0.38,0,0,0
10.775,-0.24,0.05,0.38,0,0,0
10.775,-0.24,0.05,0.38,0,0,0
10.776,-0.24,0.05,0.38,0,0,0
10.784,-0.24,0.05,0.38,0,0,0
10.785,-0.24,0.05,0.38,0,0,0
10.786,-0.24,0.05,0.38,0,0,0
10.786,-0.24,0.05,0.38,0,0,0
10.793,-0.24,0.05,0.38,0,0,0
10.794,-0.24,0.05,0.38,0,0,0
10.795,-0.24,0.05,0.38,0,0,0
10.795,-0.24,0.05,0.38,0,0,0
10.803,-0.24,0.05,0.38,0,0,0
10.804,-0.24,0.05,0.38,0,0,0
10.804,-0.24,0.05,0.38,0,0,0
10.805,-0.24,0.05,0.38,0,0,0
10.812,-0.24,0.05,0.38,0,0,0
10.813,-0.24,0.05,0.38,0,0,0
10.814,-0.24,0.05,0.38,0,0,0
10.815,-0.24,0.05,0.38,0,0,0
10.823,-0.24,0.05,0.38,0,0,0
10.824,-0.24,0.05,0.38,0,0,0
10.825,-0.24,0.05,0.38,0,0,0
10.825,-0.24,0.05,0.38,0,0,0
10.831,-0.24,0.05,0.38,0,0,0
10.832,-0.24,0.05,0.38,0,0,0
10.832,-0.24,0.05,0.38,0,0,0
10.833,-0.24,0.05,0.38,0,0,0
10.846,-0.24,0.05,0.38,0,0,0
10.847,-0.24,0.05,0.38,0,0,0
10.847,-0.24,0.05,0.38,0,0,0
10.847,-0.24,0.05,0.38,0,0,0
10.856,-0.24,0.05,0.38,0,0,0
10.857,-0.24,0.05,0.38,0,0,0
10.858,-0.24,0.05,0.38,0,0,0
10.858,-0.24,0.05,0.38,0,0,0
10.86,-0.24,0.05,0.38,0,0,0
10.86,-0.24,0.05,0.38,0,0,0
10.86,-0.24,0.05,0.38,0,0,0
10.861,-0.24,0.05,0.38,0,0,0
10.87,-0.24,0.05,0.38,0,0,0
10.871,-0.24,0.05,0.38,0,0,0
10.872,-0.24,0.05,0.38,0,0,0
10.872,-0.24,0.05,0.38,0,0,0
10.879,-0.24,0.05,0.38,0,0,0
10.88,-0.24,0.05,0.38,0,0,0
10.881,-0.24,0.05,0.38,0,0,0
10.881,-0.24,0.05,0.38,0,0,0
10.889,-0.24,0.05,0.38,0,0,0
10.89,-0.24,0.05,0.38,0,0,0
10.891,-0.24,0.05,0.38,0,0,0
10.892,-0.24,0.05,0.38,0,0,0
10.898,-0.24,0.05,0.38,0,0,0
10.898,-0.24,0.05,0.38,0,0,0
10.899,-0.24,0.05,0.38,0,0,0
10.899,-0.24,0.05,0.38,0,0,0
10.907,-0.24,0.05,0.38,0,0,0
10.908,-0.24,0.05,0.38,0,0,0
10.908,-0.24,0.05,0.38,0,0,0
10.909,-0.24,0.05,0.38,0,0,0
10.921,-0.24,0.05,0.38,0,0,0
10.922,-0.24,0.05,0.38,0,0,0
10.923,-0.24,0.05,0.38,0,0,0
10.923,-0.24,0.05,0.38,0,0,0
10.927,-0.24,0.05,0.38,0,0,0
10.928,-0.24,0.05,0.38,0,0,0
10.928,-0.24,0.05,0.38,0,0,0
10.929,-0.24,0.05,0.38,0,0,0
10.942,-0.24,0.05,0.38,0,0,0
10.943,-0.24,0.05,0.38,0,0,0
10.943,-0.24,0.05,0.38,0,0,0
10.943,-0.24,0.05,0.38,0,0,0
10.946,-0.24,0.05,0.38,0,0,0
10.946,-0.24,0.05,0.38,0,0,0
10.947,-0.24,0.05,0.38,0,0,0
10.947,-0.24,0.05,0.38,0,0,0
10.955,-0.24,0.05,0.38,0,0,0
10.958,-0.24,0.05,0.38,0,0,0
10.958,-0.24,0.05,0.38,0,0,0
10.959,-0.24,0.05,0.38,0,0,0
10.966,-0.24,0.05,0.38,0,0,0
10.966,-0.24,0.05,0.38,0,0,0
10.967,-0.24,0.05,0.38,0,0,0
10.967,-0.24,0.05,0.38,0,0,0
10.975,-0.24,0.05,0.38,0,0,0
10.976,-0.24,0.05,0.38,0,0,0
10.976,-0.24,0.05,0.38,0,0,0
10.977,-0.24,0.05,0.38,0,0,0
10.985,-0.24,0.05,0.38,0,0,0
10.986,-0.24,0.05,0.38,0,0,0
10.986,-0.24,0.05,0.38,0,0,0
10.987,-0.24,0.05,0.38,0,0,0
10.994,-0.24,0.05,0.38,0,0,0
10.995,-0.24,0.05,0.38,0,0,0
10.995,-0.24,0.05,0.38,0,0,0
10.996,-0.24,0.05,0.38,0,0,0
11.005,-0.24,0.05,0.38,0,0,0
11.007,-0.24,0.05,0.38,0,0,0
11.007,-0.24,0.05,0.38,0,0,0
11.008,-0.24,0.05,0.38,0,0,0
11.012,-0.24,0.05,0.38,0,0,0
11.013,-0.24,0.05,0.38,0,0,0
11.013,-0.24,0.05,0.38,0,0,0
11.014,-0.24,0.05,0.38,0,0,0
11.022,-0.24,0.05,0.38,0,0,0
11.023,-0.24,0.05,0.38,0,0,0
11.024,-0.24,0.05,0.38,0,0,0
11.024,-0.24,0.05,0.38,0,0,0
11.045,-0.24,0.05,0.38,0,0,0
11.046,-0.24,0.05,0.38,0,0,0
11.047,-0.24,0.05,0.38,0,0,0
11.047,-0.24,0.05,0.38,0,0,0
11.047,-0.24,0.05,0.38,0,0,0
11.047,-0.24,0.05,0.38,0,0,0
11.048,-0.24,0.05,0.38,0,0,0
11.048,-0.24,0.05,0.38,0,0,0
11.056,-0.24,0.05,0.38,0,0,0
11.057,-0.24,0.05,0.38,0,0,0
11.058,-0.24,0.05,0.38,0,0,0
11.058,-0.24,0.05,0.38,0,0,0
11.061,-0.24,0.05,0.38,0,0,0
11.061,-0.24,0.05,0.38,0,0,0
11.061,-0.24,0.05,0.38,0,0,0
11.062,-0.24,0.05,0.38,0,0,0
11.07,-0.24,0.05,0.38,0,0,0
11.071,-0.24,0.05,0.38,0,0,0
11.072,-0.24,0.05,0.38,0,0,0
11.072,-0.24,0.05,0.38,0,0,0
11.079,-0.24,0.05,0.38,0,0,0
11.08,-0.24,0.05,0.38,0,0,0
11.08,-0.24,0.05,0.38,0,0,0
11.081,-0.24,0.05,0.38,0,0,0
11.089,-0.24,0.05,0.38,0,0,0
11.09,-0.24,0.05,0.38,0,0,0
11.091,-0.24,0.05,0.38,0,0,0
11.091,-0.24,0.05,0.38,0,0,0
11.099,-0.24,0.05,0.38,0,0,0
11.101,-0.24,0.05,0.38,0,0,0
11.101,-0.24,0.05,0.38,0,0,0
11.102,-0.24,0.05,0.38,0,0,0
11.107,-0.24,0.05,0.38,0,0,0
11.108,-0.24,0.05,0.38,0,0,0
11.109,-0.24,0.05,0.38,0,0,0
11.109,-0.24,0.05,0.38,0,0,0
11.118,-0.24,0.05,0.38,0,0,0
11.119,-0.24,0.05,0.38,0,0,0
11.119,-0.24,0.05,0.38,0,0,0
11.12,-0.24,0.05,0.38,0,0,0
11.128,-0.24,0.05,0.38,0,0,0
11.128,-0.24,0.05,0.38,0,0,0
11.129,-0.24,0.05,0.38,0,0,0
11.13,-0.24,0.05,0.38,0,0,0
11.139,-0.24,0.05,0.38,0,0,0
11.14,-0.24,0.05,0.38,0,0,0
11.14,-0.24,0.05,0.38,0,0,0
11.141,-0.24,0.05,0.38,0,0,0
11.146,-0.24,0.05,0.38,0,0,0
11.147,-0.24,0.05,0.38,0,0,0
11.147,-0.24,0.05,0.38,0,0,0
11.148,-0.24,0.05,0.38,0,0,0
11.162,-0.24,0.05,0.38,0,0,0
11.162,-0.24,0.05,0.38,0,0,0
11.163,-0.24,0.05,0.38,0,0,0
11.163,-0.24,0.05,0.38,0,0,0
11.172,-0.24,0.05,0.38,0,0,0
11.173,-0.24,0.05,0.38,0,0,0
11.173,-0.24,0.05,0.38,0,0,0
11.173,-0.24,0.05,0.38,0,0,0
11.174,-0.24,0.05,0.38,0,0,0
11.174,-0.24,0.05,0.38,0,0,0
11.175,-0.24,0.05,0.38,0,0,0
11.175,-0.24,0.05,0.38,0,0,0
11.184,-0.24,0.05,0.38,0,0,0
11.185,-0.24,0.05,0.38,0,0,0
11.185,-0.24,0.05,0.38,0,0,0
11.186,-0.24,0.05,0.38,0,0,0
11.194,-0.24,0.05,0.38,0,0,0
11.195,-0.24,0.05,0.38,0,0,0
11.196,-0.24,0.05,0.38,0,0,0
11.197,-0.24,0.05,0.38,0,0,0
11.206,-0.24,0.05,0.38,0,0,0
11.207,-0.24,0.05,0.38,0,0,0
11.208,-0.24,0.05,0.38,0,0,0
11.209,-0.24,0.05,0.38,0,0,0
11.212,-0.24,0.05,0.38,0,0,0
11.213,-0.24,0.05,0.38,0,0,0
11.213,-0.24,0.05,0.38,0,0,0
11.214,-0.24,0.05,0.38,0,0,0
11.221,-0.24,0.05,0.38,0,0,0
11.222,-0.24,0.05,0.38,0,0,0
11.223,-0.24,0.05,0.38,0,0,0
11.223,-0.24,0.05,0.38,0,0,0
11.232,-0.24,0.05,0.38,0,0,0
11.233,-0.24,0.05,0.38,0,0,0
11.233,-0.24,0.05,0.38,0,0,0
11.233,-0.24,0.05,0.38,0,0,0
11.241,-0.24,0.05,0.38,0,0,0
11.241,-0.24,0.05,0.38,0,0,0
11.242,-0.24,0.05,0.38,0,0,0
11.242,-0.24,0.05,0.38,0,0,0
11.251,-0.24,0.05,0.38,0,0,0
11.252,-0.24,0.05,0.38,0,0,0
11.253,-0.24,0.05,0.38,0,0,0
11.253,-0.24,0.05,0.38,0,0,0
11.26,-0.24,0.05,0.38,0,0,0
11.261,-0.24,0.05,0.38,0,0,0
11.261,-0.24,0.05,0.38,0,0,0
11.262,-0.24,0.05,0.38,0,0,0
11.269,-0.24,0.05,0.38,0,0,0
11.27,-0.24,0.05,0.38,0,0,0
11.271,-0.24,0.05,0.38,0,0,0
11.271,-0.24,0.05,0.38,0,0,0
11.279,-0.24,0.05,0.38,0,0,0
11.28,-0.24,0.05,0.38,0,0,0
11.28,-0.24,0.05,0.38,0,0,0
11.281,-0.24,0.05,0.38,0,0,0
11.288,-0.24,0.05,0.38,0,0,0
11.29,-0.24,0.05,0.38,0,0,0
11.291,-0.24,0.05,0.38,0,0,0
11.292,-0.24,0.05,0.38,0,0,0
11.298,-0.24,0.05,0.38,0,0,0
11.299,-0.24,0.05,0.38,0,0,0
11.299,-0.24,0.05,0.38,0,0,0
11.3,-0.24,0.05,0.38,0,0,0
11.307,-0.24,0.05,0.38,0,0,0
11.308,-0.24,0.05,0.38,0,0,0
11.308,-0.24,0.05,0.38,0,0,0
11.309,-0.24,0.05,0.38,0,0,0
11.317,-0.24,0.05,0.38,0,0,0
11.318,-0.24,0.05,0.38,0,0,0
11.318,-0.24,0.05,0.38,0,0,0
11.318,-0.24,0.05,0.38,0,0,0
11.328,-0.24,0.05,0.38,0,0,0
11.329,-0.24,0.05,0.38,0,0,0
11.329,-0.24,0.05,0.38,0,0,0
11.33,-0.24,0.05,0.38,0,0,0
11.34,-0.24,0.05,0.38,0,0,0
11.342,-0.24,0.05,0.38,0,0,0
11.343,-0.24,0.05,0.38,0,0,0
11.344,-0.24,0.05,0.38,0,0,0
11.354,-0.24,0.05,0.38,0,0,0
11.355,-0.24,0.05,0.38,0,0,0
11.355,-0.24,0.05,0.38,0,0,0
11.356,-0.24,0.05,0.38,0,0,0
11.356,-0.24,0.05,0.38,0,0,0
11.356,-0.24,0.05,0.38,0,0,0
11.356,-0.24,0.05,0.38,0,0,0
11.357,-0.24,0.05,0.38,0,0,0
11.365,-0.24,0.05,0.38,0,0,0
11.366,-0.24,0.05,0.38,0,0,0
11.366,-0.24,0.05,0.38,0,0,0
11.367,-0.24,0.05,0.38,0,0,0
11.375,-0.24,0.05,0.38,0,0,0
11.376,-0.24,0.05,0.38,0,0,0
11.376,-0.24,0.05,0.38,0,0,0
11.377,-0.24,0.05,0.38,0,0,0
11.384,-0.24,0.05,0.38,0,0,0
11.385,-0.24,0.05,0.38,0,0,0
11.386,-0.24,0.05,0.38,0,0,0
11.386,-0.24,0.05,0.38,0,0,0
11.394,-0.24,0.05,0.38,0,0,0
11.394,-0.24,0.05,0.38,0,0,0
11.395,-0.24,0.05,0.38,0,0,0
11.396,-0.24,0.05,0.38,0,0,0
11.403,-0.24,0.05,0.38,0,0,0
11.404,-0.24,0.05,0.38,0,0,0
11.405,-0.24,0.05,0.38,0,0,0
11.405,-0.24,0.05,0.38,0,0,0
11.412,-0.24,0.05,0.38,0,0,0
11.413,-0.24,0.05,0.38,0,0,0
11.413,-0.24,0.05,0.38,0,0,0
11.414,-0.24,0.05,0.38,0,0,0
11.435,-0.24,0.05,0.38,0,0,0
11.436,-0.24,0.05,0.38,0,0,0
11.437,-0.24,0.05,0.38,0,0,0
11.438,-0.24,0.05,0.38,0,0,0
11.446,-0.24,0.05,0.38,0,0,0
11.447,-0.24,0.05,0.38,0,0,0
11.448,-0.24,0.05,0.38,0,0,0
11.448,-0.24,0.05,0.38,0,0,0
11.449,-0.24,0.05,0.38,0,0,0
11.45,-0.24,0.05,0.38,0,0,0
11.45,-0.24,0.05,0.38,0,0,0
11.451,-0.24,0.05,0.38,0,0,0
11.451,-0.24,0.05,0.38,0,0,0
11.452,-0.24,0.05,0.38,0,0,0
11.452,-0.24,0.05,0.38,0,0,0
11.453,-0.24,0.05,0.38,0,0,0
11.46,-0.24,0.05,0.38,0,0,0
11.461,-0.24,0.05,0.38,0,0,0
11.461,-0.24,0.05,0.38,0,0,0
11.462,-0.24,0.05,0.38,0,0,0
11.469,-0.24,0.05,0.38,0,0,0
11.47,-0.24,0.05,0.38,0,0,0
11.47,-0.24,0.05,0.38,0,0,0
11.471,-0.24,0.05,0.38,0,0,0
11.479,-0.24,0.05,0.38,0,0,0
11.479,-0.24,0.05,0.38,0,0,0
11.48,-0.24,0.05,0.38,0,0,0
11.48,-0.24,0.05,0.38,0,0,0
11.488,-0.24,0.05,0.38,0,0,0
11.489,-0.24,0.05,0.38,0,0,0
11.49,-0.24,0.05,0.38,0,0,0
11.49,-0.24,0.05,0.38,0,0,0
11.499,-0.24,0.05,0.38,0,0,0
11.499,-0.24,0.05,0.38,0,0,0
11.5,-0.24,0.05,0.38,0,0,0
11.5,-0.24,0.05,0.38,0,0,0
11.507,-0.24,0.05,0.38,0,0,0
11.508,-0.24,0.05,0.38,0,0,0
11.509,-0.24,0.05,0.38,0,0,0
11.509,-0.24,0.05,0.38,0,0,0
11.517,-0.24,0.05,0.38,0,0,0
11.517,-0.24,0.05,0.38,0,0,0
11.518,-0.24,0.05,0.38,0,0,0
11.518,-0.24,0.05,0.38,0,0,0
11.527,-0.24,0.05,0.38,0,0,0
11.528,-0.24,0.05,0.38,0,0,0
11.528,-0.24,0.05,0.38,0,0,0
11.529,-0.24,0.05,0.38,0,0,0
11.539,-0.24,0.05,0.38,0,0,0
11.54,-0.24,0.05,0.38,0,0,0
11.54,-0.24,0.05,0.38,0,0,0
11.541,-0.24,0.05,0.38,0,0,0
11.546,-0.24,0.05,0.38,0,0,0
11.546,-0.24,0.05,0.38,0,0,0
11.547,-0.24,0.05,0.38,0,0,0
11.547,-0.24,0.05,0.38,0,0,0
11.563,-0.24,0.05,0.38,0,0,0
11.563,-0.24,0.05,0.38,0,0,0
11.564,-0.24,0.05,0.38,0,0,0
11.564,-0.24,0.05,0.38,0,0,0
11.564,-0.24,0.05,0.38,0,0,0
11.564,-0.24,0.05,0.38,0,0,0
11.565,-0.24,0.05,0.38,0,0,0
11.565,-0.24,0.05,0.38,0,0,0
11.574,-0.24,0.05,0.38,0,0,0
11.575,-0.24,0.05,0.38,0,0,0
11.576,-0.24,0.05,0.38,0,0,0
11.576,-0.24,0.05,0.38,0,0,0
11.584,-0.24,0.05,0.38,0,0,0
11.585,-0.24,0.05,0.38,0,0,0
11.585,-0.24,0.05,0.38,0,0,0
11.586,-0.24,0.05,0.38,0,0,0
11.594,-0.24,0.05,0.38,0,0,0
11.594,-0.24,0.05,0.38,0,0,0
11.595,-0.24,0.05,0.38,0,0,0
11.595,-0.24,0.05,0.38,0,0,0
11.603,-0.24,0.05,0.38,0,0,0
11.604,-0.24,0.05,0.38,0,0,0
11.604,-0.24,0.05,0.38,0,0,0
11.605,-0.24,0.05,0.38,0,0,0
11.613,-0.24,0.05,0.38,0,0,0
11.614,-0.24,0.05,0.38,0,0,0
11.614,-0.24,0.05,0.38,0,0,0
11.615,-0.24,0.05,0.38,0,0,0
11.624,-0.24,0.05,0.38,0,0,0
11.626,-0.24,0.05,0.38,0,0,0
11.627,-0.24,0.05,0.38,0,0,0
11.627,-0.24,0.05,0.38,0,0,0
11.651,-0.24,0.05,0.38,0,0,0
11.652,-0.24,0.05,0.38,0,0,0
11.652,-0.24,0.05,0.38,0,0,0
11.652,-0.24,0.05,0.38,0,0,0
11.652,-0.24,0.05,0.38,0,0,0
11.653,-0.24,0.05,0.38,0,0,0
11.653,-0.24,0.05,0.38,0,0,0
11.653,-0.24,0.05,0.38,0,0,0
11.654,-0.24,0.05,0.38,0,0,0
11.654,-0.24,0.05,0.38,0,0,0
11.654,-0.24,0.05,0.38,0,0,0
11.654,-0.24,0.05,0.38,0,0,0
11.66,-0.24,0.05,0.38,0,0,0
11.66,-0.24,0.05,0.38,0,0,0
11.661,-0.24,0.05,0.38,0,0,0
11.661,-0.24,0.05,0.38,0,0,0
11.67,-0.24,0.05,0.38,0,0,0
11.67,-0.24,0.05,0.38,0,0,0
11.671,-0.24,0.05,0.38,0,0,0
11.671,-0.24,0.05,0.38,0,0,0
11.679,-0.24,0.05,0.38,0,0,0
11.68,-0.24,0.05,0.38,0,0,0
11.68,-0.24,0.05,0.38,0,0,0
11.68,-0.24,0.05,0.38,0,0,0
11.689,-0.24,0.05,0.38,0,0,0
11.69,-0.24,0.05,0.38,0,0,0
11.69,-0.24,0.05,0.38,0,0,0
11.691,-0.24,0.05,0.38,0,0,0
11.698,-0.24,0.05,0.38,0,0,0
11.699,-0.24,0.05,0.38,0,0,0
11.699,-0.24,0.05,0.38,0,0,0
11.699,-0.24,0.05,0.38,0,0,0
11.707,-0.24,0.05,0.38,0,0,0
11.708,-0.24,0.05,0.38,0,0,0
11.708,-0.24,0.05,0.38,0,0,0
11.709,-0.24,0.05,0.38,0,0,0
11.717,-0.24,0.05,0.38,0,0,0
11.717,-0.24,0.05,0.38,0,0,0
11.718,-0.24,0.05,0.38,0,0,0
11.718,-0.24,0.05,0.38,0,0,0
11.727,-0.24,0.05,0.38,0,0,0
11.728,-0.24,0.05,0.38,0,0,0
11.728,-0.24,0.05,0.38,0,0,0
11.729,-0.24,0.05,0.38,0,0,0
11.738,-0.24,0.05,0.38,0,0,0
11.739,-0.24,0.05,0.38,0,0,0
11.74,-0.24,0.05,0.38,0,0,0
11.74,-0.24,0.05,0.38,0,0,0
11.746,-0.24,0.05,0.38,0,0,0
11.747,-0.24,0.05,0.38,0,0,0
11.748,-0.24,0.05,0.38,0,0,0
11.748,-0.24,0.05,0.38,0,0,0
11.761,-0.24,0.05,0.38,0,0,0
11.762,-0.24,0.05,0.38,0,0,0
11.762,-0.24,0.05,0.38,0,0,0
11.762,-0.24,0.05,0.38,0,0,0
11.771,-0.24,0.05,0.38,0,0,0
11.772,-0.24,0.05,0.38,0,0,0
11.772,-0.24,0.05,0.38,0,0,0
11.772,-0.24,0.05,0.38,0,0,0
11.774,-0.24,0.05,0.38,0,0,0
11.775,-0.24,0.05,0.38,0,0,0
11.775,-0.24,0.05,0.38,0,0,0
11.776,-0.24,0.05,0.38,0,0,0
11.784,-0.24,0.05,0.38,0,0,0
11.785,-0.24,0.05,0.38,0,0,0
11.785,-0.24,0.05,0.38,0,0,0
11.786,-0.24,0.05,0.38,0,0,0
11.794,-0.24,0.05,0.38,0,0,0
11.795,-0.24,0.05,0.38,0,0,0
11.795,-0.24,0.05,0.38,0,0,0
11.796,-0.24,0.05,0.38,0,0,0
11.803,-0.24,0.05,0.38,0,0,0
11.804,-0.24,0.05,0.38,0,0,0
11.804,-0.24,0.05,0.38,0,0,0
11.805,-0.24,0.05,0.38,0,0,0
11.813,-0.24,0.05,0.38,0,0,0
11.814,-0.24,0.05,0.38,0,0,0
11.814,-0.24,0.05,0.38,0,0,0
11.815,-0.24,0.05,0.38,0,0,0
11.823,-0.24,0.05,0.38,0,0,0
11.824,-0.24,0.05,0.38,0,0,0
11.825,-0.24,0.05,0.38,0,0,0
11.826,-0.24,0.05,0.38,0,0,0
11.842,-0.24,0.05,0.38,0,0,0
11.843,-0.24,0.05,0.38,0,0,0
11.844,-0.24,0.05,0.38,0,0,0
11.844,-0.24,0.05,0.38,0,0,0
11.844,-0.24,0.05,0.38,0,0,0
11.845,-0.24,0.05,0.38,0,0,0
11.845,-0.24,0.05,0.38,0,0,0
11.846,-0.24,0.05,0.38,0,0,0
11.852,-0.24,0.05,0.38,0,0,0
11.853,-0.24,0.05,0.38,0,0,0
11.854,-0.24,0.05,0.38,0,0,0
11.854,-0.24,0.05,0.38,0,0,0
11.86,-0.24,0.05,0.38,0,0,0
11.861,-0.24,0.05,0.38,0,0,0
11.861,-0.24,0.05,0.38,0,0,0
11.862,-0.24,0.05,0.38,0,0,0
11.869,-0.24,0.05,0.38,0,0,0
11.871,-0.24,0.05,0.38,0,0,0
11.871,-0.24,0.05,0.38,0,0,0
11.872,-0.24,0.05,0.38,0,0,0
11.879,-0.24,0.05,0.38,0,0,0
11.88,-0.24,0.05,0.38,0,0,0
11.88,-0.24,0.05,0.38,0,0,0
11.881,-0.24,0.05,0.38,0,0,0
11.888,-0.24,0.05,0.38,0,0,0
11.89,-0.24,0.05,0.38,0,0,0
11.89,-0.24,0.05,0.38,0,0,0
11.891,-0.24,0.05,0.38,0,0,0
11.898,-0.24,0.05,0.38,0,0,0
11.899,-0.24,0.05,0.38,0,0,0
11.9,-0.24,0.05,0.38,0,0,0
11.9,-0.24,0.05,0.38,0,0,0
11.907,-0.24,0.05,0.38,0,0,0
11.907,-0.24,0.05,0.38,0,0,0
11.908,-0.24,0.05,0.38,0,0,0
11.908,-0.24,0.05,0.38,0,0,0
11.917,-0.24,0.05,0.38,0,0,0
11.917,-0.24,0.05,0.38,0,0,0
11.918,-0.24,0.05,0.38,0,0,0
11.918,-0.24,0.05,0.38,0,0,0
11.927,-0.24,0.05,0.38,0,0,0
11.928,-0.24,0.05,0.38,0,0,0
11.929,-0.24,0.05,0.38,0,0,0
11.929,-0.24,0.05,0.38,0,0,0
11.938,-0.24,0.05,0.38,0,0,0
11.939,-0.24,0.05,0.38,0,0,0
11.94,-0.24,0.05,0.38,0,0,0
11.941,-0.24,0.05,0.38,0,0,0
11.946,-0.24,0.05,0.38,0,0,0
11.946,-0.24,0.05,0.38,0,0,0
11.947,-0.24,0.05,0.38,0,0,0
11.947,-0.24,0.05,0.38,0,0,0
11.964,-0.24,0.05,0.38,0,0,0
11.964,-0.24,0.05,0.38,0,0,0
11.965,-0.24,0.05,0.38,0,0,0
11.966,-0.24,0.05,0.38,0,0,0
11.966,-0.24,0.05,0.38,0,0,0
11.967,-0.24,0.05,0.38,0,0,0
11.967,-0.24,0.05,0.38,0,0,0
11.967,-0.24,0.05,0.38,0,0,0
11.974,-0.24,0.05,0.38,0,0,0
11.975,-0.24,0.05,0.38,0,0,0
11.975,-0.24,0.05,0.38,0,0,0
11.976,-0.24,0.05,0.38,0,0,0
11.984,-0.24,0.05,0.38,0,0,0
11.985,-0.24,0.05,0.38,0,0,0
11.985,-0.24,0.05,0.38,0,0,0
11.985,-0.24,0.05,0.38,0,0,0
11.993,-0.24,0.05,0.38,0,0,0
11.994,-0.24,0.05,0.38,0,0,0
11.994,-0.24,0.05,0.38,0,0,0
11.995,-0.24,0.05,0.38,0,0,0
12.003,-0.24,0.05,0.38,0,0,0
12.004,-0.24,0.05,0.38,0,0,0
12.004,-0.24,0.05,0.38,0,0,0
12.004,-0.24,0.05,0.38,0,0,0
12.013,-0.24,0.05,0.38,0,0,0
12.014,-0.24,0.05,0.38,0,0,0
12.015,-0.24,0.05,0.38,0,0,0
12.015,-0.24,0.05,0.38,0,0,0
12.024,-0.24,0.05,0.38,0,0,0
12.025,-0.24,0.05,0.38,0,0,0
12.025,-0.24,0.05,0.38,0,0,0
12.026,-0.24,0.05,0.38,0,0,0
12.049,-0.24,0.05,0.38,0,0,0
12.05,-0.24,0.05,0.38,0,0,0
12.05,-0.24,0.05,0.38,0,0,0
12.05,-0.24,0.05,0.38,0,0,0
12.051,-0.24,0.05,0.38,0,0,0
12.051,-0.24,0.05,0.38,0,0,0
12.051,-0.24,0.05,0.38,0,0,0
12.051,-0.24,0.05,0.38,0,0,0
12.052,-0.24,0.05,0.38,0,0,0
12.052,-0.24,0.05,0.38,0,0,0
12.052,-0.24,0.05,0.38,0,0,0
12.052,-0.24,0.05,0.38,0,0,0
12.06,-0.24,0.05,0.38,0,0,0
12.061,-0.24,0.05,0.38,0,0,0
12.061,-0.24,0.05,0.38,0,0,0
12.061,-0.24,0.05,0.38,0,0,0
12.069,-0.24,0.05,0.38,0,0,0
12.07,-0.24,0.05,0.38,0,0,0
12.071,-0.24,0.05,0.38,0,0,0
12.071,-0.24,0.05,0.38,0,0,0
12.08,-0.24,0.05,0.38,0,0,0
12.08,-0.24,0.05,0.38,0,0,0
12.081,-0.24,0.05,0.38,0,0,0
12.081,-0.24,0.05,0.38,0,0,0
12.089,-0.24,0.05,0.38,0,0,0
12.09,-0.24,0.05,0.38,0,0,0
12.091,-0.24,0.05,0.38,0,0,0
12.091,-0.24,0.05,0.38,0,0,0
12.098,-0.24,0.05,0.38,0,0,0
12.099,-0.24,0.05,0.38,0,0,0
12.099,-0.24,0.05,0.38,0,0,0
12.1,-0.24,0.05,0.38,0,0,0
12.107,-0.24,0.05,0.38,0,0,0
12.108,-0.24,0.05,0.38,0,0,0
12.108,-0.24,0.05,0.38,0,0,0
12.109,-0.24,0.05,0.38,0,0,0
12.116,-0.24,0.05,0.38,0,0,0
12.117,-0.24,0.05,0.38,0,0,0
12.117,-0.24,0.05,0.38,0,0,0
12.117,-0.24,0.05,0.38,0,0,0
12.129,-0.24,0.05,0.38,0,0,0
12.129,-0.24,0.05,0.38,0,0,0
12.13,-0.24,0.05,0.38,0,0,0
12.13,-0.24,0.05,0.38,0,0,0
12.138,-0.24,0.05,0.38,0,0,0
12.139,-0.24,0.05,0.38,0,0,0
12.14,-0.24,0.05,0.38,0,0,0
12.14,-0.24,0.05,0.38,0,0,0
12.164,-0.24,0.05,0.38,0,0,0
12.164,-0.24,0.05,0.38,0,0,0
12.165,-0.24,0.05,0.38,0,0,0
12.165,-0.24,0.05,0.38,0,0,0
12.165,-0.24,0.05,0.38,0,0,0
12.165,-0.24,0.05,0.38,0,0,0
12.166,-0.24,0.05,0.38,0,0,0
12.166,-0.24,0.05,0.38,0,0,0
12.166,-0.24,0.05,0.38,0,0,0
12.167,-0.24,0.05,0.38,0,0,0
12.167,-0.24,0.05,0.38,0,0,0
12.167,-0.24,0.05,0.38,0,0,0
12.174,-0.24,0.05,0.38,0,0,0
12.175,-0.24,0.05,0.38,0,0,0
12.175,-0.24,0.05,0.38,0,0,0
12.175,-0.24,0.05,0.38,0,0,0
12.183,-0.24,0.05,0.38,0,0,0
12.184,-0.24,0.05,0.38,0,0,0
12.184,-0.24,0.05,0.38,0,0,0
12.185,-0.24,0.05,0.38,0,0,0
12.193,-0.24,0.05,0.38,0,0,0
12.194,-0.24,0.05,0.38,0,0,0
12.194,-0.24,0.05,0.38,0,0,0
12.195,-0.24,0.05,0.38,0,0,0
12.202,-0.24,0.05,0.38,0,0,0
12.203,-0.24,0.05,0.38,0,0,0
12.204,-0.24,0.05,0.38,0,0,0
12.204,-0.24,0.05,0.38,0,0,0
12.212,-0.24,0.05,0.38,0,0,0
12.213,-0.24,0.05,0.38,0,0,0
12.214,-0.24,0.05,0.38,0,0,0
12.215,-0.24,0.05,0.38,0,0,0
12.221,-0.24,0.05,0.38,0,0,0
12.223,-0.24,0.05,0.38,0,0,0
12.223,-0.24,0.05,0.38,0,0,0
12.224,-0.24,0.05,0.38,0,0,0
12.237,-0.24,0.05,0.38,0,0,0
12.238,-0.24,0.05,0.38,0,0,0
12.238,-0.24,0.05,0.38,0,0,0
12.239,-0.24,0.05,0.38,0,0,0
12.241,-0.24,0.05,0.38,0,0,0
12.241,-0.24,0.05,0.38,0,0,0
12.241,-0.24,0.05,0.38,0,0,0
12.242,-0.24,0.05,0.38,0,0,0
12.261,-0.24,0.05,0.38,0,0,0
12.262,-0.24,0.05,0.38,0,0,0
12.262,-0.24,0.05,0.38,0,0,0
12.263,-0.24,0.05,0.38,0,0,0
12.263,-0.24,0.05,0.38,0,0,0
12.263,-0.24,0.05,0.38,0,0,0
12.263,-0.24,0.05,0.38,0,0,0
12.264,-0.24,0.05,0.38,0,0,0
12.27,-0.24,0.05,0.38,0,0,0
12.271,-0.24,0.05,0.38,0,0,0
12.272,-0.24,0.05,0.38,0,0,0
12.272,-0.24,0.05,0.38,0,0,0
12.279,-0.24,0.05,0.38,0,0,0
12.28,-0.24,0.05,0.38,0,0,0
12.28,-0.24,0.05,0.38,0,0,0
12.28,-0.24,0.05,0.38,0,0,0
12.289,-0.24,0.05,0.38,0,0,0
12.291,-0.24,0.05,0.38,0,0,0
12.291,-0.24,0.05,0.38,0,0,0
12.291,-0.24,0.05,0.38,0,0,0
12.298,-0.24,0.05,0.38,0,0,0
12.299,-0.24,0.05,0.38,0,0,0
12.299,-0.24,0.05,0.38,0,0,0
12.299,-0.24,0.05,0.38,0,0,0
12.307,-0.24,0.05,0.38,0,0,0
12.308,-0.24,0.05,0.38,0,0,0
12.308,-0.24,0.05,0.38,0,0,0
12.309,-0.24,0.05,0.38,0,0,0
12.317,-0.24,0.05,0.38,0,0,0
12.317,-0.24,0.05,0.38,0,0,0
12.318,-0.24,0.05,0.38,0,0,0
12.318,-0.24,0.05,0.38,0,0,0
12.327,-0.24,0.05,0.38,0,0,0
12.328,-0.24,0.05,0.38,0,0,0
12.329,-0.24,0.05,0.38,0,0,0
12.329,-0.24,0.05,0.38,0,0,0
12.336,-0.24,0.05,0.38,0,0,0
12.338,-0.24,0.05,0.38,0,0,0
12.338,-0.24,0.05,0.38,0,0,0
12.339,-0.24,0.05,0.38,0,0,0
12.346,-0.24,0.05,0.38,0,0,0
12.346,-0.24,0.05,0.38,0,0,0
12.347,-0.24,0.05,0.38,0,0,0
12.347,-0.24,0.05,0.38,0,0,0
12.358,-0.24,0.05,0.38,0,0,0
12.359,-0.24,0.05,0.38,0,0,0
12.359,-0.24,0.05,0.38,0,0,0
12.359,-0.24,0.05,0.38,0,0,0
12.369,-0.24,0.05,0.38,0,0,0
12.37,-0.24,0.05,0.38,0,0,0
12.37,-0.24,0.05,0.38,0,0,0
12.371,-0.24,0.05,0.38,0,0,0
12.374,-0.24,0.05,0.38,0,0,0
12.375,-0.24,0.05,0.38,0,0,0
12.375,-0.24,0.05,0.38,0,0,0
12.375,-0.24,0.05,0.38,0,0,0
12.384,-0.24,0.05,0.38,0,0,0
12.385,-0.24,0.05,0.38,0,0,0
12.385,-0.24,0.05,0.38,0,0,0
12.386,-0.24,0.05,0.38,0,0,0
12.394,-0.24,0.05,0.38,0,0,0
12.394,-0.24,0.05,0.38,0,0,0
12.395,-0.24,0.05,0.38,0,0,0
12.395,-0.24,0.05,0.38,0,0,0
12.403,-0.24,0.05,0.38,0,0,0
12.404,-0.24,0.05,0.38,0,0,0
12.405,-0.24,0.05,0.38,0,0,0
12.405,-0.24,0.05,0.38,0,0,0
12.413,-0.24,0.05,0.38,0,0,0
12.414,-0.24,0.05,0.38,0,0,0
12.414,-0.24,0.05,0.38,0,0,0
12.415,-0.24,0.05,0.38,0,0,0
12.435,-0.24,0.05,0.38,0,0,0
12.436,-0.24,0.05,0.38,0,0,0
12.437,-0.24,0.05,0.38,0,0,0
12.437,-0.24,0.05,0.38,0,0,0
12.438,-0.24,0.05,0.38,0,0,0
12.438,-0.24,0.05,0.38,0,0,0
12.439,-0.24,0.05,0.38,0,0,0
12.439,-0.24,0.05,0.38,0,0,0
12.441,-0.24,0.05,0.38,0,0,0
12.441,-0.24,0.05,0.38,0,0,0
12.442,-0.24,0.05,0.38,0,0,0
12.442,-0.24,0.05,0.38,0,0,0
12.458,-0.24,0.05,0.38,0,0,0
12.459,-0.24,0.05,0.38,0,0,0
12.459,-0.24,0.05,0.38,0,0,0
12.459,-0.24,0.05,0.38,0,0,0
12.46,-0.24,0.05,0.38,0,0,0
12.461,-0.24,0.05,0.38,0,0,0
12.461,-0.24,0.05,0.38,0,0,0
12.461,-0.24,0.05,0.38,0,0,0
12.47,-0.24,0.05,0.38,0,0,0
12.471,-0.24,0.05,0.38,0,0,0
12.471,-0.24,0.05,0.38,0,0,0
12.472,-0.24,0.05,0.38,0,0,0
12.479,-0.24,0.05,0.38,0,0,0
12.48,-0.24,0.05,0.38,0,0,0
12.48,-0.24,0.05,0.38,0,0,0
12.481,-0.24,0.05,0.38,0,0,0
12.489,-0.24,0.05,0.38,0,0,0
12.49,-0.24,0.05,0.38,0,0,0
12.491,-0.24,0.05,0.38,0,0,0
12.491,-0.24,0.05,0.38,0,0,0
12.497,-0.24,0.05,0.38,0,0,0
12.498,-0.24,0.05,0.38,0,0,0
12.499,-0.24,0.05,0.38,0,0,0
12.499,-0.24,0.05,0.38,0,0,0
12.507,-0.24,0.05,0.38,0,0,0
12.508,-0.24,0.05,0.38,0,0,0
12.509,-0.24,0.05,0.38,0,0,0
12.509,-0.24,0.05,0.38,0,0,0
12.517,-0.24,0.05,0.38,0,0,0
12.518,-0.24,0.05,0.38,0,0,0
12.519,-0.24,0.05,0.38,0,0,0
12.52,-0.24,0.05,0.38,0,0,0
12.527,-0.24,0.05,0.38,0,0,0
12.528,-0.24,0.05,0.38,0,0,0
12.528,-0.24,0.05,0.38,0,0,0
12.529,-0.24,0.05,0.38,0,0,0
12.538,-0.24,0.05,0.38,0,0,0
12.539,-0.24,0.05,0.38,0,0,0
12.539,-0.24,0.05,0.38,0,0,0
12.54,-0.24,0.05,0.38,0,0,0
12.546,-0.24,0.05,0.38,0,0,0
12.546,-0.24,0.05,0.38,0,0,0
12.546,-0.24,0.05,0.38,0,0,0
12.547,-0.24,0.05,0.38,0,0,0
12.563,-0.24,0.05,0.38,0,0,0
12.564,-0.24,0.05,0.38,0,0,0
12.564,-0.24,0.05,0.38,0,0,0
12.564,-0.24,0.05,0.38,0,0,0
12.565,-0.24,0.05,0.38,0,0,0
12.565,-0.24,0.05,0.38,0,0,0
12.565,-0.24,0.05,0.38,0,0,0
12.566,-0.24,0.05,0.38,0,0,0
12.574,-0.24,0.05,0.38,0,0,0
12.575,-0.24,0.05,0.38,0,0,0
12.576,-0.24,0.05,0.38,0,0,0
12.576,-0.24,0.05,0.38,0,0,0
12.583,-0.24,0.05,0.38,0,0,0
12.584,-0.24,0.05,0.38,0,0,0
12.584,-0.24,0.05,0.38,0,0,0
12.585,-0.24,0.05,0.38,0,0,0
12.593,-0.24,0.05,0.38,0,0,0
12.594,-0.24,0.05,0.38,0,0,0
12.595,-0.24,0.05,0.38,0,0,0
12.595,-0.24,0.05,0.38,0,0,0
12.603,-0.24,0.05,0.38,0,0,0
12.605,-0.24,0.05,0.38,0,0,0
12.605,-0.24,0.05,0.38,0,0,0
12.606,-0.24,0.05,0.38,0,0,0
12.614,-0.24,0.05,0.38,0,0,0
12.615,-0.24,0.05,0.38,0,0,0
12.616,-0.24,0.05,0.38,0,0,0
12.616,-0.24,0.05,0.38,0,0,0
12.623,-0.24,0.05,0.38,0,0,0
12.624,-0.24,0.05,0.38,0,0,0
12.625,-0.24,0.05,0.38,0,0,0
12.626,-0.24,0.05,0.38,0,0,0
12.632,-0.24,0.05,0.38,0,0,0
12.634,-0.24,0.05,0.38,0,0,0
12.635,-0.24,0.05,0.38,0,0,0
12.636,-0.24,0.05,0.38,0,0,0
12.641,-0.24,0.05,0.38,0,0,0
12.643,-0.24,0.05,0.38,0,0,0
12.644,-0.24,0.05,0.38,0,0,0
12.644,-0.24,0.05,0.38,0,0,0
12.656,-0.24,0.05,0.38,0,0,0
12.658,-0.24,0.05,0.38,0,0,0
12.659,-0.24,0.05,0.38,0,0,0
12.659,-0.24,0.05,0.38,0,0,0
12.66,-0.24,0.05,0.38,0,0,0
12.661,-0.24,0.05,0.38,0,0,0
12.661,-0.24,0.05,0.38,0,0,0
12.662,-0.24,0.05,0.38,0,0,0
12.678,-0.24,0.05,0.38,0,0,0
12.678,-0.24,0.05,0.38,0,0,0
12.679,-0.24,0.05,0.38,0,0,0
12.679,-0.24,0.05,0.38,0,0,0
12.679,-0.24,0.05,0.38,0,0,0
12.68,-0.24,0.05,0.38,0,0,0
12.68,-0.24,0.05,0.38,0,0,0
12.68,-0.24,0.05,0.38,0,0,0
12.688,-0.24,0.05,0.38,0,0,0
12.689,-0.24,0.05,0.38,0,0,0
12.69,-0.24,0.05,0.38,0,0,0
12.69,-0.24,0.05,0.38,0,0,0
12.698,-0.24,0.05,0.38,0,0,0
12.699,-0.24,0.05,0.38,0,0,0
12.7,-0.24,0.05,0.38,0,0,0
12.7,-0.24,0.05,0.38,0,0,0
12.707,-0.24,0.05,0.38,0,0,0
12.708,-0.24,0.05,0.38,0,0,0
12.709,-0.24,0.05,0.38,0,0,0
12.709,-0.24,0.05,0.38,0,0,0
12.717,-0.24,0.05,0.38,0,0,0
12.718,-0.24,0.05,0.38,0,0,0
12.719,-0.24,0.05,0.38,0,0,0
12.72,-0.24,0.05,0.38,0,0,0
12.727,-0.24,0.05,0.38,0,0,0
12.728,-0.24,0.05,0.38,0,0,0
12.728,-0.24,0.05,0.38,0,0,0
12.729,-0.24,0.05,0.38,0,0,0
12.736,-0.24,0.05,0.38,0,0,0
12.737,-0.24,0.05,0.38,0,0,0
12.738,-0.24,0.05,0.38,0,0,0
12.738,-0.24,0.05,0.38,0,0,0
12.746,-0.24,0.05,0.38,0,0,0
12.747,-0.24,0.05,0.38,0,0,0
12.748,-0.24,0.05,0.38,0,0,0
12.749,-0.24,0.05,0.38,0,0,0
12.755,-0.24,0.05,0.38,0,0,0
12.756,-0.24,0.05,0.38,0,0,0
12.756,-0.24,0.05,0.38,0,0,0
12.757,-0.24,0.05,0.38,0,0,0
12.765,-0.24,0.05,0.38,0,0,0
12.765,-0.24,0.05,0.38,0,0,0
12.766,-0.24,0.05,0.38,0,0,0
12.766,-0.24,0.05,0.38,0,0,0
12.775,-0.24,0.05,0.38,0,0,0
12.776,-0.24,0.05,0.38,0,0,0
12.776,-0.24,0.05,0.38,0,0,0
12.777,-0.24,0.05,0.38,0,0,0
12.784,-0.24,0.05,0.38,0,0,0
12.785,-0.24,0.05,0.38,0,0,0
12.786,-0.24,0.05,0.38,0,0,0
12.786,-0.24,0.05,0.38,0,0,0
12.794,-0.24,0.05,0.38,0,0,0
12.794,-0.24,0.05,0.38,0,0,0
12.795,-0.24,0.05,0.38,0,0,0
12.795,-0.24,0.05,0.38,0,0,0
12.802,-0.24,0.05,0.38,0,0,0
12.804,-0.24,0.05,0.38,0,0,0
12.805,-0.24,0.05,0.38,0,0,0
12.806,-0.24,0.05,0.38,0,0,0
12.812,-0.24,0.05,0.38,0,0,0
12.813,-0.24,0.05,0.38,0,0,0
12.813,-0.24,0.05,0.38,0,0,0
12.814,-0.24,0.05,0.38,0,0,0
12.822,-0.24,0.05,0.38,0,0,0
12.822,-0.24,0.05,0.38,0,0,0
12.823,-0.24,0.05,0.38,0,0,0
12.823,-0.24,0.05,0.38,0,0,0
12.836,-0.24,0.05,0.38,0,0,0
12.837,-0.24,0.05,0.38,0,0,0
12.837,-0.24,0.05,0.38,0,0,0
12.838,-0.24,0.05,0.38,0,0,0
12.841,-0.24,0.05,0.38,0,0,0
12.841,-0.24,0.05,0.38,0,0,0
12.842,-0.24,0.05,0.38,0,0,0
12.842,-0.24,0.05,0.38,0,0,0
12.858,-0.24,0.05,0.38,0,0,0
12.858,-0.24,0.05,0.38,0,0,0
12.859,-0.24,0.05,0.38,0,0,0
12.859,-0.24,0.05,0.38,0,0,0
12.862,-0.24,0.05,0.38,0,0,0
12.863,-0.24,0.05,0.38,0,0,0
12.863,-0.24,0.05,0.38,0,0,0
12.863,-0.24,0.05,0.38,0,0,0
12.87,-0.24,0.05,0.38,0,0,0
12.871,-0.24,0.05,0.38,0,0,0
12.871,-0.24,0.05,0.38,0,0,0
12.871,-0.24,0.05,0.38,0,0,0
12.879,-0.24,0.05,0.38,0,0,0
12.88,-0.24,0.05,0.38,0,0,0
12.88,-0.24,0.05,0.38,0,0,0
12.881,-0.24,0.05,0.38,0,0,0
12.889,-0.24,0.05,0.38,0,0,0
12.89,-0.24,0.05,0.38,0,0,0
12.89,-0.24,0.05,0.38,0,0,0
12.891,-0.24,0.05,0.38,0,0,0
12.899,-0.24,0.05,0.38,0,0,0
12.9,-0.24,0.05,0.38,0,0,0
12.9,-0.24,0.05,0.38,0,0,0
12.901,-0.24,0.05,0.38,0,0,0
12.907,-0.24,0.05,0.38,0,0,0
12.908,-0.24,0.05,0.38,0,0,0
12.909,-0.24,0.05,0.38,0,0,0
12.909,-0.24,0.05,0.38,0,0,0
12.918,-0.24,0.05,0.38,0,0,0
12.918,-0.24,0.05,0.38,0,0,0
12.918,-0.24,0.05,0.38,0,0,0
12.919,-0.24,0.05,0.38,0,0,0
12.928,-0.24,0.05,0.38,0,0,0
12.928,-0.24,0.05,0.38,0,0,0
12.929,-0.24,0.05,0.38,0,0,0
12.93,-0.24,0.05,0.38,0,0,0
12.939,-0.24,0.05,0.38,0,0,0
12.94,-0.24,0.05,0.38,0,0,0
12.94,-0.24,0.05,0.38,0,0,0
12.941,-0.24,0.05,0.38,0,0,0
12.964,-0.24,0.05,0.38,0,0,0
12.965,-0.24,0.05,0.38,0,0,0
12.966,-0.24,0.05,0.38,0,0,0
12.966,-0.24,0.05,0.38,0,0,0
12.966,-0.24,0.05,0.38,0,0,0
12.966,-0.24,0.05,0.38,0,0,0
12.967,-0.24,0.05,0.38,0,0,0
12.967,-0.24,0.05,0.38,0,0,0
12.967,-0.24,0.05,0.38,0,0,0
12.967,-0.24,0.05,0.38,0,0,0
12.968,-0.24,0.05,0.38,0,0,0
12.968,-0.24,0.05,0.38,0,0,0
12.975,-0.24,0.05,0.38,0,0,0
12.975,-0.24,0.05,0.38,0,0,0
12.976,-0.24,0.05,0.38,0,0,0
12.976,-0.24,0.05,0.38,0,0,0
12.983,-0.24,0.05,0.38,0,0,0
12.984,-0.24,0.05,0.38,0,0,0
12.984,-0.24,0.05,0.38,0,0,0
12.985,-0.24,0.05,0.38,0,0,0
12.994,-0.24,0.05,0.38,0,0,0
12.995,-0.24,0.05,0.38,0,0,0
12.995,-0.24,0.05,0.38,0,0,0
12.996,-0.24,0.05,0.38,0,0,0
13.003,-0.24,0.05,0.38,0,0,0
13.004,-0.24,0.05,0.38,0,0,0
13.005,-0.24,0.05,0.38,0,0,0
13.005,-0.24,0.05,0.38,0,0,0
13.014,-0.24,0.05,0.38,0,0,0
13.015,-0.24,0.05,0.38,0,0,0
13.015,-0.24,0.05,0.38,0,0,0
13.016,-0.24,0.05,0.38,0,0,0
13.022,-0.24,0.05,0.38,0,0,0
13.022,-0.24,0.05,0.38,0,0,0
13.023,-0.24,0.05,0.38,0,0,0
13.023,-0.24,0.05,0.38,0,0,0
13.031,-0.24,0.05,0.38,0,0,0
13.032,-0.24,0.05,0.38,0,0,0
13.032,-0.24,0.05,0.38,0,0,0
13.033,-0.24,0.05,0.38,0,0,0
13.041,-0.24,0.05,0.38,0,0,0
13.042,-0.24,0.05,0.38,0,0,0
13.043,-0.24,0.05,0.38,0,0,0
13.043,-0.24,0.05,0.38,0,0,0
13.053,-0.24,0.05,0.38,0,0,0
13.054,-0.24,0.05,0.38,0,0,0
13.054,-0.24,0.05,0.38,0,0,0
