
time,ax,ay,az,wx,wy,wz,
0.002,0.06,0.20,0.98,0.11,0.09,-0.01,
0.002,0.06,0.20,0.98,0.11,0.09,-0.01,
0.003,0.08,0.19,0.97,0.11,0.09,-0.01,
0.003,0.08,0.19,0.97,0.11,0.09,-0.01,
0.007,0.08,0.19,0.97,0.09,0.11,-0.01,
0.007,0.08,0.19,0.97,0.09,0.11,-0.01,
0.008,0.02,0.14,0.68,0.09,0.11,-0.01,
0.008,0.02,0.14,0.68,0.09,0.11,-0.01,
0.016,0.02,0.14,0.68,0.06,0.09,-0.01,
0.016,0.02,0.14,0.68,0.06,0.09,-0.01,
0.016,-0.06,0.04,0.29,0.06,0.09,-0.01,
0.017,-0.06,0.04,0.29,0.06,0.09,-0.01,
0.029,-0.06,0.04,0.29,0.03,0.07,-0.01,
0.03,-0.06,0.04,0.29,0.03,0.07,-0.01,
0.03,-0.13,-0.08,-0.03,0.03,0.07,-0.01,
0.03,-0.13,-0.08,-0.03,0.03,0.07,-0.01,
0.034,-0.13,-0.08,-0.03,0.00,0.07,-0.01,
0.035,-0.13,-0.08,-0.03,0.00,0.07,-0.01,
0.035,-0.16,-0.16,-0.22,0.00,0.07,-0.01,
0.035,-0.16,-0.16,-0.22,0.00,0.07,-0.01,
0.044,-0.16,-0.16,-0.22,-0.03,0.08,-0.00,
0.045,-0.16,-0.16,-0.22,-0.03,0.08,-0.00,
0.045,-0.09,-0.18,-0.20,-0.03,0.08,-0.00,
0.046,-0.09,-0.18,-0.20,-0.03,0.08,-0.00,
0.062,-0.09,-0.18,-0.20,-0.06,0.10,0.01,
0.063,-0.09,-0.18,-0.20,-0.06,0.10,0.01,
0.063,0.03,-0.13,-0.01,-0.06,0.10,0.01,
0.064,0.03,-0.13,-0.01,-0.06,0.10,0.01,
0.064,0.03,-0.13,-0.01,-0.10,0.11,0.02,
0.065,0.03,-0.13,-0.01,-0.10,0.11,0.02,
0.065,0.20,-0.03,0.22,-0.10,0.11,0.02,
0.066,0.20,-0.03,0.22,-0.10,0.11,0.02,
0.073,0.20,-0.03,0.22,-0.12,0.09,0.02,
0.073,0.20,-0.03,0.22,-0.12,0.09,0.02,
0.074,0.37,0.06,0.43,-0.12,0.09,0.02,
0.074,0.37,0.06,0.43,-0.12,0.09,0.02,
0.083,0.37,0.06,0.43,-0.12,0.04,0.01,
0.083,0.37,0.06,0.43,-0.12,0.04,0.01,
0.084,0.49,0.11,0.53,-0.12,0.04,0.01,
0.084,0.49,0.11,0.53,-0.12,0.04,0.01,
0.095,0.49,0.11,0.53,-0.12,0.04,0.01,
0.095,0.49,0.11,0.53,-0.12,0.04,0.01,
0.096,0.49,0.11,0.53,-0.12,0.04,0.01,
0.096,0.49,0.11,0.53,-0.12,0.04,0.01,
0.102,0.49,0.11,0.53,-0.11,-0.05,-0.00,
0.102,0.49,0.11,0.53,-0.11,-0.05,-0.00,
0.103,0.44,0.04,0.41,-0.11,-0.05,-0.00,
0.103,0.44,0.04,0.41,-0.11,-0.05,-0.00,
0.111,0.44,0.04,0.41,-0.09,-0.16,-0.02,
0.112,0.44,0.04,0.41,-0.09,-0.16,-0.02,
0.112,0.32,-0.02,0.25,-0.09,-0.16,-0.02,
0.113,0.32,-0.02,0.25,-0.09,-0.16,-0.02,
0.121,0.32,-0.02,0.25,-0.06,-0.25,-0.05,
0.121,0.32,-0.02,0.25,-0.06,-0.25,-0.05,
0.122,0.17,-0.08,0.05,-0.06,-0.25,-0.05,
0.122,0.17,-0.08,0.05,-0.06,-0.25,-0.05,
0.13,0.17,-0.08,0.05,-0.05,-0.29,-0.07,
0.13,0.17,-0.08,0.05,-0.05,-0.29,-0.07,
0.131,0.02,-0.10,-0.15,-0.05,-0.29,-0.07,
0.131,0.02,-0.10,-0.15,-0.05,-0.29,-0.07,
0.139,0.02,-0.10,-0.15,-0.04,-0.28,-0.08,
0.14,0.02,-0.10,-0.15,-0.04,-0.28,-0.08,
0.14,-0.09,-0.12,-0.29,-0.04,-0.28,-0.08,
0.141,-0.09,-0.12,-0.29,-0.04,-0.28,-0.08,
0.148,-0.09,-0.12,-0.29,-0.05,-0.22,-0.06,
0.149,-0.09,-0.12,-0.29,-0.05,-0.22,-0.06,
0.15,-0.17,-0.12,-0.37,-0.05,-0.22,-0.06,
0.15,-0.17,-0.12,-0.37,-0.05,-0.22,-0.06,
0.167,-0.17,-0.12,-0.37,-0.05,-0.13,-0.04,
0.168,-0.17,-0.12,-0.37,-0.05,-0.13,-0.04,
0.169,-0.24,-0.13,-0.37,-0.05,-0.13,-0.04,
0.169,-0.24,-0.13,-0.37,-0.05,-0.13,-0.04,
0.17,-0.24,-0.13,-0.37,-0.04,-0.02,-0.00,
0.17,-0.24,-0.13,-0.37,-0.04,-0.02,-0.00,
0.171,-0.28,-0.14,-0.32,-0.04,-0.02,-0.00,
0.171,-0.28,-0.14,-0.32,-0.04,-0.02,-0.00,
0.18,-0.28,-0.14,-0.32,-0.04,0.09,0.02,
0.181,-0.28,-0.14,-0.32,-0.04,0.09,0.02,
0.182,-0.29,-0.18,-0.29,-0.04,0.09,0.02,
0.182,-0.29,-0.18,-0.29,-0.04,0.09,0.02,
0.195,-0.29,-0.18,-0.29,-0.04,0.18,0.05,
0.195,-0.29,-0.18,-0.29,-0.04,0.18,0.05,
0.196,-0.28,-0.25,-0.24,-0.04,0.18,0.05,
0.196,-0.28,-0.25,-0.24,-0.04,0.18,0.05,
0.196,-0.28,-0.25,-0.24,-0.04,0.25,0.07,
0.196,-0.28,-0.25,-0.24,-0.04,0.25,0.07,
0.197,-0.25,-0.32,-0.16,-0.04,0.25,0.07,
0.197,-0.25,-0.32,-0.16,-0.04,0.25,0.07,
0.206,-0.25,-0.32,-0.16,-0.06,0.29,0.08,
0.207,-0.25,-0.32,-0.16,-0.06,0.29,0.08,
0.207,-0.21,-0.36,-0.01,-0.06,0.29,0.08,
0.207,-0.21,-0.36,-0.01,-0.06,0.29,0.08,
0.215,-0.21,-0.36,-0.01,-0.10,0.31,0.10,
0.216,-0.21,-0.36,-0.01,-0.10,0.31,0.10,
0.217,-0.15,-0.33,0.25,-0.10,0.31,0.10,
0.217,-0.15,-0.33,0.25,-0.10,0.31,0.10,
0.226,-0.15,-0.33,0.25,-0.14,0.30,0.12,
0.227,-0.15,-0.33,0.25,-0.14,0.30,0.12,
0.227,-0.03,-0.23,0.57,-0.14,0.30,0.12,
0.228,-0.03,-0.23,0.57,-0.14,0.30,0.12,
0.235,-0.03,-0.23,0.57,-0.17,0.27,0.14,
0.236,-0.03,-0.23,0.57,-0.17,0.27,0.14,
0.236,0.08,-0.13,0.89,-0.17,0.27,0.14,
0.237,0.08,-0.13,0.89,-0.17,0.27,0.14,
0.244,0.08,-0.13,0.89,-0.19,0.22,0.16,
0.245,0.08,-0.13,0.89,-0.19,0.22,0.16,
0.246,0.21,-0.08,1.11,-0.19,0.22,0.16,
0.246,0.21,-0.08,1.11,-0.19,0.22,0.16,
0.257,0.21,-0.08,1.11,-0.19,0.13,0.14,
0.258,0.21,-0.08,1.11,-0.19,0.13,0.14,
0.258,0.31,-0.07,1.15,-0.19,0.13,0.14,
0.258,0.31,-0.07,1.15,-0.19,0.13,0.14,
0.263,0.31,-0.07,1.15,-0.17,0.03,0.09,
0.263,0.31,-0.07,1.15,-0.17,0.03,0.09,
0.264,0.37,-0.10,1.02,-0.17,0.03,0.09,
0.264,0.37,-0.10,1.02,-0.17,0.03,0.09,
0.282,0.37,-0.10,1.02,-0.14,-0.07,0.04,
0.282,0.37,-0.10,1.02,-0.14,-0.07,0.04,
0.283,0.39,-0.13,0.78,-0.14,-0.07,0.04,
0.283,0.39,-0.13,0.78,-0.14,-0.07,0.04,
0.283,0.39,-0.13,0.78,-0.12,-0.17,-0.01,
0.284,0.39,-0.13,0.78,-0.12,-0.17,-0.01,
0.285,0.42,-0.15,0.46,-0.12,-0.17,-0.01,
0.285,0.42,-0.15,0.46,-0.12,-0.17,-0.01,
0.292,0.42,-0.15,0.46,-0.12,-0.17,-0.01,
0.293,0.42,-0.15,0.46,-0.12,-0.17,-0.01,
0.293,0.42,-0.15,0.46,-0.12,-0.17,-0.01,
0.294,0.42,-0.15,0.46,-0.12,-0.17,-0.01,
0.302,0.42,-0.15,0.46,-0.10,-0.25,-0.03,
0.303,0.42,-0.15,0.46,-0.10,-0.25,-0.03,
0.304,0.46,-0.24,-0.17,-0.10,-0.25,-0.03,
0.305,0.46,-0.24,-0.17,-0.10,-0.25,-0.03,
0.31,0.46,-0.24,-0.17,-0.09,-0.31,-0.04,
0.312,0.46,-0.24,-0.17,-0.09,-0.31,-0.04,
0.312,0.52,-0.28,-0.41,-0.09,-0.31,-0.04,
0.313,0.52,-0.28,-0.41,-0.09,-0.31,-0.04,
0.321,0.52,-0.28,-0.41,-0.07,-0.35,-0.05,
0.322,0.52,-0.28,-0.41,-0.07,-0.35,-0.05,
0.323,0.56,-0.28,-0.53,-0.07,-0.35,-0.05,
0.323,0.56,-0.28,-0.53,-0.07,-0.35,-0.05,
0.33,0.56,-0.28,-0.53,-0.06,-0.39,-0.07,
0.331,0.56,-0.28,-0.53,-0.06,-0.39,-0.07,
0.331,0.68,-0.25,-0.49,-0.06,-0.39,-0.07,
0.332,0.68,-0.25,-0.49,-0.06,-0.39,-0.07,
0.339,0.68,-0.25,-0.49,-0.06,-0.42,-0.09,
0.34,0.68,-0.25,-0.49,-0.06,-0.42,-0.09,
0.34,0.82,-0.24,-0.31,-0.06,-0.42,-0.09,
0.341,0.82,-0.24,-0.31,-0.06,-0.42,-0.09,
0.348,0.82,-0.24,-0.31,-0.05,-0.47,-0.12,
0.351,0.82,-0.24,-0.31,-0.05,-0.47,-0.12,
0.352,0.97,-0.25,-0.11,-0.05,-0.47,-0.12,
0.352,0.97,-0.25,-0.11,-0.05,-0.47,-0.12,
0.364,0.97,-0.25,-0.11,-0.05,-0.52,-0.14,
0.365,0.97,-0.25,-0.11,-0.05,-0.52,-0.14,
0.366,1.12,-0.31,0.08,-0.05,-0.52,-0.14,
0.366,1.12,-0.31,0.08,-0.05,-0.52,-0.14,
0.368,1.12,-0.31,0.08,-0.05,-0.59,-0.16,
0.369,1.12,-0.31,0.08,-0.05,-0.59,-0.16,
0.369,1.17,-0.36,0.23,-0.05,-0.59,-0.16,
0.37,1.17,-0.36,0.23,-0.05,-0.59,-0.16,
0.378,1.17,-0.36,0.23,-0.07,-0.66,-0.18,
0.379,1.17,-0.36,0.23,-0.07,-0.66,-0.18,
0.38,1.11,-0.40,0.28,-0.07,-0.66,-0.18,
0.38,1.11,-0.40,0.28,-0.07,-0.66,-0.18,
0.39,1.11,-0.40,0.28,-0.11,-0.72,-0.20,
0.391,1.11,-0.40,0.28,-0.11,-0.72,-0.20,
0.391,0.96,-0.41,0.34,-0.11,-0.72,-0.20,
0.391,0.96,-0.41,0.34,-0.11,-0.72,-0.20,
0.41,0.96,-0.41,0.34,-0.15,-0.75,-0.20,
0.411,0.96,-0.41,0.34,-0.15,-0.75,-0.20,
0.411,0.72,-0.44,0.40,-0.15,-0.75,-0.20,
0.412,0.72,-0.44,0.40,-0.15,-0.75,-0.20,
0.412,0.72,-0.44,0.40,-0.15,-0.75,-0.20,
0.413,0.72,-0.44,0.40,-0.15,-0.75,-0.20,
0.413,0.72,-0.44,0.40,-0.15,-0.75,-0.20,
0.414,0.72,-0.44,0.40,-0.15,-0.75,-0.20,
0.415,0.72,-0.44,0.40,-0.23,-0.62,-0.17,
0.415,0.72,-0.44,0.40,-0.23,-0.62,-0.17,
0.416,0.29,-0.62,0.44,-0.23,-0.62,-0.17,
0.416,0.29,-0.62,0.44,-0.23,-0.62,-0.17,
0.425,0.29,-0.62,0.44,-0.27,-0.45,-0.13,
0.426,0.29,-0.62,0.44,-0.27,-0.45,-0.13,
0.426,0.18,-0.74,0.44,-0.27,-0.45,-0.13,
0.427,0.18,-0.74,0.44,-0.27,-0.45,-0.13,
0.434,0.18,-0.74,0.44,-0.32,-0.24,-0.09,
0.434,0.18,-0.74,0.44,-0.32,-0.24,-0.09,
0.435,0.11,-0.80,0.47,-0.32,-0.24,-0.09,
0.436,0.11,-0.80,0.47,-0.32,-0.24,-0.09,
0.443,0.11,-0.80,0.47,-0.37,-0.05,-0.05,
0.444,0.11,-0.80,0.47,-0.37,-0.05,-0.05,
0.445,0.09,-0.82,0.56,-0.37,-0.05,-0.05,
0.446,0.09,-0.82,0.56,-0.37,-0.05,-0.05,
0.452,0.09,-0.82,0.56,-0.42,0.11,-0.02,
0.453,0.09,-0.82,0.56,-0.42,0.11,-0.02,
0.454,0.10,-0.80,0.67,-0.42,0.11,-0.02,
0.454,0.10,-0.80,0.67,-0.42,0.11,-0.02,
0.462,0.10,-0.80,0.67,-0.46,0.23,0.03,
0.463,0.10,-0.80,0.67,-0.46,0.23,0.03,
0.463,0.16,-0.73,0.80,-0.46,0.23,0.03,
0.464,0.16,-0.73,0.80,-0.46,0.23,0.03,
0.475,0.16,-0.73,0.80,-0.48,0.31,0.08,
0.476,0.16,-0.73,0.80,-0.48,0.31,0.08,
0.476,0.24,-0.65,0.91,-0.48,0.31,0.08,
0.477,0.24,-0.65,0.91,-0.48,0.31,0.08,
0.482,0.24,-0.65,0.91,-0.47,0.34,0.12,
0.482,0.24,-0.65,0.91,-0.47,0.34,0.12,
0.483,0.35,-0.54,0.97,-0.47,0.34,0.12,
0.483,0.35,-0.54,0.97,-0.47,0.34,0.12,
0.492,0.35,-0.54,0.97,-0.47,0.34,0.12,
0.493,0.35,-0.54,0.97,-0.47,0.34,0.12,
0.493,0.35,-0.54,0.97,-0.47,0.34,0.12,
0.494,0.35,-0.54,0.97,-0.47,0.34,0.12,
0.501,0.35,-0.54,0.97,-0.44,0.33,0.12,
0.502,0.35,-0.54,0.97,-0.44,0.33,0.12,
0.502,0.63,-0.34,0.90,-0.44,0.33,0.12,
0.503,0.63,-0.34,0.90,-0.44,0.33,0.12,
0.511,0.63,-0.34,0.90,-0.38,0.27,0.08,
0.512,0.63,-0.34,0.90,-0.38,0.27,0.08,
0.513,0.74,-0.21,0.76,-0.38,0.27,0.08,
0.514,0.74,-0.21,0.76,-0.38,0.27,0.08,
0.52,0.74,-0.21,0.76,-0.29,0.17,0.00,
0.521,0.74,-0.21,0.76,-0.29,0.17,0.00,
0.522,0.78,-0.09,0.61,-0.29,0.17,0.00,
0.522,0.78,-0.09,0.61,-0.29,0.17,0.00,
0.529,0.78,-0.09,0.61,-0.18,0.03,-0.11,
0.53,0.78,-0.09,0.61,-0.18,0.03,-0.11,
0.531,0.76,0.02,0.51,-0.18,0.03,-0.11,
0.531,0.76,0.02,0.51,-0.18,0.03,-0.11,
0.539,0.76,0.02,0.51,-0.06,-0.11,-0.23,
0.539,0.76,0.02,0.51,-0.06,-0.11,-0.23,
0.54,0.69,0.08,0.44,-0.06,-0.11,-0.23,
0.541,0.69,0.08,0.44,-0.06,-0.11,-0.23,
0.549,0.69,0.08,0.44,0.05,-0.23,-0.33,
0.549,0.69,0.08,0.44,0.05,-0.23,-0.33,
0.55,0.59,0.10,0.42,0.05,-0.23,-0.33,
0.551,0.59,0.10,0.42,0.05,-0.23,-0.33,
0.559,0.59,0.10,0.42,0.16,-0.31,-0.39,
0.56,0.59,0.10,0.42,0.16,-0.31,-0.39,
0.561,0.53,0.09,0.47,0.16,-0.31,-0.39,
0.562,0.53,0.09,0.47,0.16,-0.31,-0.39,
0.568,0.53,0.09,0.47,0.24,-0.34,-0.41,
0.569,0.53,0.09,0.47,0.24,-0.34,-0.41,
0.569,0.50,0.06,0.51,0.24,-0.34,-0.41,
0.569,0.50,0.06,0.51,0.24,-0.34,-0.41,
0.577,0.50,0.06,0.51,0.29,-0.33,-0.40,
0.578,0.50,0.06,0.51,0.29,-0.33,-0.40,
0.579,0.49,0.02,0.53,0.29,-0.33,-0.40,
0.579,0.49,0.02,0.53,0.29,-0.33,-0.40,
0.588,0.49,0.02,0.53,0.31,-0.30,-0.37,
0.589,0.49,0.02,0.53,0.31,-0.30,-0.37,
0.589,0.48,-0.02,0.55,0.31,-0.30,-0.37,
0.59,0.48,-0.02,0.55,0.31,-0.30,-0.37,
0.598,0.48,-0.02,0.55,0.30,-0.26,-0.33,
0.598,0.48,-0.02,0.55,0.30,-0.26,-0.33,
0.599,0.48,-0.03,0.49,0.30,-0.26,-0.33,
0.6,0.48,-0.03,0.49,0.30,-0.26,-0.33,
0.606,0.48,-0.03,0.49,0.27,-0.23,-0.31,
0.607,0.48,-0.03,0.49,0.27,-0.23,-0.31,
0.608,0.43,-0.03,0.45,0.27,-0.23,-0.31,
0.609,0.43,-0.03,0.45,0.27,-0.23,-0.31,
0.615,0.43,-0.03,0.45,0.22,-0.20,-0.30,
0.616,0.43,-0.03,0.45,0.22,-0.20,-0.30,
0.616,0.34,-0.02,0.43,0.22,-0.20,-0.30,
0.617,0.34,-0.02,0.43,0.22,-0.20,-0.30,
0.624,0.34,-0.02,0.43,0.17,-0.18,-0.31,
0.626,0.34,-0.02,0.43,0.17,-0.18,-0.31,
0.626,0.23,0.01,0.46,0.17,-0.18,-0.31,
0.627,0.23,0.01,0.46,0.17,-0.18,-0.31,
0.634,0.23,0.01,0.46,0.13,-0.16,-0.31,
0.635,0.23,0.01,0.46,0.13,-0.16,-0.31,
0.635,0.10,0.04,0.54,0.13,-0.16,-0.31,
0.636,0.10,0.04,0.54,0.13,-0.16,-0.31,
0.643,0.10,0.04,0.54,0.10,-0.12,-0.29,
0.645,0.10,0.04,0.54,0.10,-0.12,-0.29,
0.645,0.03,0.04,0.60,0.10,-0.12,-0.29,
0.646,0.03,0.04,0.60,0.10,-0.12,-0.29,
0.658,0.03,0.04,0.60,0.08,-0.06,-0.27,
0.659,0.03,0.04,0.60,0.08,-0.06,-0.27,
0.659,0.01,0.05,0.65,0.08,-0.06,-0.27,
0.66,0.01,0.05,0.65,0.08,-0.06,-0.27,
0.662,0.01,0.05,0.65,0.06,0.01,-0.24,
0.663,0.01,0.05,0.65,0.06,0.01,-0.24,
0.663,-0.00,0.03,0.65,0.06,0.01,-0.24,
0.664,-0.00,0.03,0.65,0.06,0.01,-0.24,
0.678,-0.00,0.03,0.65,0.05,0.08,-0.22,
0.679,-0.00,0.03,0.65,0.05,0.08,-0.22,
0.679,-0.07,-0.01,0.58,0.05,0.08,-0.22,
0.679,-0.07,-0.01,0.58,0.05,0.08,-0.22,
0.682,-0.07,-0.01,0.58,0.03,0.13,-0.20,
0.683,-0.07,-0.01,0.58,0.03,0.13,-0.20,
0.683,-0.16,-0.07,0.48,0.03,0.13,-0.20,
0.683,-0.16,-0.07,0.48,0.03,0.13,-0.20,
0.691,-0.16,-0.07,0.48,0.03,0.13,-0.20,
0.692,-0.16,-0.07,0.48,0.03,0.13,-0.20,
0.693,-0.16,-0.07,0.48,0.03,0.13,-0.20,
0.693,-0.16,-0.07,0.48,0.03,0.13,-0.20,
0.7,-0.16,-0.07,0.48,0.01,0.16,-0.20,
0.701,-0.16,-0.07,0.48,0.01,0.16,-0.20,
0.702,-0.32,-0.17,0.27,0.01,0.16,-0.20,
0.702,-0.32,-0.17,0.27,0.01,0.16,-0.20,
0.712,-0.32,-0.17,0.27,-0.02,0.19,-0.20,
0.713,-0.32,-0.17,0.27,-0.02,0.19,-0.20,
0.713,-0.34,-0.19,0.22,-0.02,0.19,-0.20,
0.714,-0.34,-0.19,0.22,-0.02,0.19,-0.20,
0.72,-0.34,-0.19,0.22,-0.06,0.23,-0.21,
0.723,-0.34,-0.19,0.22,-0.06,0.23,-0.21,
0.724,-0.34,-0.17,0.21,-0.06,0.23,-0.21,
0.724,-0.34,-0.17,0.21,-0.06,0.23,-0.21,
0.729,-0.34,-0.17,0.21,-0.10,0.27,-0.22,
0.73,-0.34,-0.17,0.21,-0.10,0.27,-0.22,
0.73,-0.35,-0.11,0.22,-0.10,0.27,-0.22,
0.731,-0.35,-0.11,0.22,-0.10,0.27,-0.22,
0.738,-0.35,-0.11,0.22,-0.13,0.30,-0.22,
0.738,-0.35,-0.11,0.22,-0.13,0.30,-0.22,
0.739,-0.38,-0.13,0.19,-0.13,0.30,-0.22,
0.739,-0.38,-0.13,0.19,-0.13,0.30,-0.22,
0.748,-0.38,-0.13,0.19,-0.14,0.32,-0.21,
0.75,-0.38,-0.13,0.19,-0.14,0.32,-0.21,
0.751,-0.44,-0.13,0.13,-0.14,0.32,-0.21,
0.751,-0.44,-0.13,0.13,-0.14,0.32,-0.21,
0.76,-0.44,-0.13,0.13,-0.14,0.33,-0.21,
0.761,-0.44,-0.13,0.13,-0.14,0.33,-0.21,
0.762,-0.51,-0.14,0.05,-0.14,0.33,-0.21,
0.763,-0.51,-0.14,0.05,-0.14,0.33,-0.21,
0.767,-0.51,-0.14,0.05,-0.14,0.33,-0.22,
0.767,-0.51,-0.14,0.05,-0.14,0.33,-0.22,
0.768,-0.61,-0.18,-0.02,-0.14,0.33,-0.22,
0.768,-0.61,-0.18,-0.02,-0.14,0.33,-0.22,
0.777,-0.61,-0.18,-0.02,-0.13,0.33,-0.23,
0.778,-0.61,-0.18,-0.02,-0.13,0.33,-0.23,
0.778,-0.71,-0.24,-0.03,-0.13,0.33,-0.23,
0.778,-0.71,-0.24,-0.03,-0.13,0.33,-0.23,
0.787,-0.71,-0.24,-0.03,-0.12,0.34,-0.23,
0.788,-0.71,-0.24,-0.03,-0.12,0.34,-0.23,
0.788,-0.79,-0.31,0.02,-0.12,0.34,-0.23,
0.789,-0.79,-0.31,0.02,-0.12,0.34,-0.23,
0.796,-0.79,-0.31,0.02,-0.13,0.37,-0.21,
0.797,-0.79,-0.31,0.02,-0.13,0.37,-0.21,
0.798,-0.84,-0.36,0.12,-0.13,0.37,-0.21,
0.798,-0.84,-0.36,0.12,-0.13,0.37,-0.21,
0.806,-0.84,-0.36,0.12,-0.14,0.41,-0.18,
0.807,-0.84,-0.36,0.12,-0.14,0.41,-0.18,
0.807,-0.88,-0.41,0.25,-0.14,0.41,-0.18,
0.808,-0.88,-0.41,0.25,-0.14,0.41,-0.18,
0.815,-0.88,-0.41,0.25,-0.17,0.45,-0.14,
0.816,-0.88,-0.41,0.25,-0.17,0.45,-0.14,
0.817,-0.90,-0.42,0.36,-0.17,0.45,-0.14,
0.817,-0.90,-0.42,0.36,-0.17,0.45,-0.14,
0.824,-0.90,-0.42,0.36,-0.21,0.48,-0.09,
0.825,-0.90,-0.42,0.36,-0.21,0.48,-0.09,
0.826,-0.90,-0.42,0.44,-0.21,0.48,-0.09,
0.827,-0.90,-0.42,0.44,-0.21,0.48,-0.09,
0.834,-0.90,-0.42,0.44,-0.24,0.49,-0.07,
0.835,-0.90,-0.42,0.44,-0.24,0.49,-0.07,
0.836,-0.91,-0.41,0.47,-0.24,0.49,-0.07,
0.836,-0.91,-0.41,0.47,-0.24,0.49,-0.07,
0.844,-0.91,-0.41,0.47,-0.26,0.49,-0.06,
0.846,-0.91,-0.41,0.47,-0.26,0.49,-0.06,
0.847,-0.90,-0.41,0.47,-0.26,0.49,-0.06,
0.847,-0.90,-0.41,0.47,-0.26,0.49,-0.06,
0.859,-0.90,-0.41,0.47,-0.27,0.47,-0.06,
0.86,-0.90,-0.41,0.47,-0.27,0.47,-0.06,
0.861,-0.90,-0.38,0.46,-0.27,0.47,-0.06,
0.861,-0.90,-0.38,0.46,-0.27,0.47,-0.06,
0.863,-0.90,-0.38,0.46,-0.27,0.45,-0.06,
0.863,-0.90,-0.38,0.46,-0.27,0.45,-0.06,
0.864,-0.87,-0.31,0.45,-0.27,0.45,-0.06,
0.865,-0.87,-0.31,0.45,-0.27,0.45,-0.06,
0.886,-0.87,-0.31,0.45,-0.25,0.42,-0.05,
0.886,-0.87,-0.31,0.45,-0.25,0.42,-0.05,
0.887,-0.81,-0.28,0.46,-0.25,0.42,-0.05,
0.887,-0.81,-0.28,0.46,-0.25,0.42,-0.05,
0.887,-0.81,-0.28,0.46,-0.25,0.42,-0.05,
0.887,-0.81,-0.28,0.46,-0.25,0.42,-0.05,
0.888,-0.81,-0.28,0.46,-0.25,0.42,-0.05,
0.888,-0.81,-0.28,0.46,-0.25,0.42,-0.05,
0.891,-0.81,-0.28,0.46,-0.22,0.38,-0.03,
0.891,-0.81,-0.28,0.46,-0.22,0.38,-0.03,
0.892,-0.60,-0.21,0.45,-0.22,0.38,-0.03,
0.892,-0.60,-0.21,0.45,-0.22,0.38,-0.03,
0.901,-0.60,-0.21,0.45,-0.18,0.34,-0.02,
0.902,-0.60,-0.21,0.45,-0.18,0.34,-0.02,
0.902,-0.44,-0.18,0.41,-0.18,0.34,-0.02,
0.903,-0.44,-0.18,0.41,-0.18,0.34,-0.02,
0.91,-0.44,-0.18,0.41,-0.13,0.27,-0.05,
0.91,-0.44,-0.18,0.41,-0.13,0.27,-0.05,
0.911,-0.25,-0.11,0.34,-0.13,0.27,-0.05,
0.911,-0.25,-0.11,0.34,-0.13,0.27,-0.05,
0.919,-0.25,-0.11,0.34,-0.08,0.16,-0.12,
0.92,-0.25,-0.11,0.34,-0.08,0.16,-0.12,
0.92,-0.06,-0.05,0.22,-0.08,0.16,-0.12,
0.921,-0.06,-0.05,0.22,-0.08,0.16,-0.12,
0.929,-0.06,-0.05,0.22,-0.02,0.03,-0.20,
0.93,-0.06,-0.05,0.22,-0.02,0.03,-0.20,
0.931,0.13,-0.01,0.01,-0.02,0.03,-0.20,
0.931,0.13,-0.01,0.01,-0.02,0.03,-0.20,
0.939,0.13,-0.01,0.01,0.03,-0.12,-0.28,
0.939,0.13,-0.01,0.01,0.03,-0.12,-0.28,
0.939,0.31,-0.03,-0.29,0.03,-0.12,-0.28,
0.94,0.31,-0.03,-0.29,0.03,-0.12,-0.28,
0.949,0.31,-0.03,-0.29,0.08,-0.27,-0.34,
0.949,0.31,-0.03,-0.29,0.08,-0.27,-0.34,
0.95,0.43,-0.10,-0.72,0.08,-0.27,-0.34,
0.951,0.43,-0.10,-0.72,0.08,-0.27,-0.34,
0.959,0.43,-0.10,-0.72,0.13,-0.43,-0.39,
0.961,0.43,-0.10,-0.72,0.13,-0.43,-0.39,
0.962,0.50,-0.18,-1.24,0.13,-0.43,-0.39,
0.962,0.50,-0.18,-1.24,0.13,-0.43,-0.39,
0.968,0.50,-0.18,-1.24,0.15,-0.58,-0.46,
0.968,0.50,-0.18,-1.24,0.15,-0.58,-0.46,
0.969,0.52,-0.36,-1.79,0.15,-0.58,-0.46,
0.969,0.52,-0.36,-1.79,0.15,-0.58,-0.46,
0.984,0.52,-0.36,-1.79,0.15,-0.70,-0.53,
0.984,0.52,-0.36,-1.79,0.15,-0.70,-0.53,
0.985,0.47,-0.69,-2.20,0.15,-0.70,-0.53,
0.985,0.47,-0.69,-2.20,0.15,-0.70,-0.53,
0.986,0.47,-0.69,-2.20,0.11,-0.80,-0.58,
0.986,0.47,-0.69,-2.20,0.11,-0.80,-0.58,
0.987,0.54,-0.98,-2.27,0.11,-0.80,-0.58,
0.987,0.54,-0.98,-2.27,0.11,-0.80,-0.58,
0.996,0.54,-0.98,-2.27,0.02,-0.86,-0.57,
0.997,0.54,-0.98,-2.27,0.02,-0.86,-0.57,
0.998,0.82,-1.24,-2.04,0.02,-0.86,-0.57,
0.998,0.82,-1.24,-2.04,0.02,-0.86,-0.57,
1.005,0.82,-1.24,-2.04,-0.14,-0.90,-0.49,
1.006,0.82,-1.24,-2.04,-0.14,-0.90,-0.49,
1.007,1.30,-1.45,-1.60,-0.14,-0.90,-0.49,
1.007,1.30,-1.45,-1.60,-0.14,-0.90,-0.49,
1.015,1.30,-1.45,-1.60,-0.36,-0.93,-0.36,
1.016,1.30,-1.45,-1.60,-0.36,-0.93,-0.36,
1.016,2.88,-1.56,-1.09,-0.36,-0.93,-0.36,
1.017,2.88,-1.56,-1.09,-0.36,-0.93,-0.36,
1.027,2.88,-1.56,-1.09,-0.60,-1.06,-0.22,
1.029,2.88,-1.56,-1.09,-0.60,-1.06,-0.22,
1.03,3.40,-1.81,-0.70,-0.60,-1.06,-0.22,
1.03,3.40,-1.81,-0.70,-0.60,-1.06,-0.22,
1.034,3.40,-1.81,-0.70,-0.85,-1.37,-0.11,
1.034,3.40,-1.81,-0.70,-0.85,-1.37,-0.11,
1.035,4.87,-2.11,-0.57,-0.85,-1.37,-0.11,
1.035,4.87,-2.11,-0.57,-0.85,-1.37,-0.11,
1.043,4.87,-2.11,-0.57,-1.07,-1.88,-0.04,
1.044,4.87,-2.11,-0.57,-1.07,-1.88,-0.04,
1.044,5.27,-2.29,-0.77,-1.07,-1.88,-0.04,
1.045,5.27,-2.29,-0.77,-1.07,-1.88,-0.04,
1.058,5.27,-2.29,-0.77,-1.27,-2.50,0.02,
1.059,5.27,-2.29,-0.77,-1.27,-2.50,0.02,
1.059,5.82,-2.26,-2.43,-1.27,-2.50,0.02,
1.06,5.82,-2.26,-2.43,-1.27,-2.50,0.02,
1.067,5.82,-2.26,-2.43,-1.42,-3.14,0.09,
1.068,5.82,-2.26,-2.43,-1.42,-3.14,0.09,
1.068,6.43,-2.03,-3.98,-1.42,-3.14,0.09,
1.068,6.43,-2.03,-3.98,-1.42,-3.14,0.09,
1.072,6.43,-2.03,-3.98,-1.51,-3.74,0.17,
1.073,6.43,-2.03,-3.98,-1.51,-3.74,0.17,
1.073,6.98,-1.75,-5.55,-1.51,-3.74,0.17,
1.073,6.98,-1.75,-5.55,-1.51,-3.74,0.17,
1.081,6.98,-1.75,-5.55,-1.51,-3.74,0.17,
1.082,6.98,-1.75,-5.55,-1.51,-3.74,0.17,
1.083,6.98,-1.75,-5.55,-1.51,-3.74,0.17,
1.083,6.98,-1.75,-5.55,-1.51,-3.74,0.17,
1.09,6.98,-1.75,-5.55,-1.52,-4.37,0.22,
1.091,6.98,-1.75,-5.55,-1.52,-4.37,0.22,
1.092,7.03,-1.88,-6.20,-1.52,-4.37,0.22,
1.092,7.03,-1.88,-6.20,-1.52,-4.37,0.22,
1.101,7.03,-1.88,-6.20,-1.47,-5.05,0.24,
1.102,7.03,-1.88,-6.20,-1.47,-5.05,0.24,
1.103,5.17,-2.32,-4.38,-1.47,-5.05,0.24,
1.103,5.17,-2.32,-4.38,-1.47,-5.05,0.24,
1.11,5.17,-2.32,-4.38,-1.36,-5.64,0.28,
1.111,5.17,-2.32,-4.38,-1.36,-5.64,0.28,
1.111,3.64,-2.77,-1.95,-1.36,-5.64,0.28,
1.112,3.64,-2.77,-1.95,-1.36,-5.64,0.28,
1.13,3.64,-2.77,-1.95,-0.92,-5.13,0.86,
1.132,3.64,-2.77,-1.95,-0.92,-5.13,0.86,
1.132,3.64,-2.77,-1.95,-0.92,-5.13,0.86,
1.133,3.64,-2.77,-1.95,-0.92,-5.13,0.86,
1.133,3.13,-3.05,-1.42,-0.92,-5.13,0.86,
1.134,3.13,-3.05,-1.42,-0.92,-5.13,0.86,
1.135,3.13,-3.05,-1.42,-0.92,-5.13,0.86,
1.135,3.13,-3.05,-1.42,-0.92,-5.13,0.86,
1.138,3.13,-3.05,-1.42,-0.57,-3.91,1.51,
1.139,3.13,-3.05,-1.42,-0.57,-3.91,1.51,
1.14,2.39,-3.60,-3.41,-0.57,-3.91,1.51,
1.141,2.39,-3.60,-3.41,-0.57,-3.91,1.51,
1.147,2.39,-3.60,-3.41,-0.18,-2.61,2.29,
1.148,2.39,-3.60,-3.41,-0.18,-2.61,2.29,
1.148,1.84,-5.11,-5.46,-0.18,-2.61,2.29,
1.149,1.84,-5.11,-5.46,-0.18,-2.61,2.29,
1.157,1.84,-5.11,-5.46,0.08,-1.66,3.14,
1.158,1.84,-5.11,-5.46,0.08,-1.66,3.14,
1.158,0.08,-6.69,-5.77,0.08,-1.66,3.14,
1.159,0.08,-6.69,-5.77,0.08,-1.66,3.14,
1.166,0.08,-6.69,-5.77,0.04,-1.15,4.13,
1.167,0.08,-6.69,-5.77,0.04,-1.15,4.13,
1.167,-0.54,-8.32,-5.75,0.04,-1.15,4.13,
1.168,-0.54,-8.32,-5.75,0.04,-1.15,4.13,
1.176,-0.54,-8.32,-5.75,-0.41,-0.91,5.44,
1.177,-0.54,-8.32,-5.75,-0.41,-0.91,5.44,
1.177,-1.22,-8.80,-5.33,-0.41,-0.91,5.44,
1.178,-1.22,-8.80,-5.33,-0.41,-0.91,5.44,
1.188,-1.22,-8.80,-5.33,-0.58,-0.79,7.07,
1.191,-1.22,-8.80,-5.33,-0.58,-0.79,7.07,
1.192,-1.66,-9.25,-4.79,-0.58,-0.79,7.07,
1.193,-1.66,-9.25,-4.79,-0.58,-0.79,7.07,
1.196,-1.66,-9.25,-4.79,-1.06,-0.69,8.68,
1.197,-1.66,-9.25,-4.79,-1.06,-0.69,8.68,
1.198,-1.66,-9.61,-4.38,-1.06,-0.69,8.68,
1.198,-1.66,-9.61,-4.38,-1.06,-0.69,8.68,
1.204,-1.66,-9.61,-4.38,-2.17,-0.61,9.85,
1.205,-1.66,-9.61,-4.38,-2.17,-0.61,9.85,
1.206,-1.19,-9.82,-4.13,-2.17,-0.61,9.85,
1.206,-1.19,-9.82,-4.13,-2.17,-0.61,9.85,
1.214,-1.19,-9.82,-4.13,-2.90,-0.64,10.39,
1.215,-1.19,-9.82,-4.13,-2.90,-0.64,10.39,
1.215,0.64,-9.83,-3.92,-2.90,-0.64,10.39,
1.216,0.64,-9.83,-3.92,-2.90,-0.64,10.39,
1.224,0.64,-9.83,-3.92,-2.76,-0.89,10.32,
1.225,0.64,-9.83,-3.92,-2.76,-0.89,10.32,
1.225,2.31,-9.69,-3.80,-2.76,-0.89,10.32,
1.226,2.31,-9.69,-3.80,-2.76,-0.89,10.32,
1.233,2.31,-9.69,-3.80,-2.08,-1.45,9.69,
1.235,2.31,-9.69,-3.80,-2.08,-1.45,9.69,
1.235,4.07,-9.52,-3.88,-2.08,-1.45,9.69,
1.236,4.07,-9.52,-3.88,-2.08,-1.45,9.69,
1.243,4.07,-9.52,-3.88,-1.57,-2.34,8.46,
1.243,4.07,-9.52,-3.88,-1.57,-2.34,8.46,
1.244,5.81,-9.47,-4.20,-1.57,-2.34,8.46,
1.244,5.81,-9.47,-4.20,-1.57,-2.34,8.46,
1.257,5.81,-9.47,-4.20,-1.27,-3.50,7.00,
1.258,5.81,-9.47,-4.20,-1.27,-3.50,7.00,
1.258,7.63,-9.56,-5.86,-1.27,-3.50,7.00,
1.258,7.63,-9.56,-5.86,-1.27,-3.50,7.00,
1.262,7.63,-9.56,-5.86,-1.08,-4.81,5.61,
1.263,7.63,-9.56,-5.86,-1.08,-4.81,5.61,
1.263,9.48,-9.71,-6.28,-1.08,-4.81,5.61,
1.264,9.48,-9.71,-6.28,-1.08,-4.81,5.61,
1.271,9.48,-9.71,-6.28,-1.08,-4.81,5.61,
1.272,9.48,-9.71,-6.28,-1.08,-4.81,5.61,
1.272,9.48,-9.71,-6.28,-1.08,-4.81,5.61,
1.273,9.48,-9.71,-6.28,-1.08,-4.81,5.61,
1.281,9.48,-9.71,-6.28,-0.87,-6.17,4.21,
1.282,9.48,-9.71,-6.28,-0.87,-6.17,4.21,
1.282,13.77,-9.32,-9.47,-0.87,-6.17,4.21,
1.283,13.77,-9.32,-9.47,-0.87,-6.17,4.21,
1.29,13.77,-9.32,-9.47,-0.72,-7.52,2.80,
1.291,13.77,-9.32,-9.47,-0.72,-7.52,2.80,
1.292,16.01,-7.26,-11.06,-0.72,-7.52,2.80,
1.293,16.01,-7.26,-11.06,-0.72,-7.52,2.80,
1.3,16.01,-7.26,-11.06,-0.67,-8.81,1.26,
1.301,16.01,-7.26,-11.06,-0.67,-8.81,1.26,
1.302,18.09,-6.60,-12.53,-0.67,-8.81,1.26,
1.302,18.09,-6.60,-12.53,-0.67,-8.81,1.26,
1.309,18.09,-6.60,-12.53,-0.72,-9.88,-0.43,
1.311,18.09,-6.60,-12.53,-0.72,-9.88,-0.43,
1.311,19.57,-4.49,-14.14,-0.72,-9.88,-0.43,
1.312,19.57,-4.49,-14.14,-0.72,-9.88,-0.43,
1.32,19.57,-4.49,-14.14,-0.87,-10.53,-2.14,
1.321,19.57,-4.49,-14.14,-0.87,-10.53,-2.14,
1.321,19.41,-3.93,-14.20,-0.87,-10.53,-2.14,
1.322,19.41,-3.93,-14.20,-0.87,-10.53,-2.14,
1.328,19.41,-3.93,-14.20,-1.07,-10.64,-3.60,
1.329,19.41,-3.93,-14.20,-1.07,-10.64,-3.60,
1.33,17.33,-3.28,-14.10,-1.07,-10.64,-3.60,
1.331,17.33,-3.28,-14.10,-1.07,-10.64,-3.60,
1.338,17.33,-3.28,-14.10,-1.27,-10.27,-4.61,
1.34,17.33,-3.28,-14.10,-1.27,-10.27,-4.61,
1.341,14.85,-2.76,-13.70,-1.27,-10.27,-4.61,
1.343,14.85,-2.76,-13.70,-1.27,-10.27,-4.61,
1.348,14.85,-2.76,-13.70,-1.38,-9.55,-5.08,
1.349,14.85,-2.76,-13.70,-1.38,-9.55,-5.08,
1.35,12.49,-2.46,-13.05,-1.38,-9.55,-5.08,
1.352,12.49,-2.46,-13.05,-1.38,-9.55,-5.08,
1.359,12.49,-2.46,-13.05,-1.36,-8.67,-5.08,
1.361,12.49,-2.46,-13.05,-1.36,-8.67,-5.08,
1.362,12.10,-2.21,-15.05,-1.36,-8.67,-5.08,
1.363,12.10,-2.21,-15.05,-1.36,-8.67,-5.08,
1.367,12.10,-2.21,-15.05,-1.31,-7.76,-4.76,
1.367,12.10,-2.21,-15.05,-1.31,-7.76,-4.76,
1.368,12.18,-1.69,-22.22,-1.31,-7.76,-4.76,
1.369,12.18,-1.69,-22.22,-1.31,-7.76,-4.76,
1.377,12.18,-1.69,-22.22,-1.51,-7.01,-4.24,
1.378,12.18,-1.69,-22.22,-1.51,-7.01,-4.24,
1.379,12.14,-1.05,-24.38,-1.51,-7.01,-4.24,
1.379,12.14,-1.05,-24.38,-1.51,-7.01,-4.24,
1.388,12.14,-1.05,-24.38,-2.34,-6.57,-3.60,
1.389,12.14,-1.05,-24.38,-2.34,-6.57,-3.60,
1.39,11.42,-0.48,-24.32,-2.34,-6.57,-3.60,
1.39,11.42,-0.48,-24.32,-2.34,-6.57,-3.60,
1.409,11.42,-0.48,-24.32,-3.76,-6.43,-2.82,
1.411,11.42,-0.48,-24.32,-3.76,-6.43,-2.82,
1.412,9.01,-0.26,-18.93,-3.76,-6.43,-2.82,
1.413,9.01,-0.26,-18.93,-3.76,-6.43,-2.82,
1.414,9.01,-0.26,-18.93,-5.13,-6.38,-1.96,
1.414,9.01,-0.26,-18.93,-5.13,-6.38,-1.96,
1.415,9.01,-0.26,-18.93,-5.13,-6.38,-1.96,
1.415,6.23,-2.18,-10.41,-5.13,-6.38,-1.96,
1.416,6.23,-2.18,-10.41,-5.13,-6.38,-1.96,
1.417,6.23,-2.18,-10.41,-5.13,-6.38,-1.96,
1.42,6.23,-2.18,-10.41,-5.65,-6.07,-1.25,
1.421,6.23,-2.18,-10.41,-5.65,-6.07,-1.25,
1.427,3.92,-2.58,-7.17,-5.65,-6.07,-1.25,
1.428,3.92,-2.58,-7.17,-5.65,-6.07,-1.25,
1.428,3.92,-2.58,-7.17,-4.94,-5.34,-0.85,
1.429,3.92,-2.58,-7.17,-4.94,-5.34,-0.85,
1.43,3.54,-2.89,-6.60,-4.94,-5.34,-0.85,
1.43,3.54,-2.89,-6.60,-4.94,-5.34,-0.85,
1.438,3.54,-2.89,-6.60,-3.11,-4.32,-0.72,
1.439,3.54,-2.89,-6.60,-3.11,-4.32,-0.72,
1.439,3.05,-2.93,-6.28,-3.11,-4.32,-0.72,
1.44,3.05,-2.93,-6.28,-3.11,-4.32,-0.72,
1.447,3.05,-2.93,-6.28,-0.62,-3.28,-0.69,
1.448,3.05,-2.93,-6.28,-0.62,-3.28,-0.69,
1.449,2.57,-2.69,-5.89,-0.62,-3.28,-0.69,
1.449,2.57,-2.69,-5.89,-0.62,-3.28,-0.69,
1.457,2.57,-2.69,-5.89,1.82,-2.44,-0.56,
1.457,2.57,-2.69,-5.89,1.82,-2.44,-0.56,
1.458,2.12,-2.37,-5.45,1.82,-2.44,-0.56,
1.459,2.12,-2.37,-5.45,1.82,-2.44,-0.56,
1.467,2.12,-2.37,-5.45,3.73,-1.84,-0.28,
1.468,2.12,-2.37,-5.45,3.73,-1.84,-0.28,
1.468,1.64,-1.98,-5.06,3.73,-1.84,-0.28,
1.469,1.64,-1.98,-5.06,3.73,-1.84,-0.28,
1.477,1.64,-1.98,-5.06,5.02,-1.43,0.07,
1.478,1.64,-1.98,-5.06,5.02,-1.43,0.07,
1.478,1.04,-1.63,-4.79,5.02,-1.43,0.07,
1.479,1.04,-1.63,-4.79,5.02,-1.43,0.07,
1.487,1.04,-1.63,-4.79,5.77,-1.15,0.33,
1.487,1.04,-1.63,-4.79,5.77,-1.15,0.33,
1.488,-0.85,-1.31,-4.41,5.77,-1.15,0.33,
1.488,-0.85,-1.31,-4.41,5.77,-1.15,0.33,
1.495,-0.85,-1.31,-4.41,6.09,-0.95,0.49,
1.496,-0.85,-1.31,-4.41,6.09,-0.95,0.49,
1.497,-1.25,-0.98,-3.82,6.09,-0.95,0.49,
1.498,-1.25,-0.98,-3.82,6.09,-0.95,0.49,
1.505,-1.25,-0.98,-3.82,6.09,-0.82,0.77,
1.506,-1.25,-0.98,-3.82,6.09,-0.82,0.77,
1.506,-1.75,-0.64,-3.17,6.09,-0.82,0.77,
1.507,-1.75,-0.64,-3.17,6.09,-0.82,0.77,
1.514,-1.75,-0.64,-3.17,5.87,-0.70,0.80,
1.515,-1.75,-0.64,-3.17,5.87,-0.70,0.80,
1.516,-2.18,-0.30,-2.67,5.87,-0.70,0.80,
1.516,-2.18,-0.30,-2.67,5.87,-0.70,0.80,
1.524,-2.18,-0.30,-2.67,5.53,-0.54,0.56,
1.525,-2.18,-0.30,-2.67,5.53,-0.54,0.56,
1.526,-2.45,0.12,-2.54,5.53,-0.54,0.56,
1.526,-2.45,0.12,-2.54,5.53,-0.54,0.56,
1.533,-2.45,0.12,-2.54,5.13,-0.37,0.45,
1.534,-2.45,0.12,-2.54,5.13,-0.37,0.45,
1.535,-2.81,0.55,-2.72,5.13,-0.37,0.45,
1.535,-2.81,0.55,-2.72,5.13,-0.37,0.45,
1.543,-2.81,0.55,-2.72,4.68,-0.23,0.39,
1.544,-2.81,0.55,-2.72,4.68,-0.23,0.39,
1.545,-3.45,0.76,-2.97,4.68,-0.23,0.39,
1.545,-3.45,0.76,-2.97,4.68,-0.23,0.39,
1.561,-3.45,0.76,-2.97,4.15,-0.10,0.50,
1.562,-3.45,0.76,-2.97,4.15,-0.10,0.50,
1.563,-4.15,0.86,-3.26,4.15,-0.10,0.50,
1.563,-4.15,0.86,-3.26,4.15,-0.10,0.50,
1.564,-4.15,0.86,-3.26,3.50,-0.01,0.75,
1.565,-4.15,0.86,-3.26,3.50,-0.01,0.75,
1.565,-4.78,0.90,-3.43,3.50,-0.01,0.75,
1.566,-4.78,0.90,-3.43,3.50,-0.01,0.75,
1.571,-4.78,0.90,-3.43,3.50,-0.01,0.75,
1.572,-4.78,0.90,-3.43,3.50,-0.01,0.75,
1.572,-4.78,0.90,-3.43,3.50,-0.01,0.75,
1.573,-4.78,0.90,-3.43,3.50,-0.01,0.75,
1.581,-4.78,0.90,-3.43,2.71,0.01,1.01,
1.582,-4.78,0.90,-3.43,2.71,0.01,1.01,
1.583,-4.92,1.13,-3.34,2.71,0.01,1.01,
1.584,-4.92,1.13,-3.34,2.71,0.01,1.01,
1.59,-4.92,1.13,-3.34,1.83,-0.01,1.30,
1.592,-4.92,1.13,-3.34,1.83,-0.01,1.30,
1.592,-3.17,1.38,-1.27,1.83,-0.01,1.30,
1.593,-3.17,1.38,-1.27,1.83,-0.01,1.30,
1.6,-3.17,1.38,-1.27,1.07,-0.04,1.55,
1.601,-3.17,1.38,-1.27,1.07,-0.04,1.55,
1.601,-1.73,1.59,0.48,1.07,-0.04,1.55,
1.602,-1.73,1.59,0.48,1.07,-0.04,1.55,
1.609,-1.73,1.59,0.48,0.78,-0.05,1.49,
1.611,-1.73,1.59,0.48,0.78,-0.05,1.49,
1.611,-1.44,1.73,1.03,0.78,-0.05,1.49,
1.612,-1.44,1.73,1.03,0.78,-0.05,1.49,
1.62,-1.44,1.73,1.03,1.21,-0.04,0.95,
1.621,-1.44,1.73,1.03,1.21,-0.04,0.95,
1.622,-1.03,1.78,1.63,1.21,-0.04,0.95,
1.622,-1.03,1.78,1.63,1.21,-0.04,0.95,
1.629,-1.03,1.78,1.63,2.27,-0.06,0.08,
1.63,-1.03,1.78,1.63,2.27,-0.06,0.08,
1.63,-0.55,1.79,1.73,2.27,-0.06,0.08,
1.632,-0.55,1.79,1.73,2.27,-0.06,0.08,
1.638,-0.55,1.79,1.73,3.55,-0.16,-0.77,
1.64,-0.55,1.79,1.73,3.55,-0.16,-0.77,
1.641,-0.56,1.67,1.32,3.55,-0.16,-0.77,
1.642,-0.56,1.67,1.32,3.55,-0.16,-0.77,
1.648,-0.56,1.67,1.32,4.60,-0.32,-1.39,
1.649,-0.56,1.67,1.32,4.60,-0.32,-1.39,
1.65,-1.18,1.37,0.97,4.60,-0.32,-1.39,
1.651,-1.18,1.37,0.97,4.60,-0.32,-1.39,
1.657,-1.18,1.37,0.97,5.17,-0.50,-1.74,
1.659,-1.18,1.37,0.97,5.17,-0.50,-1.74,
1.666,-1.47,0.98,-0.39,5.17,-0.50,-1.74,
1.668,-1.47,0.98,-0.39,5.17,-0.50,-1.74,
1.67,-1.47,0.98,-0.39,5.12,-0.47,-1.79,
1.672,-1.47,0.98,-0.39,5.12,-0.47,-1.79,
1.673,-1.52,0.49,-0.25,5.12,-0.47,-1.79,
1.675,-1.52,0.49,-0.25,5.12,-0.47,-1.79,
1.676,-1.52,0.49,-0.25,4.42,-0.42,-1.65,
1.677,-1.52,0.49,-0.25,4.42,-0.42,-1.65,
1.678,0.43,-1.16,-0.38,4.42,-0.42,-1.65,
1.679,0.43,-1.16,-0.38,4.42,-0.42,-1.65,
1.688,0.43,-1.16,-0.38,3.24,-0.41,-1.43,
1.688,0.43,-1.16,-0.38,3.24,-0.41,-1.43,
1.689,1.96,-1.59,-2.17,3.24,-0.41,-1.43,
1.689,1.96,-1.59,-2.17,3.24,-0.41,-1.43,
1.695,1.96,-1.59,-2.17,1.77,-0.35,-1.17,
1.695,1.96,-1.59,-2.17,1.77,-0.35,-1.17,
1.695,2.02,-3.68,-2.34,1.77,-0.35,-1.17,
1.696,2.02,-3.68,-2.34,1.77,-0.35,-1.17,
1.704,2.02,-3.68,-2.34,0.15,-0.35,-0.92,
1.705,2.02,-3.68,-2.34,0.15,-0.35,-0.92,
1.706,1.80,-7.29,-2.51,0.15,-0.35,-0.92,
1.706,1.80,-7.29,-2.51,0.15,-0.35,-0.92,
1.714,1.80,-7.29,-2.51,-1.50,-0.24,-0.52,
1.715,1.80,-7.29,-2.51,-1.50,-0.24,-0.52,
1.715,1.50,-9.08,-1.00,-1.50,-0.24,-0.52,
1.715,1.50,-9.08,-1.00,-1.50,-0.24,-0.52,
1.723,1.50,-9.08,-1.00,-2.84,0.01,0.21,
1.724,1.50,-9.08,-1.00,-2.84,0.01,0.21,
1.725,0.90,-9.17,-0.54,-2.84,0.01,0.21,
1.725,0.90,-9.17,-0.54,-2.84,0.01,0.21,
1.733,0.90,-9.17,-0.54,-3.48,0.20,1.20,
1.734,0.90,-9.17,-0.54,-3.48,0.20,1.20,
1.735,-0.97,-8.80,0.08,-3.48,0.20,1.20,
1.735,-0.97,-8.80,0.08,-3.48,0.20,1.20,
1.743,-0.97,-8.80,0.08,-3.43,0.27,2.15,
1.744,-0.97,-8.80,0.08,-3.43,0.27,2.15,
1.744,-2.80,-6.68,0.43,-3.43,0.27,2.15,
1.745,-2.80,-6.68,0.43,-3.43,0.27,2.15,
1.758,-2.80,-6.68,0.43,-2.97,0.39,2.86,
1.759,-2.80,-6.68,0.43,-2.97,0.39,2.86,
1.76,-5.01,-4.50,0.32,-2.97,0.39,2.86,
1.761,-5.01,-4.50,0.32,-2.97,0.39,2.86,
1.762,-5.01,-4.50,0.32,-2.40,0.53,3.33,
1.763,-5.01,-4.50,0.32,-2.40,0.53,3.33,
1.763,-5.47,-2.74,0.18,-2.40,0.53,3.33,
1.764,-5.47,-2.74,0.18,-2.40,0.53,3.33,
1.771,-5.47,-2.74,0.18,-2.40,0.53,3.33,
1.772,-5.47,-2.74,0.18,-2.40,0.53,3.33,
1.772,-5.47,-2.74,0.18,-2.40,0.53,3.33,
1.773,-5.47,-2.74,0.18,-2.40,0.53,3.33,
1.781,-5.47,-2.74,0.18,-1.87,0.61,3.64,
1.782,-5.47,-2.74,0.18,-1.87,0.61,3.64,
1.782,-6.00,-2.14,-0.10,-1.87,0.61,3.64,
1.783,-6.00,-2.14,-0.10,-1.87,0.61,3.64,
1.79,-6.00,-2.14,-0.10,-1.42,0.58,3.81,
1.791,-6.00,-2.14,-0.10,-1.42,0.58,3.81,
1.792,-5.65,-1.65,0.15,-1.42,0.58,3.81,
1.793,-5.65,-1.65,0.15,-1.42,0.58,3.81,
1.799,-5.65,-1.65,0.15,-1.04,0.48,3.84,
1.8,-5.65,-1.65,0.15,-1.04,0.48,3.84,
1.801,-3.95,-1.11,0.54,-1.04,0.48,3.84,
1.802,-3.95,-1.11,0.54,-1.04,0.48,3.84,
1.809,-3.95,-1.11,0.54,-0.70,0.40,3.72,
1.811,-3.95,-1.11,0.54,-0.70,0.40,3.72,
1.811,-3.71,-0.53,0.88,-0.70,0.40,3.72,
1.812,-3.71,-0.53,0.88,-0.70,0.40,3.72,
1.82,-3.71,-0.53,0.88,-0.34,0.31,3.37,
1.821,-3.71,-0.53,0.88,-0.34,0.31,3.37,
1.822,-3.52,0.00,1.10,-0.34,0.31,3.37,
1.823,-3.52,0.00,1.10,-0.34,0.31,3.37,
1.828,-3.52,0.00,1.10,0.08,0.17,2.78,
1.829,-3.52,0.00,1.10,0.08,0.17,2.78,
1.83,-3.46,0.38,1.00,0.08,0.17,2.78,
1.83,-3.46,0.38,1.00,0.08,0.17,2.78,
1.838,-3.46,0.38,1.00,0.56,-0.10,2.06,
1.839,-3.46,0.38,1.00,0.56,-0.10,2.06,
1.84,-3.64,0.59,0.72,0.56,-0.10,2.06,
1.84,-3.64,0.59,0.72,0.56,-0.10,2.06,
1.847,-3.64,0.59,0.72,1.03,-0.48,1.35,
1.848,-3.64,0.59,0.72,1.03,-0.48,1.35,
1.849,-3.90,0.63,0.42,1.03,-0.48,1.35,
1.85,-3.90,0.63,0.42,1.03,-0.48,1.35,
1.857,-3.90,0.63,0.42,1.42,-0.84,0.78,
1.859,-3.90,0.63,0.42,1.42,-0.84,0.78,
1.86,-4.16,0.54,0.09,1.42,-0.84,0.78,
1.861,-4.16,0.54,0.09,1.42,-0.84,0.78,
1.866,-4.16,0.54,0.09,1.63,-1.16,0.40,
1.867,-4.16,0.54,0.09,1.63,-1.16,0.40,
1.867,-4.47,0.30,-0.18,1.63,-1.16,0.40,
1.868,-4.47,0.30,-0.18,1.63,-1.16,0.40,
1.876,-4.47,0.30,-0.18,1.64,-1.38,0.22,
1.877,-4.47,0.30,-0.18,1.64,-1.38,0.22,
1.877,-4.81,-0.06,-0.34,1.64,-1.38,0.22,
1.878,-4.81,-0.06,-0.34,1.64,-1.38,0.22,
1.886,-4.81,-0.06,-0.34,1.45,-1.47,0.25,
1.886,-4.81,-0.06,-0.34,1.45,-1.47,0.25,
1.887,-5.11,-0.54,-0.40,1.45,-1.47,0.25,
1.887,-5.11,-0.54,-0.40,1.45,-1.47,0.25,
1.895,-5.11,-0.54,-0.40,1.12,-1.43,0.46,
1.896,-5.11,-0.54,-0.40,1.12,-1.43,0.46,
1.902,-5.45,-1.05,-0.43,1.12,-1.43,0.46,
1.903,-5.45,-1.05,-0.43,1.12,-1.43,0.46,
1.905,-5.45,-1.05,-0.43,0.73,-1.27,0.85,
1.907,-5.45,-1.05,-0.43,0.73,-1.27,0.85,
1.907,-5.88,-1.54,-0.31,0.73,-1.27,0.85,
1.908,-5.88,-1.54,-0.31,0.73,-1.27,0.85,
1.914,-5.88,-1.54,-0.31,0.38,-1.06,1.37,
1.914,-5.88,-1.54,-0.31,0.38,-1.06,1.37,
1.915,-6.35,-1.99,-0.15,0.38,-1.06,1.37,
1.915,-6.35,-1.99,-0.15,0.38,-1.06,1.37,
1.923,-6.35,-1.99,-0.15,0.12,-0.84,1.98,
1.924,-6.35,-1.99,-0.15,0.12,-0.84,1.98,
1.925,-8.08,-2.36,0.04,0.12,-0.84,1.98,
1.925,-8.08,-2.36,0.04,0.12,-0.84,1.98,
1.933,-8.08,-2.36,0.04,-0.03,-0.61,2.67,
1.933,-8.08,-2.36,0.04,-0.03,-0.61,2.67,
1.934,-8.19,-2.60,0.24,-0.03,-0.61,2.67,
1.935,-8.19,-2.60,0.24,-0.03,-0.61,2.67,
1.942,-8.19,-2.60,0.24,-0.07,-0.38,3.45,
1.943,-8.19,-2.60,0.24,-0.07,-0.38,3.45,
1.944,-8.35,-2.64,0.26,-0.07,-0.38,3.45,
1.945,-8.35,-2.64,0.26,-0.07,-0.38,3.45,
1.956,-8.35,-2.64,0.26,-0.07,-0.38,3.45,
1.957,-8.35,-2.64,0.26,-0.07,-0.38,3.45,
1.957,-8.35,-2.64,0.26,-0.07,-0.38,3.45,
1.958,-8.35,-2.64,0.26,-0.07,-0.38,3.45,
1.962,-8.35,-2.64,0.26,0.07,-0.06,4.88,
1.962,-8.35,-2.64,0.26,0.07,-0.06,4.88,
1.963,-8.68,-2.62,0.49,0.07,-0.06,4.88,
1.963,-8.68,-2.62,0.49,0.07,-0.06,4.88,
1.971,-8.68,-2.62,0.49,0.07,-0.06,4.88,
1.972,-8.68,-2.62,0.49,0.07,-0.06,4.88,
1.973,-8.68,-2.62,0.49,0.07,-0.06,4.88,
1.974,-8.68,-2.62,0.49,0.07,-0.06,4.88,
1.98,-8.68,-2.62,0.49,0.18,-0.01,5.26,
1.981,-8.68,-2.62,0.49,0.18,-0.01,5.26,
1.982,-8.49,-2.85,0.97,0.18,-0.01,5.26,
1.982,-8.49,-2.85,0.97,0.18,-0.01,5.26,
1.991,-8.49,-2.85,0.97,0.30,-0.02,5.38,
1.993,-8.49,-2.85,0.97,0.30,-0.02,5.38,
1.995,-8.08,-2.85,1.10,0.30,-0.02,5.38,
1.996,-8.08,-2.85,1.10,0.30,-0.02,5.38,
1.999,-8.08,-2.85,1.10,0.42,-0.06,5.27,
2.0,-8.08,-2.85,1.10,0.42,-0.06,5.27,
2.0,-7.58,-2.61,1.22,0.42,-0.06,5.27,
2.001,-7.58,-2.61,1.22,0.42,-0.06,5.27,
2.009,-7.58,-2.61,1.22,0.56,-0.11,4.94,
2.01,-7.58,-2.61,1.22,0.56,-0.11,4.94,
2.011,-7.13,-2.07,1.24,0.56,-0.11,4.94,
2.012,-7.13,-2.07,1.24,0.56,-0.11,4.94,
2.019,-7.13,-2.07,1.24,0.69,-0.16,4.44,
2.019,-7.13,-2.07,1.24,0.69,-0.16,4.44,
2.02,-6.71,0.02,1.26,0.69,-0.16,4.44,
2.02,-6.71,0.02,1.26,0.69,-0.16,4.44,
2.028,-6.71,0.02,1.26,0.79,-0.22,3.85,
2.029,-6.71,0.02,1.26,0.79,-0.22,3.85,
2.03,-6.34,0.61,1.13,0.79,-0.22,3.85,
2.031,-6.34,0.61,1.13,0.79,-0.22,3.85,
2.037,-6.34,0.61,1.13,0.87,-0.30,3.25,
2.038,-6.34,0.61,1.13,0.87,-0.30,3.25,
2.039,-5.96,2.32,0.62,0.87,-0.30,3.25,
2.039,-5.96,2.32,0.62,0.87,-0.30,3.25,
2.047,-5.96,2.32,0.62,0.92,-0.41,2.69,
2.048,-5.96,2.32,0.62,0.92,-0.41,2.69,
2.048,-5.43,0.21,-0.82,0.92,-0.41,2.69,
2.049,-5.43,0.21,-0.82,0.92,-0.41,2.69,
2.057,-5.43,0.21,-0.82,0.85,-0.50,2.16,
2.058,-5.43,0.21,-0.82,0.85,-0.50,2.16,
2.059,-5.17,-7.35,-1.23,0.85,-0.50,2.16,
2.059,-5.17,-7.35,-1.23,0.85,-0.50,2.16,
2.066,-5.17,-7.35,-1.23,0.52,-0.51,1.62,
2.067,-5.17,-7.35,-1.23,0.52,-0.51,1.62,
2.068,-4.82,-15.71,-1.69,0.52,-0.51,1.62,
2.069,-4.82,-15.71,-1.69,0.52,-0.51,1.62,
2.076,-4.82,-15.71,-1.69,-0.10,-0.35,1.01,
2.078,-4.82,-15.71,-1.69,-0.10,-0.35,1.01,
2.078,-2.27,-22.19,-1.57,-0.10,-0.35,1.01,
2.079,-2.27,-22.19,-1.57,-0.10,-0.35,1.01,
2.086,-2.27,-22.19,-1.57,-0.81,-0.13,0.36,
2.086,-2.27,-22.19,-1.57,-0.81,-0.13,0.36,
2.087,0.45,-22.36,-1.04,-0.81,-0.13,0.36,
2.088,0.45,-22.36,-1.04,-0.81,-0.13,0.36,
2.094,0.45,-22.36,-1.04,-1.29,-0.04,-0.31,
2.095,0.45,-22.36,-1.04,-1.29,-0.04,-0.31,
2.096,2.94,-15.67,0.60,-1.29,-0.04,-0.31,
2.096,2.94,-15.67,0.60,-1.29,-0.04,-0.31,
2.104,2.94,-15.67,0.60,-1.41,-0.22,-0.97,
2.105,2.94,-15.67,0.60,-1.41,-0.22,-0.97,
2.105,3.42,-7.90,0.68,-1.41,-0.22,-0.97,
2.105,3.42,-7.90,0.68,-1.41,-0.22,-0.97,
2.113,3.42,-7.90,0.68,-1.22,-0.65,-1.61,
2.115,3.42,-7.90,0.68,-1.22,-0.65,-1.61,
2.115,3.26,-1.83,0.42,-1.22,-0.65,-1.61,
2.116,3.26,-1.83,0.42,-1.22,-0.65,-1.61,
2.123,3.26,-1.83,0.42,-0.86,-1.26,-2.20,
2.125,3.26,-1.83,0.42,-0.86,-1.26,-2.20,
2.126,0.98,0.31,-0.13,-0.86,-1.26,-2.20,
2.127,0.98,0.31,-0.13,-0.86,-1.26,-2.20,
2.132,0.98,0.31,-0.13,-0.44,-1.91,-2.68,
2.133,0.98,0.31,-0.13,-0.44,-1.91,-2.68,
2.138,-0.70,2.03,-0.57,-0.44,-1.91,-2.68,
2.139,-0.70,2.03,-0.57,-0.44,-1.91,-2.68,
2.142,-0.70,2.03,-0.57,-0.07,-2.44,-2.97,
2.143,-0.70,2.03,-0.57,-0.07,-2.44,-2.97,
2.143,-1.02,2.36,-0.74,-0.07,-2.44,-2.97,
2.144,-1.02,2.36,-0.74,-0.07,-2.44,-2.97,
2.156,-1.02,2.36,-0.74,-0.07,-2.44,-2.97,
2.158,-1.02,2.36,-0.74,-0.07,-2.44,-2.97,
2.159,-1.02,2.36,-0.74,-0.07,-2.44,-2.97,
2.159,-1.02,2.36,-0.74,-0.07,-2.44,-2.97,
2.161,-1.02,2.36,-0.74,0.17,-2.72,-2.99,
2.162,-1.02,2.36,-0.74,0.17,-2.72,-2.99,
2.163,-2.59,2.07,-0.16,0.17,-2.72,-2.99,
2.163,-2.59,2.07,-0.16,0.17,-2.72,-2.99,
2.171,-2.59,2.07,-0.16,0.26,-2.67,-2.71,
2.172,-2.59,2.07,-0.16,0.26,-2.67,-2.71,
2.172,-2.91,1.56,0.35,0.26,-2.67,-2.71,
2.172,-2.91,1.56,0.35,0.26,-2.67,-2.71,
2.18,-2.91,1.56,0.35,0.27,-2.31,-2.17,
2.181,-2.91,1.56,0.35,0.27,-2.31,-2.17,
2.181,-3.22,0.97,0.89,0.27,-2.31,-2.17,
2.182,-3.22,0.97,0.89,0.27,-2.31,-2.17,
2.19,-3.22,0.97,0.89,0.30,-1.79,-1.42,
2.191,-3.22,0.97,0.89,0.30,-1.79,-1.42,
2.191,-3.41,0.52,1.29,0.30,-1.79,-1.42,
2.192,-3.41,0.52,1.29,0.30,-1.79,-1.42,
2.2,-3.41,0.52,1.29,0.43,-1.23,-0.54,
2.201,-3.41,0.52,1.29,0.43,-1.23,-0.54,
2.201,-3.48,0.19,1.46,0.43,-1.23,-0.54,
2.202,-3.48,0.19,1.46,0.43,-1.23,-0.54,
2.209,-3.48,0.19,1.46,0.67,-0.74,0.36,
2.211,-3.48,0.19,1.46,0.67,-0.74,0.36,
2.213,-3.46,-0.12,1.36,0.67,-0.74,0.36,
2.214,-3.46,-0.12,1.36,0.67,-0.74,0.36,
2.22,-3.46,-0.12,1.36,0.94,-0.35,1.16,
2.222,-3.46,-0.12,1.36,0.94,-0.35,1.16,
2.222,-3.37,-0.38,1.15,0.94,-0.35,1.16,
2.223,-3.37,-0.38,1.15,0.94,-0.35,1.16,
2.227,-3.37,-0.38,1.15,1.14,-0.06,1.80,
2.228,-3.37,-0.38,1.15,1.14,-0.06,1.80,
2.229,-3.23,-0.57,1.00,1.14,-0.06,1.80,
2.229,-3.23,-0.57,1.00,1.14,-0.06,1.80,
2.238,-3.23,-0.57,1.00,1.24,0.17,2.24,
2.239,-3.23,-0.57,1.00,1.24,0.17,2.24,
2.239,-3.09,-0.68,0.96,1.24,0.17,2.24,
2.24,-3.09,-0.68,0.96,1.24,0.17,2.24,
2.247,-3.09,-0.68,0.96,1.22,0.35,2.50,
2.248,-3.09,-0.68,0.96,1.22,0.35,2.50,
2.248,-2.89,-0.46,0.89,1.22,0.35,2.50,
2.249,-2.89,-0.46,0.89,1.22,0.35,2.50,
2.259,-2.89,-0.46,0.89,1.12,0.49,2.59,
2.261,-2.89,-0.46,0.89,1.12,0.49,2.59,
2.262,-2.30,1.38,0.53,1.12,0.49,2.59,
2.263,-2.30,1.38,0.53,1.12,0.49,2.59,
2.265,-2.30,1.38,0.53,0.99,0.57,2.55,
2.266,-2.30,1.38,0.53,0.99,0.57,2.55,
2.267,-0.37,1.63,-0.08,0.99,0.57,2.55,
2.267,-0.37,1.63,-0.08,0.99,0.57,2.55,
2.275,-0.37,1.63,-0.08,0.84,0.58,2.37,
2.276,-0.37,1.63,-0.08,0.84,0.58,2.37,
2.277,-0.10,1.90,-0.65,0.84,0.58,2.37,
2.278,-0.10,1.90,-0.65,0.84,0.58,2.37,
2.286,-0.10,1.90,-0.65,0.64,0.53,1.98,
2.286,-0.10,1.90,-0.65,0.64,0.53,1.98,
2.287,0.06,1.74,-0.79,0.64,0.53,1.98,
2.287,0.06,1.74,-0.79,0.64,0.53,1.98,
2.294,0.06,1.74,-0.79,0.36,0.45,1.41,
2.295,0.06,1.74,-0.79,0.36,0.45,1.41,
2.296,-0.27,0.22,0.79,0.36,0.45,1.41,
2.296,-0.27,0.22,0.79,0.36,0.45,1.41,
2.304,-0.27,0.22,0.79,0.07,0.35,0.79,
2.305,-0.27,0.22,0.79,0.07,0.35,0.79,
2.306,-1.97,-0.29,1.22,0.07,0.35,0.79,
2.306,-1.97,-0.29,1.22,0.07,0.35,0.79,
2.314,-1.97,-0.29,1.22,-0.06,0.23,0.36,
2.315,-1.97,-0.29,1.22,-0.06,0.23,0.36,
2.315,-1.93,-0.71,1.74,-0.06,0.23,0.36,
2.316,-1.93,-0.71,1.74,-0.06,0.23,0.36,
2.323,-1.93,-0.71,1.74,0.05,0.09,0.27,
2.325,-1.93,-0.71,1.74,0.05,0.09,0.27,
2.325,-1.73,-0.75,1.98,0.05,0.09,0.27,
2.326,-1.73,-0.75,1.98,0.05,0.09,0.27,
2.333,-1.73,-0.75,1.98,0.34,-0.03,0.46,
2.333,-1.73,-0.75,1.98,0.34,-0.03,0.46,
2.334,-1.41,-0.52,1.81,0.34,-0.03,0.46,
2.335,-1.41,-0.52,1.81,0.34,-0.03,0.46,
2.343,-1.41,-0.52,1.81,0.64,-0.12,0.72,
2.345,-1.41,-0.52,1.81,0.64,-0.12,0.72,
2.346,-0.99,-0.18,1.35,0.64,-0.12,0.72,
2.347,-0.99,-0.18,1.35,0.64,-0.12,0.72,
2.352,-0.99,-0.18,1.35,0.86,-0.20,0.87,
2.353,-0.99,-0.18,1.35,0.86,-0.20,0.87,
2.354,-0.58,0.07,0.82,0.86,-0.20,0.87,
2.354,-0.58,0.07,0.82,0.86,-0.20,0.87,
2.361,-0.58,0.07,0.82,0.86,-0.20,0.87,
2.362,-0.58,0.07,0.82,0.86,-0.20,0.87,
2.363,-0.58,0.07,0.82,0.86,-0.20,0.87,
2.363,-0.58,0.07,0.82,0.86,-0.20,0.87,
2.373,-0.58,0.07,0.82,0.93,-0.25,0.85,
2.374,-0.58,0.07,0.82,0.93,-0.25,0.85,
2.38,-0.00,0.17,-0.14,0.93,-0.25,0.85,
2.381,-0.00,0.17,-0.14,0.93,-0.25,0.85,
2.381,-0.00,0.17,-0.14,0.85,-0.25,0.70,
2.382,-0.00,0.17,-0.14,0.85,-0.25,0.70,
2.382,0.17,0.14,-0.44,0.85,-0.25,0.70,
2.382,0.17,0.14,-0.44,0.85,-0.25,0.70,
2.389,0.17,0.14,-0.44,0.59,-0.18,0.44,
2.391,0.17,0.14,-0.44,0.59,-0.18,0.44,
2.392,0.20,0.13,-0.56,0.59,-0.18,0.44,
2.392,0.20,0.13,-0.56,0.59,-0.18,0.44,
2.412,0.20,0.13,-0.56,0.22,-0.06,0.12,
2.413,0.20,0.13,-0.56,0.22,-0.06,0.12,
2.413,0.12,0.14,-0.55,0.22,-0.06,0.12,
2.414,0.12,0.14,-0.55,0.22,-0.06,0.12,
2.414,0.12,0.14,-0.55,0.22,-0.06,0.12,
2.414,0.12,0.14,-0.55,0.22,-0.06,0.12,
2.414,0.12,0.14,-0.55,0.22,-0.06,0.12,
2.415,0.12,0.14,-0.55,0.22,-0.06,0.12,
2.42,0.12,0.14,-0.55,-0.47,0.23,-0.38,
2.421,0.12,0.14,-0.55,-0.47,0.23,-0.38,
2.421,-0.16,0.14,-0.37,-0.47,0.23,-0.38,
2.421,-0.16,0.14,-0.37,-0.47,0.23,-0.38,
2.428,-0.16,0.14,-0.37,-0.81,0.53,-0.49,
2.429,-0.16,0.14,-0.37,-0.81,0.53,-0.49,
2.429,-0.18,0.10,-0.31,-0.81,0.53,-0.49,
2.43,-0.18,0.10,-0.31,-0.81,0.53,-0.49,
2.437,-0.18,0.10,-0.31,-0.81,0.53,-0.49,
2.438,-0.18,0.10,-0.31,-0.81,0.53,-0.49,
2.439,-0.18,0.10,-0.31,-0.81,0.53,-0.49,
2.439,-0.18,0.10,-0.31,-0.81,0.53,-0.49,
2.447,-0.18,0.10,-0.31,-0.76,0.63,-0.32,
2.448,-0.18,0.10,-0.31,-0.76,0.63,-0.32,
2.449,-0.08,0.16,-0.07,-0.76,0.63,-0.32,
2.449,-0.08,0.16,-0.07,-0.76,0.63,-0.32,
2.457,-0.08,0.16,-0.07,-0.65,0.55,-0.24,
2.459,-0.08,0.16,-0.07,-0.65,0.55,-0.24,
2.46,-0.12,0.17,0.03,-0.65,0.55,-0.24,
2.461,-0.12,0.17,0.03,-0.65,0.55,-0.24,
2.466,-0.12,0.17,0.03,-0.50,0.42,-0.17,
2.467,-0.12,0.17,0.03,-0.50,0.42,-0.17,
2.468,-0.19,0.17,0.06,-0.50,0.42,-0.17,
2.469,-0.19,0.17,0.06,-0.50,0.42,-0.17,
2.479,-0.19,0.17,0.06,-0.35,0.27,-0.11,
2.48,-0.19,0.17,0.06,-0.35,0.27,-0.11,
2.481,-0.28,0.13,0.00,-0.35,0.27,-0.11,
2.481,-0.28,0.13,0.00,-0.35,0.27,-0.11,
2.49,-0.28,0.13,0.00,-0.22,0.14,-0.05,
2.49,-0.28,0.13,0.00,-0.22,0.14,-0.05,
2.49,-0.35,0.10,-0.09,-0.22,0.14,-0.05,
2.491,-0.35,0.10,-0.09,-0.22,0.14,-0.05,
2.494,-0.35,0.10,-0.09,-0.11,0.06,0.02,
2.495,-0.35,0.10,-0.09,-0.11,0.06,0.02,
2.495,-0.36,0.09,-0.17,-0.11,0.06,0.02,
2.495,-0.36,0.09,-0.17,-0.11,0.06,0.02,
2.503,-0.36,0.09,-0.17,-0.04,0.01,0.10,
2.504,-0.36,0.09,-0.17,-0.04,0.01,0.10,
2.505,-0.36,0.08,-0.24,-0.04,0.01,0.10,
2.505,-0.36,0.08,-0.24,-0.04,0.01,0.10,
2.513,-0.36,0.08,-0.24,-0.01,0.02,0.16,
2.514,-0.36,0.08,-0.24,-0.01,0.02,0.16,
2.515,-0.38,0.07,-0.23,-0.01,0.02,0.16,
2.516,-0.38,0.07,-0.23,-0.01,0.02,0.16,
2.524,-0.38,0.07,-0.23,-0.01,0.07,0.20,
2.526,-0.38,0.07,-0.23,-0.01,0.07,0.20,
2.526,-0.34,0.09,-0.18,-0.01,0.07,0.20,
2.528,-0.34,0.09,-0.18,-0.01,0.07,0.20,
2.532,-0.34,0.09,-0.18,-0.02,0.14,0.22,
2.534,-0.34,0.09,-0.18,-0.02,0.14,0.22,
2.535,-0.29,0.10,-0.10,-0.02,0.14,0.22,
2.536,-0.29,0.10,-0.10,-0.02,0.14,0.22,
2.542,-0.29,0.10,-0.10,-0.02,0.18,0.22,
2.543,-0.29,0.10,-0.10,-0.02,0.18,0.22,
2.544,-0.25,0.15,-0.01,-0.02,0.18,0.22,
2.545,-0.25,0.15,-0.01,-0.02,0.18,0.22,
2.552,-0.25,0.15,-0.01,-0.02,0.18,0.22,
2.553,-0.25,0.15,-0.01,-0.02,0.18,0.22,
2.554,-0.25,0.15,-0.01,-0.02,0.18,0.22,
2.554,-0.25,0.15,-0.01,-0.02,0.18,0.22,
2.561,-0.25,0.15,-0.01,-0.01,0.14,0.21,
2.562,-0.25,0.15,-0.01,-0.01,0.14,0.21,
2.563,-0.14,0.22,0.07,-0.01,0.14,0.21,
2.564,-0.14,0.22,0.07,-0.01,0.14,0.21,
2.57,-0.14,0.22,0.07,0.01,0.05,0.19,
2.571,-0.14,0.22,0.07,0.01,0.05,0.19,
2.571,-0.15,0.25,0.07,0.01,0.05,0.19,
2.571,-0.15,0.25,0.07,0.01,0.05,0.19,
2.58,-0.15,0.25,0.07,0.05,-0.08,0.15,
2.581,-0.15,0.25,0.07,0.05,-0.08,0.15,
2.581,-0.19,0.26,0.10,0.05,-0.08,0.15,
2.582,-0.19,0.26,0.10,0.05,-0.08,0.15,
2.591,-0.19,0.26,0.10,0.09,-0.19,0.11,
2.592,-0.19,0.26,0.10,0.09,-0.19,0.11,
2.593,-0.30,0.25,0.13,0.09,-0.19,0.11,
2.593,-0.30,0.25,0.13,0.09,-0.19,0.11,
2.599,-0.30,0.25,0.13,0.13,-0.26,0.09,
2.6,-0.30,0.25,0.13,0.13,-0.26,0.09,
2.601,-0.44,0.19,0.09,0.13,-0.26,0.09,
2.601,-0.44,0.19,0.09,0.13,-0.26,0.09,
2.609,-0.44,0.19,0.09,0.16,-0.30,0.09,
2.61,-0.44,0.19,0.09,0.16,-0.30,0.09,
2.615,-0.56,0.14,0.04,0.16,-0.30,0.09,
2.616,-0.56,0.14,0.04,0.16,-0.30,0.09,
2.619,-0.56,0.14,0.04,0.17,-0.29,0.12,
2.62,-0.56,0.14,0.04,0.17,-0.29,0.12,
2.62,-0.59,0.07,-0.02,0.17,-0.29,0.12,
2.621,-0.59,0.07,-0.02,0.17,-0.29,0.12,
2.628,-0.59,0.07,-0.02,0.17,-0.23,0.18,
2.629,-0.59,0.07,-0.02,0.17,-0.23,0.18,
2.63,-0.49,0.04,-0.08,0.17,-0.23,0.18,
2.631,-0.49,0.04,-0.08,0.17,-0.23,0.18,
2.637,-0.49,0.04,-0.08,0.15,-0.14,0.24,
2.639,-0.49,0.04,-0.08,0.15,-0.14,0.24,
2.639,-0.30,0.03,-0.10,0.15,-0.14,0.24,
2.64,-0.30,0.03,-0.10,0.15,-0.14,0.24,
2.647,-0.30,0.03,-0.10,0.11,-0.03,0.27,
2.647,-0.30,0.03,-0.10,0.11,-0.03,0.27,
2.648,-0.06,0.04,-0.10,0.11,-0.03,0.27,
2.649,-0.06,0.04,-0.10,0.11,-0.03,0.27,
2.656,-0.06,0.04,-0.10,0.07,0.06,0.26,
2.658,-0.06,0.04,-0.10,0.07,0.06,0.26,
2.659,0.16,0.06,-0.09,0.07,0.06,0.26,
2.66,0.16,0.06,-0.09,0.07,0.06,0.26,
2.665,0.16,0.06,-0.09,0.03,0.10,0.19,
2.666,0.16,0.06,-0.09,0.03,0.10,0.19,
2.667,0.33,0.07,-0.09,0.03,0.10,0.19,
2.667,0.33,0.07,-0.09,0.03,0.10,0.19,
2.676,0.33,0.07,-0.09,-0.01,0.10,0.07,
2.677,0.33,0.07,-0.09,-0.01,0.10,0.07,
2.678,0.42,0.08,-0.09,-0.01,0.10,0.07,
2.679,0.42,0.08,-0.09,-0.01,0.10,0.07,
2.686,0.42,0.08,-0.09,-0.03,0.05,-0.08,
2.687,0.42,0.08,-0.09,-0.03,0.05,-0.08,
2.687,0.47,0.08,-0.06,-0.03,0.05,-0.08,
2.688,0.47,0.08,-0.06,-0.03,0.05,-0.08,
2.695,0.47,0.08,-0.06,-0.05,-0.02,-0.22,
2.696,0.47,0.08,-0.06,-0.05,-0.02,-0.22,
2.697,0.48,0.08,0.01,-0.05,-0.02,-0.22,
2.698,0.48,0.08,0.01,-0.05,-0.02,-0.22,
2.703,0.48,0.08,0.01,-0.06,-0.11,-0.34,
2.704,0.48,0.08,0.01,-0.06,-0.11,-0.34,
2.705,0.42,0.11,0.11,-0.06,-0.11,-0.34,
2.705,0.42,0.11,0.11,-0.06,-0.11,-0.34,
2.713,0.42,0.11,0.11,-0.06,-0.18,-0.42,
2.714,0.42,0.11,0.11,-0.06,-0.18,-0.42,
2.715,0.32,0.14,0.17,-0.06,-0.18,-0.42,
2.715,0.32,0.14,0.17,-0.06,-0.18,-0.42,
2.722,0.32,0.14,0.17,-0.03,-0.22,-0.45,
2.724,0.32,0.14,0.17,-0.03,-0.22,-0.45,
2.724,0.17,0.15,0.16,-0.03,-0.22,-0.45,
2.725,0.17,0.15,0.16,-0.03,-0.22,-0.45,
2.732,0.17,0.15,0.16,0.01,-0.22,-0.44,
2.733,0.17,0.15,0.16,0.01,-0.22,-0.44,
2.734,0.04,0.16,0.10,0.01,-0.22,-0.44,
2.734,0.04,0.16,0.10,0.01,-0.22,-0.44,
2.742,0.04,0.16,0.10,0.05,-0.17,-0.38,
2.743,0.04,0.16,0.10,0.05,-0.17,-0.38,
2.744,-0.05,0.15,-0.02,0.05,-0.17,-0.38,
2.745,-0.05,0.15,-0.02,0.05,-0.17,-0.38,
2.752,-0.05,0.15,-0.02,0.05,-0.17,-0.38,
2.753,-0.05,0.15,-0.02,0.05,-0.17,-0.38,
2.753,-0.05,0.15,-0.02,0.05,-0.17,-0.38,
2.754,-0.05,0.15,-0.02,0.05,-0.17,-0.38,
2.761,-0.05,0.15,-0.02,0.08,-0.12,-0.29,
2.761,-0.05,0.15,-0.02,0.08,-0.12,-0.29,
2.762,-0.05,0.13,-0.18,0.08,-0.12,-0.29,
2.763,-0.05,0.13,-0.18,0.08,-0.12,-0.29,
2.771,-0.05,0.13,-0.18,0.07,-0.06,-0.18,
2.771,-0.05,0.13,-0.18,0.07,-0.06,-0.18,
2.772,-0.01,0.13,-0.22,0.07,-0.06,-0.18,
2.772,-0.01,0.13,-0.22,0.07,-0.06,-0.18,
2.78,-0.01,0.13,-0.22,0.02,0.01,-0.08,
2.781,-0.01,0.13,-0.22,0.02,0.01,-0.08,
2.782,0.06,0.13,-0.24,0.02,0.01,-0.08,
2.782,0.06,0.13,-0.24,0.02,0.01,-0.08,
2.79,0.06,0.13,-0.24,-0.05,0.08,-0.00,
2.791,0.06,0.13,-0.24,-0.05,0.08,-0.00,
2.792,0.15,0.12,-0.22,-0.05,0.08,-0.00,
2.793,0.15,0.12,-0.22,-0.05,0.08,-0.00,
2.799,0.15,0.12,-0.22,-0.11,0.14,0.04,
2.799,0.15,0.12,-0.22,-0.11,0.14,0.04,
2.8,0.24,0.12,-0.18,-0.11,0.14,0.04,
2.8,0.24,0.12,-0.18,-0.11,0.14,0.04,
2.808,0.24,0.12,-0.18,-0.16,0.17,0.04,
2.809,0.24,0.12,-0.18,-0.16,0.17,0.04,
2.81,0.32,0.10,-0.13,-0.16,0.17,0.04,
2.81,0.32,0.10,-0.13,-0.16,0.17,0.04,
2.819,0.32,0.10,-0.13,-0.19,0.17,0.01,
2.82,0.32,0.10,-0.13,-0.19,0.17,0.01,
2.821,0.34,0.09,-0.08,-0.19,0.17,0.01,
2.821,0.34,0.09,-0.08,-0.19,0.17,0.01,
2.828,0.34,0.09,-0.08,-0.19,0.13,-0.03,
2.829,0.34,0.09,-0.08,-0.19,0.13,-0.03,
2.829,0.32,0.09,-0.06,-0.19,0.13,-0.03,
2.829,0.32,0.09,-0.06,-0.19,0.13,-0.03,
2.837,0.32,0.09,-0.06,-0.17,0.06,-0.08,
2.839,0.32,0.09,-0.06,-0.17,0.06,-0.08,
2.84,0.25,0.11,-0.06,-0.17,0.06,-0.08,
2.841,0.25,0.11,-0.06,-0.17,0.06,-0.08,
2.847,0.25,0.11,-0.06,-0.13,-0.02,-0.11,
2.848,0.25,0.11,-0.06,-0.13,-0.02,-0.11,
2.857,0.20,0.13,-0.09,-0.13,-0.02,-0.11,
2.86,0.20,0.13,-0.09,-0.13,-0.02,-0.11,
2.862,0.20,0.13,-0.09,-0.10,-0.09,-0.12,
2.863,0.20,0.13,-0.09,-0.10,-0.09,-0.12,
2.864,0.18,0.13,-0.16,-0.10,-0.09,-0.12,
2.865,0.18,0.13,-0.16,-0.10,-0.09,-0.12,
2.866,0.18,0.13,-0.16,-0.08,-0.14,-0.10,
2.867,0.18,0.13,-0.16,-0.08,-0.14,-0.10,
2.868,0.17,0.14,-0.21,-0.08,-0.14,-0.10,
2.869,0.17,0.14,-0.21,-0.08,-0.14,-0.10,
2.875,0.17,0.14,-0.21,-0.07,-0.16,-0.08,
2.875,0.17,0.14,-0.21,-0.07,-0.16,-0.08,
2.876,0.17,0.11,-0.22,-0.07,-0.16,-0.08,
2.876,0.17,0.11,-0.22,-0.07,-0.16,-0.08,
2.887,0.17,0.11,-0.22,-0.07,-0.14,-0.05,
2.888,0.17,0.11,-0.22,-0.07,-0.14,-0.05,
2.888,0.15,0.12,-0.24,-0.07,-0.14,-0.05,
2.888,0.15,0.12,-0.24,-0.07,-0.14,-0.05,
2.894,0.15,0.12,-0.24,-0.09,-0.10,-0.03,
2.894,0.15,0.12,-0.24,-0.09,-0.10,-0.03,
2.894,0.11,0.14,-0.17,-0.09,-0.10,-0.03,
2.895,0.11,0.14,-0.17,-0.09,-0.10,-0.03,
2.903,0.11,0.14,-0.17,-0.10,-0.04,-0.01,
2.904,0.11,0.14,-0.17,-0.10,-0.04,-0.01,
2.904,0.05,0.18,-0.09,-0.10,-0.04,-0.01,
2.905,0.05,0.18,-0.09,-0.10,-0.04,-0.01,
2.913,0.05,0.18,-0.09,-0.10,0.02,-0.00,
2.914,0.05,0.18,-0.09,-0.10,0.02,-0.00,
2.914,-0.04,0.21,-0.00,-0.10,0.02,-0.00,
2.915,-0.04,0.21,-0.00,-0.10,0.02,-0.00,
2.923,-0.04,0.21,-0.00,-0.08,0.08,0.02,
2.924,-0.04,0.21,-0.00,-0.08,0.08,0.02,
2.925,-0.14,0.19,0.15,-0.08,0.08,0.02,
2.925,-0.14,0.19,0.15,-0.08,0.08,0.02,
2.932,-0.14,0.19,0.15,-0.03,0.10,0.05,
2.933,-0.14,0.19,0.15,-0.03,0.10,0.05,
2.934,-0.24,0.18,0.27,-0.03,0.10,0.05,
2.934,-0.24,0.18,0.27,-0.03,0.10,0.05,
2.942,-0.24,0.18,0.27,0.03,0.08,0.11,
2.944,-0.24,0.18,0.27,0.03,0.08,0.11,
2.945,-0.30,0.16,0.37,0.03,0.08,0.11,
2.946,-0.30,0.16,0.37,0.03,0.08,0.11,
2.951,-0.30,0.16,0.37,0.03,0.08,0.11,
2.953,-0.30,0.16,0.37,0.03,0.08,0.11,
2.954,-0.30,0.16,0.37,0.03,0.08,0.11,
2.955,-0.30,0.16,0.37,0.03,0.08,0.11,
2.961,-0.30,0.16,0.37,0.12,0.04,0.17,
2.962,-0.30,0.16,0.37,0.12,0.04,0.17,
2.963,-0.32,0.20,0.45,0.12,0.04,0.17,
2.964,-0.32,0.20,0.45,0.12,0.04,0.17,
2.97,-0.32,0.20,0.45,0.21,-0.01,0.24,
2.97,-0.32,0.20,0.45,0.21,-0.01,0.24,
2.971,-0.27,0.23,0.43,0.21,-0.01,0.24,
2.971,-0.27,0.23,0.43,0.21,-0.01,0.24,
2.98,-0.27,0.23,0.43,0.29,-0.06,0.29,
2.98,-0.27,0.23,0.43,0.29,-0.06,0.29,
2.981,-0.21,0.24,0.43,0.29,-0.06,0.29,
2.981,-0.21,0.24,0.43,0.29,-0.06,0.29,
2.989,-0.21,0.24,0.43,0.36,-0.12,0.33,
2.99,-0.21,0.24,0.43,0.36,-0.12,0.33,
2.99,-0.13,0.28,0.44,0.36,-0.12,0.33,
2.991,-0.13,0.28,0.44,0.36,-0.12,0.33,
2.998,-0.13,0.28,0.44,0.39,-0.18,0.33,
2.999,-0.13,0.28,0.44,0.39,-0.18,0.33,
2.999,-0.07,0.29,0.41,0.39,-0.18,0.33,
3.0,-0.07,0.29,0.41,0.39,-0.18,0.33,
3.008,-0.07,0.29,0.41,0.40,-0.25,0.30,
3.009,-0.07,0.29,0.41,0.40,-0.25,0.30,
3.009,-0.04,0.26,0.35,0.40,-0.25,0.30,
3.01,-0.04,0.26,0.35,0.40,-0.25,0.30,
3.018,-0.04,0.26,0.35,0.39,-0.29,0.25,
3.019,-0.04,0.26,0.35,0.39,-0.29,0.25,
3.02,-0.04,0.23,0.29,0.39,-0.29,0.25,
3.02,-0.04,0.23,0.29,0.39,-0.29,0.25,
3.027,-0.04,0.23,0.29,0.36,-0.30,0.19,
3.028,-0.04,0.23,0.29,0.36,-0.30,0.19,
3.029,-0.06,0.19,0.19,0.36,-0.30,0.19,
3.029,-0.06,0.19,0.19,0.36,-0.30,0.19,
3.038,-0.06,0.19,0.19,0.31,-0.25,0.12,
3.038,-0.06,0.19,0.19,0.31,-0.25,0.12,
3.039,-0.07,0.17,0.11,0.31,-0.25,0.12,
3.039,-0.07,0.17,0.11,0.31,-0.25,0.12,
3.046,-0.07,0.17,0.11,0.24,-0.17,0.06,
3.047,-0.07,0.17,0.11,0.24,-0.17,0.06,
3.048,-0.04,0.16,0.06,0.24,-0.17,0.06,
3.049,-0.04,0.16,0.06,0.24,-0.17,0.06,
3.056,-0.04,0.16,0.06,0.16,-0.09,0.01,
3.057,-0.04,0.16,0.06,0.16,-0.09,0.01,
3.057,0.02,0.15,0.03,0.16,-0.09,0.01,
3.058,0.02,0.15,0.03,0.16,-0.09,0.01,
3.065,0.02,0.15,0.03,0.07,-0.03,-0.02,
3.066,0.02,0.15,0.03,0.07,-0.03,-0.02,
3.067,0.08,0.12,0.07,0.07,-0.03,-0.02,
3.067,0.08,0.12,0.07,0.07,-0.03,-0.02,
3.076,0.08,0.12,0.07,-0.01,0.01,-0.05,
3.077,0.08,0.12,0.07,-0.01,0.01,-0.05,
3.077,0.14,0.10,0.11,-0.01,0.01,-0.05,
3.078,0.14,0.10,0.11,-0.01,0.01,-0.05,
3.086,0.14,0.10,0.11,-0.06,0.02,-0.09,
3.087,0.14,0.10,0.11,-0.06,0.02,-0.09,
3.092,0.15,0.09,0.15,-0.06,0.02,-0.09,
3.093,0.15,0.09,0.15,-0.06,0.02,-0.09,
3.094,0.15,0.09,0.15,-0.10,0.03,-0.13,
3.094,0.15,0.09,0.15,-0.10,0.03,-0.13,
3.095,0.13,0.11,0.17,-0.10,0.03,-0.13,
3.095,0.13,0.11,0.17,-0.10,0.03,-0.13,
3.103,0.13,0.11,0.17,-0.11,0.00,-0.16,
3.104,0.13,0.11,0.17,-0.11,0.00,-0.16,
3.104,0.05,0.13,0.15,-0.11,0.00,-0.16,
3.105,0.05,0.13,0.15,-0.11,0.00,-0.16,
3.113,0.05,0.13,0.15,-0.10,-0.05,-0.18,
3.114,0.05,0.13,0.15,-0.10,-0.05,-0.18,
3.114,-0.05,0.13,0.12,-0.10,-0.05,-0.18,
3.115,-0.05,0.13,0.12,-0.10,-0.05,-0.18,
3.124,-0.05,0.13,0.12,-0.09,-0.09,-0.18,
3.125,-0.05,0.13,0.12,-0.09,-0.09,-0.18,
3.126,-0.12,0.14,0.05,-0.09,-0.09,-0.18,
3.126,-0.12,0.14,0.05,-0.09,-0.09,-0.18,
3.132,-0.12,0.14,0.05,-0.08,-0.10,-0.15,
3.133,-0.12,0.14,0.05,-0.08,-0.10,-0.15,
3.134,-0.15,0.15,0.02,-0.08,-0.10,-0.15,
3.134,-0.15,0.15,0.02,-0.08,-0.10,-0.15,
3.142,-0.15,0.15,0.02,-0.07,-0.06,-0.11,
3.144,-0.15,0.15,0.02,-0.07,-0.06,-0.11,
3.146,-0.11,0.17,0.03,-0.07,-0.06,-0.11,
3.147,-0.11,0.17,0.03,-0.07,-0.06,-0.11,
3.152,-0.11,0.17,0.03,-0.07,-0.06,-0.11,
3.153,-0.11,0.17,0.03,-0.07,-0.06,-0.11,
3.154,-0.11,0.17,0.03,-0.07,-0.06,-0.11,
3.154,-0.11,0.17,0.03,-0.07,-0.06,-0.11,
3.161,-0.11,0.17,0.03,-0.08,-0.03,-0.05,
3.161,-0.11,0.17,0.03,-0.08,-0.03,-0.05,
3.162,-0.01,0.20,0.14,-0.08,-0.03,-0.05,
3.163,-0.01,0.20,0.14,-0.08,-0.03,-0.05,
3.17,-0.01,0.20,0.14,-0.09,-0.01,-0.01,
3.17,-0.01,0.20,0.14,-0.09,-0.01,-0.01,
3.17,-0.02,0.17,0.16,-0.09,-0.01,-0.01,
3.171,-0.02,0.17,0.16,-0.09,-0.01,-0.01,
3.179,-0.02,0.17,0.16,-0.08,-0.02,0.02,
3.18,-0.02,0.17,0.16,-0.08,-0.02,0.02,
3.181,-0.06,0.15,0.14,-0.08,-0.02,0.02,
3.181,-0.06,0.15,0.14,-0.08,-0.02,0.02,
3.191,-0.06,0.15,0.14,-0.06,-0.04,0.03,
3.192,-0.06,0.15,0.14,-0.06,-0.04,0.03,
3.192,-0.12,0.14,0.10,-0.06,-0.04,0.03,
3.193,-0.12,0.14,0.10,-0.06,-0.04,0.03,
3.199,-0.12,0.14,0.10,-0.04,-0.06,0.03,
3.2,-0.12,0.14,0.10,-0.04,-0.06,0.03,
3.2,-0.14,0.12,0.08,-0.04,-0.06,0.03,
3.201,-0.14,0.12,0.08,-0.04,-0.06,0.03,
3.207,-0.14,0.12,0.08,-0.02,-0.08,0.04,
3.208,-0.14,0.12,0.08,-0.02,-0.08,0.04,
3.209,-0.12,0.15,0.10,-0.02,-0.08,0.04,
3.209,-0.12,0.15,0.10,-0.02,-0.08,0.04,
3.219,-0.12,0.15,0.10,-0.01,-0.10,0.07,
3.219,-0.12,0.15,0.10,-0.01,-0.10,0.07,
3.22,-0.10,0.16,0.13,-0.01,-0.10,0.07,
3.221,-0.10,0.16,0.13,-0.01,-0.10,0.07,
3.227,-0.10,0.16,0.13,-0.00,-0.11,0.09,
3.228,-0.10,0.16,0.13,-0.00,-0.11,0.09,
3.228,-0.08,0.15,0.13,-0.00,-0.11,0.09,
3.229,-0.08,0.15,0.13,-0.00,-0.11,0.09,
3.236,-0.08,0.15,0.13,0.01,-0.11,0.10,
3.237,-0.08,0.15,0.13,0.01,-0.11,0.10,
3.238,-0.07,0.14,0.09,0.01,-0.11,0.10,
3.238,-0.07,0.14,0.09,0.01,-0.11,0.10,
3.246,-0.07,0.14,0.09,0.01,-0.10,0.10,
3.247,-0.07,0.14,0.09,0.01,-0.10,0.10,
3.247,-0.11,0.13,0.04,0.01,-0.10,0.10,
3.248,-0.11,0.13,0.04,0.01,-0.10,0.10,
3.256,-0.11,0.13,0.04,0.02,-0.07,0.09,
3.257,-0.11,0.13,0.04,0.02,-0.07,0.09,
3.258,-0.13,0.10,-0.05,0.02,-0.07,0.09,
3.259,-0.13,0.10,-0.05,0.02,-0.07,0.09,
3.265,-0.13,0.10,-0.05,0.02,-0.04,0.08,
3.266,-0.13,0.10,-0.05,0.02,-0.04,0.08,
3.267,-0.15,0.07,-0.09,0.02,-0.04,0.08,
3.267,-0.15,0.07,-0.09,0.02,-0.04,0.08,
3.276,-0.15,0.07,-0.09,-0.00,-0.02,0.08,
3.277,-0.15,0.07,-0.09,-0.00,-0.02,0.08,
3.277,-0.18,0.04,-0.12,-0.00,-0.02,0.08,
3.278,-0.18,0.04,-0.12,-0.00,-0.02,0.08,
3.285,-0.18,0.04,-0.12,-0.04,-0.01,0.09,
3.286,-0.18,0.04,-0.12,-0.04,-0.01,0.09,
3.286,-0.16,0.03,-0.11,-0.04,-0.01,0.09,
3.287,-0.16,0.03,-0.11,-0.04,-0.01,0.09,
3.294,-0.16,0.03,-0.11,-0.07,-0.01,0.10,
3.294,-0.16,0.03,-0.11,-0.07,-0.01,0.10,
3.295,-0.09,0.05,-0.06,-0.07,-0.01,0.10,
3.295,-0.09,0.05,-0.06,-0.07,-0.01,0.10,
3.303,-0.09,0.05,-0.06,-0.10,-0.01,0.11,
3.304,-0.09,0.05,-0.06,-0.10,-0.01,0.11,
3.304,-0.03,0.07,-0.02,-0.10,-0.01,0.11,
3.305,-0.03,0.07,-0.02,-0.10,-0.01,0.11,
3.313,-0.03,0.07,-0.02,-0.11,0.01,0.10,
3.314,-0.03,0.07,-0.02,-0.11,0.01,0.10,
3.314,0.01,0.12,0.04,-0.11,0.01,0.10,
3.315,0.01,0.12,0.04,-0.11,0.01,0.10,
3.322,0.01,0.12,0.04,-0.09,0.04,0.07,
3.324,0.01,0.12,0.04,-0.09,0.04,0.07,
3.331,0.01,0.15,0.03,-0.09,0.04,0.07,
3.332,0.01,0.15,0.03,-0.09,0.04,0.07,
3.333,0.01,0.15,0.03,-0.06,0.06,0.04,
3.333,0.01,0.15,0.03,-0.06,0.06,0.04,
3.334,-0.04,0.18,0.00,-0.06,0.06,0.04,
3.335,-0.04,0.18,0.00,-0.06,0.06,0.04,
3.341,-0.04,0.18,0.00,-0.06,0.06,0.04,
3.342,-0.04,0.18,0.00,-0.06,0.06,0.04,
3.343,-0.04,0.18,0.00,-0.06,0.06,0.04,
3.344,-0.04,0.18,0.00,-0.06,0.06,0.04,
3.351,-0.04,0.18,0.00,-0.03,0.06,0.00,
3.351,-0.04,0.18,0.00,-0.03,0.06,0.00,
3.352,-0.11,0.21,-0.06,-0.03,0.06,0.00,
3.352,-0.11,0.21,-0.06,-0.03,0.06,0.00,
3.36,-0.11,0.21,-0.06,0.00,0.04,-0.01,
3.361,-0.11,0.21,-0.06,0.00,0.04,-0.01,
3.361,-0.09,0.18,-0.06,0.00,0.04,-0.01,
3.362,-0.09,0.18,-0.06,0.00,0.04,-0.01,
3.369,-0.09,0.18,-0.06,0.01,0.03,-0.01,
3.37,-0.09,0.18,-0.06,0.01,0.03,-0.01,
3.371,-0.07,0.15,-0.08,0.01,0.03,-0.01,
3.371,-0.07,0.15,-0.08,0.01,0.03,-0.01,
3.379,-0.07,0.15,-0.08,0.01,0.04,-0.01,
3.381,-0.07,0.15,-0.08,0.01,0.04,-0.01,
3.382,-0.05,0.14,-0.14,0.01,0.04,-0.01,
3.383,-0.05,0.14,-0.14,0.01,0.04,-0.01,
3.395,-0.05,0.14,-0.14,0.00,0.06,0.00,
3.395,-0.05,0.14,-0.14,0.00,0.06,0.00,
3.396,-0.05,0.14,-0.14,0.00,0.06,0.00,
3.396,-0.05,0.14,-0.14,0.00,0.06,0.00,
3.411,-0.05,0.14,-0.14,-0.01,0.08,0.01,
3.412,-0.05,0.14,-0.14,-0.01,0.08,0.01,
3.412,-0.04,0.14,-0.14,-0.01,0.08,0.01,
3.413,-0.04,0.14,-0.14,-0.01,0.08,0.01,
3.413,-0.04,0.14,-0.14,-0.04,0.05,0.01,
3.414,-0.04,0.14,-0.14,-0.04,0.05,0.01,
3.414,-0.03,0.14,-0.14,-0.04,0.05,0.01,
3.415,-0.03,0.14,-0.14,-0.04,0.05,0.01,
3.417,-0.03,0.14,-0.14,-0.04,0.05,0.01,
3.418,-0.03,0.14,-0.14,-0.04,0.05,0.01,
3.419,-0.03,0.14,-0.14,-0.04,0.05,0.01,
3.419,-0.03,0.14,-0.14,-0.04,0.05,0.01,
3.427,-0.03,0.14,-0.14,-0.07,0.01,0.01,
3.428,-0.03,0.14,-0.14,-0.07,0.01,0.01,
3.429,-0.03,0.14,-0.13,-0.07,0.01,0.01,
3.43,-0.03,0.14,-0.13,-0.07,0.01,0.01,
3.437,-0.03,0.14,-0.13,-0.07,0.01,0.01,
3.438,-0.03,0.14,-0.13,-0.07,0.01,0.01,
3.439,-0.03,0.14,-0.13,-0.07,0.01,0.01,
3.44,-0.03,0.14,-0.13,-0.07,0.01,0.01,
3.446,-0.03,0.14,-0.13,-0.07,-0.01,0.00,
3.447,-0.03,0.14,-0.13,-0.07,-0.01,0.00,
3.448,-0.02,0.14,-0.13,-0.07,-0.01,0.00,
3.449,-0.02,0.14,-0.13,-0.07,-0.01,0.00,
3.455,-0.02,0.14,-0.13,-0.06,-0.01,0.00,
3.456,-0.02,0.14,-0.13,-0.06,-0.01,0.00,
3.456,-0.02,0.14,-0.13,-0.06,-0.01,0.00,
3.457,-0.02,0.14,-0.13,-0.06,-0.01,0.00,
3.465,-0.02,0.14,-0.13,-0.05,-0.01,0.00,
3.466,-0.02,0.14,-0.13,-0.05,-0.01,0.00,
3.467,-0.02,0.14,-0.12,-0.05,-0.01,0.00,
3.467,-0.02,0.14,-0.12,-0.05,-0.01,0.00,
3.477,-0.02,0.14,-0.12,-0.04,-0.01,0.00,
3.478,-0.02,0.14,-0.12,-0.04,-0.01,0.00,
3.479,-0.02,0.14,-0.12,-0.04,-0.01,0.00,
3.479,-0.02,0.14,-0.12,-0.04,-0.01,0.00,
3.485,-0.02,0.14,-0.12,-0.03,-0.00,0.00,
3.486,-0.02,0.14,-0.12,-0.03,-0.00,0.00,
3.487,-0.01,0.14,-0.12,-0.03,-0.00,0.00,
3.487,-0.01,0.14,-0.12,-0.03,-0.00,0.00,
3.494,-0.01,0.14,-0.12,-0.03,-0.00,0.00,
3.495,-0.01,0.14,-0.12,-0.03,-0.00,0.00,
3.495,-0.01,0.14,-0.11,-0.03,-0.00,0.00,
3.496,-0.01,0.14,-0.11,-0.03,-0.00,0.00,
3.502,-0.01,0.14,-0.11,-0.02,-0.00,0.00,
3.503,-0.01,0.14,-0.11,-0.02,-0.00,0.00,
3.504,-0.01,0.14,-0.11,-0.02,-0.00,0.00,
3.504,-0.01,0.14,-0.11,-0.02,-0.00,0.00,
3.513,-0.01,0.14,-0.11,-0.02,-0.00,0.00,
3.514,-0.01,0.14,-0.11,-0.02,-0.00,0.00,
3.514,-0.01,0.14,-0.10,-0.02,-0.00,0.00,
3.515,-0.01,0.14,-0.10,-0.02,-0.00,0.00,
3.522,-0.01,0.14,-0.10,-0.01,-0.00,0.00,
3.523,-0.01,0.14,-0.10,-0.01,-0.00,0.00,
3.524,-0.01,0.14,-0.10,-0.01,-0.00,0.00,
3.525,-0.01,0.14,-0.10,-0.01,-0.00,0.00,
3.532,-0.01,0.14,-0.10,-0.01,-0.00,0.00,
3.533,-0.01,0.14,-0.10,-0.01,-0.00,0.00,
3.534,-0.01,0.15,-0.09,-0.01,-0.00,0.00,
3.534,-0.01,0.15,-0.09,-0.01,-0.00,0.00,
3.541,-0.01,0.15,-0.09,-0.01,-0.00,0.00,
3.543,-0.01,0.15,-0.09,-0.01,-0.00,0.00,
3.543,-0.01,0.15,-0.09,-0.01,-0.00,0.00,
3.544,-0.01,0.15,-0.09,-0.01,-0.00,0.00,
3.551,-0.01,0.15,-0.09,-0.01,-0.00,0.00,
3.553,-0.01,0.15,-0.09,-0.01,-0.00,0.00,
3.554,-0.00,0.15,-0.09,-0.01,-0.00,0.00,
3.555,-0.00,0.15,-0.09,-0.01,-0.00,0.00,
3.56,-0.00,0.15,-0.09,-0.01,-0.00,0.00,
3.562,-0.00,0.15,-0.09,-0.01,-0.00,0.00,
3.567,-0.00,0.15,-0.08,-0.01,-0.00,0.00,
3.567,-0.00,0.15,-0.08,-0.01,-0.00,0.00,
3.57,-0.00,0.15,-0.08,-0.01,-0.00,0.00,
3.571,-0.00,0.15,-0.08,-0.01,-0.00,0.00,
3.572,-0.00,0.15,-0.08,-0.01,-0.00,0.00,
3.573,-0.00,0.15,-0.08,-0.01,-0.00,0.00,
3.579,-0.00,0.15,-0.08,-0.01,-0.00,0.00,
3.58,-0.00,0.15,-0.08,-0.01,-0.00,0.00,
3.581,0.00,0.15,-0.07,-0.01,-0.00,0.00,
3.582,0.00,0.15,-0.07,-0.01,-0.00,0.00,
3.592,0.00,0.15,-0.07,-0.00,-0.00,0.00,
3.594,0.00,0.15,-0.07,-0.00,-0.00,0.00,
3.594,0.00,0.15,-0.07,-0.00,-0.00,0.00,
3.595,0.00,0.15,-0.07,-0.00,-0.00,0.00,
3.598,0.00,0.15,-0.07,-0.00,-0.00,0.00,
3.599,0.00,0.15,-0.07,-0.00,-0.00,0.00,
3.6,0.00,0.15,-0.07,-0.00,-0.00,0.00,
3.6,0.00,0.15,-0.07,-0.00,-0.00,0.00,
3.607,0.00,0.15,-0.07,-0.00,-0.00,0.00,
3.608,0.00,0.15,-0.07,-0.00,-0.00,0.00,
3.609,0.01,0.15,-0.06,-0.00,-0.00,0.00,
3.61,0.01,0.15,-0.06,-0.00,-0.00,0.00,
3.618,0.01,0.15,-0.06,-0.00,-0.00,0.00,
3.619,0.01,0.15,-0.06,-0.00,-0.00,0.00,
3.619,0.01,0.15,-0.06,-0.00,-0.00,0.00,
3.62,0.01,0.15,-0.06,-0.00,-0.00,0.00,
3.627,0.01,0.15,-0.06,0.00,0.00,0.00,
3.628,0.01,0.15,-0.06,0.00,0.00,0.00,
3.629,0.01,0.15,-0.06,0.00,0.00,0.00,
3.629,0.01,0.15,-0.06,0.00,0.00,0.00,
3.636,0.01,0.15,-0.06,-0.00,-0.00,-0.00,
3.638,0.01,0.15,-0.06,-0.00,-0.00,-0.00,
3.638,0.01,0.15,-0.05,-0.00,-0.00,-0.00,
3.639,0.01,0.15,-0.05,-0.00,-0.00,-0.00,
3.646,0.01,0.15,-0.05,-0.00,0.00,-0.00,
3.648,0.01,0.15,-0.05,-0.00,0.00,-0.00,
3.649,0.01,0.15,-0.05,-0.00,0.00,-0.00,
3.65,0.01,0.15,-0.05,-0.00,0.00,-0.00,
3.655,0.01,0.15,-0.05,-0.00,0.00,0.00,
3.657,0.01,0.15,-0.05,-0.00,0.00,0.00,
3.659,0.01,0.15,-0.05,-0.00,0.00,0.00,
3.66,0.01,0.15,-0.05,-0.00,0.00,0.00,
3.665,0.01,0.15,-0.05,0.00,-0.00,0.00,
3.666,0.01,0.15,-0.05,0.00,-0.00,0.00,
3.666,0.01,0.15,-0.04,0.00,-0.00,0.00,
3.667,0.01,0.15,-0.04,0.00,-0.00,0.00,
3.676,0.01,0.15,-0.04,-0.00,-0.00,-0.00,
3.678,0.01,0.15,-0.04,-0.00,-0.00,-0.00,
3.679,0.01,0.15,-0.04,-0.00,-0.00,-0.00,
3.679,0.01,0.15,-0.04,-0.00,-0.00,-0.00,
3.685,0.01,0.15,-0.04,-0.00,-0.00,-0.00,
3.686,0.01,0.15,-0.04,-0.00,-0.00,-0.00,
3.686,0.01,0.15,-0.04,-0.00,-0.00,-0.00,
3.687,0.01,0.15,-0.04,-0.00,-0.00,-0.00,
3.693,0.01,0.15,-0.04,-0.00,0.00,-0.00,
3.694,0.01,0.15,-0.04,-0.00,0.00,-0.00,
3.694,0.01,0.15,-0.03,-0.00,0.00,-0.00,
3.694,0.01,0.15,-0.03,-0.00,0.00,-0.00,
3.703,0.01,0.15,-0.03,-0.00,0.00,-0.00,
3.704,0.01,0.15,-0.03,-0.00,0.00,-0.00,
3.704,0.01,0.15,-0.03,-0.00,0.00,-0.00,
3.705,0.01,0.15,-0.03,-0.00,0.00,-0.00,
3.712,0.01,0.15,-0.03,0.00,-0.00,-0.00,
3.713,0.01,0.15,-0.03,0.00,-0.00,-0.00,
3.714,0.17,0.09,0.20,0.00,-0.00,-0.00,
3.714,0.17,0.09,0.20,0.00,-0.00,-0.00,
3.722,0.17,0.09,0.20,-0.00,0.00,0.00,
3.723,0.17,0.09,0.20,-0.00,0.00,0.00,
3.724,0.15,0.08,0.17,-0.00,0.00,0.00,
3.724,0.15,0.08,0.17,-0.00,0.00,0.00,
3.732,0.15,0.08,0.17,-0.00,0.00,-0.00,
3.732,0.15,0.08,0.17,-0.00,0.00,-0.00,
3.733,0.15,0.07,0.07,-0.00,0.00,-0.00,
3.734,0.15,0.07,0.07,-0.00,0.00,-0.00,
3.741,0.15,0.07,0.07,-0.00,0.00,-0.00,
3.742,0.15,0.07,0.07,-0.00,0.00,-0.00,
3.743,0.15,0.07,0.07,-0.00,0.00,-0.00,
3.743,0.15,0.07,0.07,-0.00,0.00,-0.00,
3.751,0.15,0.07,0.07,0.00,0.00,-0.00,
3.752,0.15,0.07,0.07,0.00,0.00,-0.00,
3.753,0.15,0.07,0.08,0.00,0.00,-0.00,
3.753,0.15,0.07,0.08,0.00,0.00,-0.00,
3.76,0.15,0.07,0.08,0.00,0.00,0.00,
3.761,0.15,0.07,0.08,0.00,0.00,0.00,
3.761,0.15,0.07,0.08,0.00,0.00,0.00,
3.762,0.15,0.07,0.08,0.00,0.00,0.00,
3.769,0.15,0.07,0.08,0.00,0.00,0.00,
3.77,0.15,0.07,0.08,0.00,0.00,0.00,
3.771,0.15,0.07,0.08,0.00,0.00,0.00,
3.771,0.15,0.07,0.08,0.00,0.00,0.00,
3.779,0.15,0.07,0.08,-0.00,0.00,0.00,
3.78,0.15,0.07,0.08,-0.00,0.00,0.00,
3.78,0.15,0.07,0.08,-0.00,0.00,0.00,
3.781,0.15,0.07,0.08,-0.00,0.00,0.00,
3.79,0.15,0.07,0.08,0.00,-0.00,-0.00,
3.791,0.15,0.07,0.08,0.00,-0.00,-0.00,
3.791,-0.05,0.10,0.16,0.00,-0.00,-0.00,
3.792,-0.05,0.10,0.16,0.00,-0.00,-0.00,
3.798,-0.05,0.10,0.16,-0.00,0.00,-0.00,
3.799,-0.05,0.10,0.16,-0.00,0.00,-0.00,
3.805,-0.06,0.11,0.14,-0.00,0.00,-0.00,
3.805,-0.06,0.11,0.14,-0.00,0.00,-0.00,
3.808,-0.06,0.11,0.14,-0.00,0.00,-0.00,
3.809,-0.06,0.11,0.14,-0.00,0.00,-0.00,
3.81,-0.08,0.10,0.13,-0.00,0.00,-0.00,
3.811,-0.08,0.10,0.13,-0.00,0.00,-0.00,
3.818,-0.08,0.10,0.13,-0.00,-0.00,0.00,
3.819,-0.08,0.10,0.13,-0.00,-0.00,0.00,
3.819,-0.08,0.10,0.13,-0.00,-0.00,0.00,
3.82,-0.08,0.10,0.13,-0.00,-0.00,0.00,
3.826,-0.08,0.10,0.13,0.08,0.07,0.02,
3.827,-0.08,0.10,0.13,0.08,0.07,0.02,
3.828,-0.08,0.10,0.13,0.08,0.07,0.02,
3.829,-0.08,0.10,0.13,0.08,0.07,0.02,
3.836,-0.08,0.10,0.13,0.08,0.05,0.07,
3.837,-0.08,0.10,0.13,0.08,0.05,0.07,
3.837,-0.08,0.10,0.13,0.08,0.05,0.07,
3.838,-0.08,0.10,0.13,0.08,0.05,0.07,
3.845,-0.08,0.10,0.13,0.08,0.03,0.10,
3.846,-0.08,0.10,0.13,0.08,0.03,0.10,
3.847,-0.08,0.10,0.13,0.08,0.03,0.10,
3.848,-0.08,0.10,0.13,0.08,0.03,0.10,
3.855,-0.08,0.10,0.13,0.07,0.01,0.12,
3.856,-0.08,0.10,0.13,0.07,0.01,0.12,
3.857,-0.08,0.10,0.13,0.07,0.01,0.12,
3.857,-0.08,0.10,0.13,0.07,0.01,0.12,
3.864,-0.08,0.10,0.13,0.06,0.00,0.12,
3.865,-0.08,0.10,0.13,0.06,0.00,0.12,
3.866,-0.08,0.10,0.12,0.06,0.00,0.12,
3.866,-0.08,0.10,0.12,0.06,0.00,0.12,
3.875,-0.08,0.10,0.12,0.06,-0.00,0.12,
3.876,-0.08,0.10,0.12,0.06,-0.00,0.12,
3.877,-0.08,0.10,0.12,0.06,-0.00,0.12,
3.877,-0.08,0.10,0.12,0.06,-0.00,0.12,
3.884,-0.08,0.10,0.12,0.05,-0.01,0.12,
3.884,-0.08,0.10,0.12,0.05,-0.01,0.12,
3.885,-0.08,0.10,0.12,0.05,-0.01,0.12,
3.885,-0.08,0.10,0.12,0.05,-0.01,0.12,
3.894,-0.08,0.10,0.12,0.04,-0.01,0.11,
3.895,-0.08,0.10,0.12,0.04,-0.01,0.11,
3.895,-0.08,0.10,0.12,0.04,-0.01,0.11,
3.896,-0.08,0.10,0.12,0.04,-0.01,0.11,
3.902,-0.08,0.10,0.12,0.04,-0.01,0.10,
3.903,-0.08,0.10,0.12,0.04,-0.01,0.10,
3.904,-0.08,0.10,0.11,0.04,-0.01,0.10,
3.904,-0.08,0.10,0.11,0.04,-0.01,0.10,
3.912,-0.08,0.10,0.11,0.03,-0.01,0.08,
3.913,-0.08,0.10,0.11,0.03,-0.01,0.08,
3.914,-0.08,0.10,0.11,0.03,-0.01,0.08,
3.915,-0.08,0.10,0.11,0.03,-0.01,0.08,
3.922,-0.08,0.10,0.11,0.03,-0.01,0.07,
3.923,-0.08,0.10,0.11,0.03,-0.01,0.07,
3.924,-0.08,0.10,0.10,0.03,-0.01,0.07,
3.924,-0.08,0.10,0.10,0.03,-0.01,0.07,
3.931,-0.08,0.10,0.10,0.03,-0.01,0.07,
3.932,-0.08,0.10,0.10,0.03,-0.01,0.07,
3.933,-0.08,0.10,0.10,0.03,-0.01,0.07,
3.933,-0.08,0.10,0.10,0.03,-0.01,0.07,
3.941,-0.08,0.10,0.10,0.02,-0.01,0.05,
3.942,-0.08,0.10,0.10,0.02,-0.01,0.05,
3.942,-0.08,0.10,0.10,0.02,-0.01,0.05,
3.943,-0.08,0.10,0.10,0.02,-0.01,0.05,
3.951,-0.08,0.10,0.10,0.02,-0.00,0.04,
3.952,-0.08,0.10,0.10,0.02,-0.00,0.04,
3.952,0.03,0.11,0.08,0.02,-0.00,0.04,
3.953,0.03,0.11,0.08,0.02,-0.00,0.04,
3.96,0.03,0.11,0.08,0.01,-0.00,0.04,
3.961,0.03,0.11,0.08,0.01,-0.00,0.04,
3.961,0.05,0.10,0.04,0.01,-0.00,0.04,
3.962,0.05,0.10,0.04,0.01,-0.00,0.04,
3.969,0.05,0.10,0.04,0.01,0.01,0.02,
3.97,0.05,0.10,0.04,0.01,0.01,0.02,
3.971,0.05,0.10,0.04,0.01,0.01,0.02,
3.971,0.05,0.10,0.04,0.01,0.01,0.02,
3.978,0.05,0.10,0.04,0.01,0.03,-0.01,
3.979,0.05,0.10,0.04,0.01,0.03,-0.01,
3.98,0.06,0.10,0.03,0.01,0.03,-0.01,
3.98,0.06,0.10,0.03,0.01,0.03,-0.01,
3.988,0.06,0.10,0.03,-0.00,0.07,-0.05,
3.99,0.06,0.10,0.03,-0.00,0.07,-0.05,
3.991,0.06,0.10,0.03,-0.00,0.07,-0.05,
3.991,0.06,0.10,0.03,-0.00,0.07,-0.05,
3.998,0.06,0.10,0.03,-0.01,0.12,-0.08,
3.999,0.06,0.10,0.03,-0.01,0.12,-0.08,
3.999,0.06,0.10,0.02,-0.01,0.12,-0.08,
4.0,0.06,0.10,0.02,-0.01,0.12,-0.08,
4.007,0.06,0.10,0.02,-0.01,0.14,-0.10,
4.009,0.06,0.10,0.02,-0.01,0.14,-0.10,
4.009,0.06,0.10,0.02,-0.01,0.14,-0.10,
4.01,0.06,0.10,0.02,-0.01,0.14,-0.10,
4.017,0.06,0.10,0.02,-0.01,0.16,-0.10,
4.018,0.06,0.10,0.02,-0.01,0.16,-0.10,
4.018,0.07,0.10,0.01,-0.01,0.16,-0.10,
4.019,0.07,0.10,0.01,-0.01,0.16,-0.10,
4.026,0.07,0.10,0.01,-0.02,0.16,-0.11,
4.027,0.07,0.10,0.01,-0.02,0.16,-0.11,
4.027,0.07,0.10,0.01,-0.02,0.16,-0.11,
4.028,0.07,0.10,0.01,-0.02,0.16,-0.11,
4.036,0.07,0.10,0.01,-0.02,0.16,-0.10,
4.037,0.07,0.10,0.01,-0.02,0.16,-0.10,
4.042,0.07,0.10,0.00,-0.02,0.16,-0.10,
4.043,0.07,0.10,0.00,-0.02,0.16,-0.10,
4.045,0.07,0.10,0.00,-0.02,0.15,-0.10,
4.046,0.07,0.10,0.00,-0.02,0.15,-0.10,
4.047,0.07,0.10,-0.00,-0.02,0.15,-0.10,
4.048,0.07,0.10,-0.00,-0.02,0.15,-0.10,
4.055,0.07,0.10,-0.00,-0.01,0.14,-0.09,
4.056,0.07,0.10,-0.00,-0.01,0.14,-0.09,
4.056,0.07,0.10,-0.01,-0.01,0.14,-0.09,
4.057,0.07,0.10,-0.01,-0.01,0.14,-0.09,
4.064,0.07,0.10,-0.01,-0.01,0.12,-0.08,
4.065,0.07,0.10,-0.01,-0.01,0.12,-0.08,
4.066,0.08,0.10,-0.01,-0.01,0.12,-0.08,
4.066,0.08,0.10,-0.01,-0.01,0.12,-0.08,
4.075,0.08,0.10,-0.01,-0.01,0.10,-0.06,
4.076,0.08,0.10,-0.01,-0.01,0.10,-0.06,
4.077,0.08,0.09,-0.02,-0.01,0.10,-0.06,
4.078,0.08,0.09,-0.02,-0.01,0.10,-0.06,
4.083,0.08,0.09,-0.02,-0.01,0.08,-0.05,
4.084,0.08,0.09,-0.02,-0.01,0.08,-0.05,
4.084,0.08,0.09,-0.02,-0.01,0.08,-0.05,
4.085,0.08,0.09,-0.02,-0.01,0.08,-0.05,
4.093,0.08,0.09,-0.02,-0.01,0.07,-0.04,
4.094,0.08,0.09,-0.02,-0.01,0.07,-0.04,
4.095,0.08,0.09,-0.02,-0.01,0.07,-0.04,
4.095,0.08,0.09,-0.02,-0.01,0.07,-0.04,
4.102,0.08,0.09,-0.02,-0.01,0.05,-0.04,
4.103,0.08,0.09,-0.02,-0.01,0.05,-0.04,
4.104,0.08,0.09,-0.03,-0.01,0.05,-0.04,
4.104,0.08,0.09,-0.03,-0.01,0.05,-0.04,
4.112,0.08,0.09,-0.03,-0.00,0.04,-0.03,
4.113,0.08,0.09,-0.03,-0.00,0.04,-0.03,
4.113,0.08,0.09,-0.03,-0.00,0.04,-0.03,
4.114,0.08,0.09,-0.03,-0.00,0.04,-0.03,
4.122,0.08,0.09,-0.03,-0.00,0.04,-0.02,
4.123,0.08,0.09,-0.03,-0.00,0.04,-0.02,
4.124,0.07,0.09,-0.03,-0.00,0.04,-0.02,
4.124,0.07,0.09,-0.03,-0.00,0.04,-0.02,
4.131,0.07,0.09,-0.03,-0.00,0.04,-0.02,
4.131,0.07,0.09,-0.03,-0.00,0.04,-0.02,
4.132,0.07,0.09,-0.03,-0.00,0.04,-0.02,
4.133,0.07,0.09,-0.03,-0.00,0.04,-0.02,
4.141,0.07,0.09,-0.03,-0.00,0.03,-0.02,
4.142,0.07,0.09,-0.03,-0.00,0.03,-0.02,
4.142,0.07,0.09,-0.04,-0.00,0.03,-0.02,
4.143,0.07,0.09,-0.04,-0.00,0.03,-0.02,
4.151,0.07,0.09,-0.04,-0.00,0.02,-0.02,
4.152,0.07,0.09,-0.04,-0.00,0.02,-0.02,
4.152,0.07,0.09,-0.04,-0.00,0.02,-0.02,
4.153,0.07,0.09,-0.04,-0.00,0.02,-0.02,
4.16,0.07,0.09,-0.04,-0.00,0.02,-0.01,
4.161,0.07,0.09,-0.04,-0.00,0.02,-0.01,
4.161,0.07,0.09,-0.04,-0.00,0.02,-0.01,
4.162,0.07,0.09,-0.04,-0.00,0.02,-0.01,
4.169,0.07,0.09,-0.04,-0.00,0.02,-0.01,
4.17,0.07,0.09,-0.04,-0.00,0.02,-0.01,
4.17,0.07,0.09,-0.04,-0.00,0.02,-0.01,
4.171,0.07,0.09,-0.04,-0.00,0.02,-0.01,
4.179,0.07,0.09,-0.04,-0.00,0.01,-0.01,
4.179,0.07,0.09,-0.04,-0.00,0.01,-0.01,
4.18,0.07,0.09,-0.04,-0.00,0.01,-0.01,
4.181,0.07,0.09,-0.04,-0.00,0.01,-0.01,
4.188,0.07,0.09,-0.04,-0.00,0.01,-0.01,
4.189,0.07,0.09,-0.04,-0.00,0.01,-0.01,
4.19,0.07,0.09,-0.04,-0.00,0.01,-0.01,
4.19,0.07,0.09,-0.04,-0.00,0.01,-0.01,
4.197,0.07,0.09,-0.04,-0.00,0.01,-0.01,
4.198,0.07,0.09,-0.04,-0.00,0.01,-0.01,
4.199,0.07,0.09,-0.04,-0.00,0.01,-0.01,
4.199,0.07,0.09,-0.04,-0.00,0.01,-0.01,
4.207,0.07,0.09,-0.04,-0.00,0.01,-0.00,
4.208,0.07,0.09,-0.04,-0.00,0.01,-0.00,
4.209,0.06,0.09,-0.04,-0.00,0.01,-0.00,
4.209,0.06,0.09,-0.04,-0.00,0.01,-0.00,
4.217,0.06,0.09,-0.04,-0.00,0.01,-0.00,
4.218,0.06,0.09,-0.04,-0.00,0.01,-0.00,
4.219,0.06,0.09,-0.04,-0.00,0.01,-0.00,
4.219,0.06,0.09,-0.04,-0.00,0.01,-0.00,
4.226,0.06,0.09,-0.04,-0.00,0.01,-0.00,
4.227,0.06,0.09,-0.04,-0.00,0.01,-0.00,
4.227,0.06,0.09,-0.04,-0.00,0.01,-0.00,
4.228,0.06,0.09,-0.04,-0.00,0.01,-0.00,
4.236,0.06,0.09,-0.04,-0.00,-0.00,0.00,
4.237,0.06,0.09,-0.04,-0.00,-0.00,0.00,
4.237,0.06,0.09,-0.04,-0.00,-0.00,0.00,
4.238,0.06,0.09,-0.04,-0.00,-0.00,0.00,
4.245,0.06,0.09,-0.04,0.00,0.00,0.00,
4.246,0.06,0.09,-0.04,0.00,0.00,0.00,
4.247,0.05,0.09,-0.04,0.00,0.00,0.00,
4.247,0.05,0.09,-0.04,0.00,0.00,0.00,
4.254,0.05,0.09,-0.04,-0.00,-0.00,0.00,
4.255,0.05,0.09,-0.04,-0.00,-0.00,0.00,
4.256,0.05,0.09,-0.03,-0.00,-0.00,0.00,
4.256,0.05,0.09,-0.03,-0.00,-0.00,0.00,
4.264,0.05,0.09,-0.03,-0.00,-0.00,0.00,
4.265,0.05,0.09,-0.03,-0.00,-0.00,0.00,
4.266,0.05,0.09,-0.03,-0.00,-0.00,0.00,
4.267,0.05,0.09,-0.03,-0.00,-0.00,0.00,
4.277,0.05,0.09,-0.03,0.00,-0.00,0.00,
4.278,0.05,0.09,-0.03,0.00,-0.00,0.00,
4.282,0.04,0.09,-0.03,0.00,-0.00,0.00,
4.283,0.04,0.09,-0.03,0.00,-0.00,0.00,
4.283,0.04,0.09,-0.03,0.00,-0.00,0.00,
4.284,0.04,0.09,-0.03,0.00,-0.00,0.00,
4.285,0.04,0.10,-0.03,0.00,-0.00,0.00,
4.285,0.04,0.10,-0.03,0.00,-0.00,0.00,
4.293,0.04,0.10,-0.03,0.00,0.00,0.00,
4.294,0.04,0.10,-0.03,0.00,0.00,0.00,
4.295,0.04,0.10,-0.03,0.00,0.00,0.00,
4.295,0.04,0.10,-0.03,0.00,0.00,0.00,
4.302,0.04,0.10,-0.03,-0.00,0.00,-0.00,
4.303,0.04,0.10,-0.03,-0.00,0.00,-0.00,
4.304,0.03,0.10,-0.03,-0.00,0.00,-0.00,
4.304,0.03,0.10,-0.03,-0.00,0.00,-0.00,
4.312,0.03,0.10,-0.03,-0.00,-0.00,-0.00,
4.313,0.03,0.10,-0.03,-0.00,-0.00,-0.00,
4.313,0.03,0.10,-0.03,-0.00,-0.00,-0.00,
4.314,0.03,0.10,-0.03,-0.00,-0.00,-0.00,
4.322,0.03,0.10,-0.03,-0.00,0.00,0.00,
4.323,0.03,0.10,-0.03,-0.00,0.00,0.00,
4.323,0.03,0.10,-0.02,-0.00,0.00,0.00,
4.324,0.03,0.10,-0.02,-0.00,0.00,0.00,
4.331,0.03,0.10,-0.02,-0.00,0.00,0.00,
4.331,0.03,0.10,-0.02,-0.00,0.00,0.00,
4.332,0.03,0.10,-0.02,-0.00,0.00,0.00,
4.332,0.03,0.10,-0.02,-0.00,0.00,0.00,
4.341,0.03,0.10,-0.02,-0.00,-0.00,-0.00,
4.341,0.03,0.10,-0.02,-0.00,-0.00,-0.00,
4.342,0.02,0.10,-0.02,-0.00,-0.00,-0.00,
4.342,0.02,0.10,-0.02,-0.00,-0.00,-0.00,
4.35,0.02,0.10,-0.02,-0.00,-0.00,0.00,
4.351,0.02,0.10,-0.02,-0.00,-0.00,0.00,
4.351,0.02,0.10,-0.02,-0.00,-0.00,0.00,
4.351,0.02,0.10,-0.02,-0.00,-0.00,0.00,
4.36,0.02,0.10,-0.02,-0.00,-0.00,0.00,
4.361,0.02,0.10,-0.02,-0.00,-0.00,0.00,
4.361,0.02,0.10,-0.02,-0.00,-0.00,0.00,
4.361,0.02,0.10,-0.02,-0.00,-0.00,0.00,
4.369,0.02,0.10,-0.02,0.00,-0.00,0.00,
4.37,0.02,0.10,-0.02,0.00,-0.00,0.00,
4.37,0.01,0.10,-0.02,0.00,-0.00,0.00,
4.37,0.01,0.10,-0.02,0.00,-0.00,0.00,
4.379,0.01,0.10,-0.02,-0.00,0.00,-0.00,
4.38,0.01,0.10,-0.02,-0.00,0.00,-0.00,
4.381,0.01,0.10,-0.02,-0.00,0.00,-0.00,
4.382,0.01,0.10,-0.02,-0.00,0.00,-0.00,
4.392,0.01,0.10,-0.02,-0.00,0.00,0.00,
4.394,0.01,0.10,-0.02,-0.00,0.00,0.00,
4.394,0.01,0.10,-0.01,-0.00,0.00,0.00,
4.395,0.01,0.10,-0.01,-0.00,0.00,0.00,
4.41,0.01,0.10,-0.01,-0.00,-0.00,-0.00,
4.411,0.01,0.10,-0.01,-0.00,-0.00,-0.00,
4.411,0.01,0.10,-0.01,-0.00,-0.00,-0.00,
4.411,0.01,0.10,-0.01,-0.00,-0.00,-0.00,
4.412,0.01,0.10,-0.01,-0.00,0.00,0.00,
4.412,0.01,0.10,-0.01,-0.00,0.00,0.00,
4.412,0.01,0.10,-0.01,-0.00,0.00,0.00,
4.412,0.01,0.10,-0.01,-0.00,0.00,0.00,
4.417,0.01,0.10,-0.01,-0.00,0.00,0.00,
4.418,0.01,0.10,-0.01,-0.00,0.00,0.00,
4.419,0.01,0.10,-0.01,-0.00,0.00,0.00,
4.419,0.01,0.10,-0.01,-0.00,0.00,0.00,
4.426,0.01,0.10,-0.01,-0.00,-0.00,-0.00,
4.427,0.01,0.10,-0.01,-0.00,-0.00,-0.00,
4.427,0.01,0.10,-0.01,-0.00,-0.00,-0.00,
4.428,0.01,0.10,-0.01,-0.00,-0.00,-0.00,
4.435,0.01,0.10,-0.01,-0.00,0.00,-0.00,
4.436,0.01,0.10,-0.01,-0.00,0.00,-0.00,
4.437,0.01,0.10,-0.01,-0.00,0.00,-0.00,
4.437,0.01,0.10,-0.01,-0.00,0.00,-0.00,
4.445,0.01,0.10,-0.01,-0.00,-0.00,-0.00,
4.446,0.01,0.10,-0.01,-0.00,-0.00,-0.00,
4.447,0.01,0.10,-0.01,-0.00,-0.00,-0.00,
4.447,0.01,0.10,-0.01,-0.00,-0.00,-0.00,
4.454,0.01,0.10,-0.01,0.00,0.00,-0.00,
4.455,0.01,0.10,-0.01,0.00,0.00,-0.00,
4.456,0.01,0.10,-0.01,0.00,0.00,-0.00,
4.457,0.01,0.10,-0.01,0.00,0.00,-0.00,
4.464,0.01,0.10,-0.01,-0.00,0.00,-0.00,
4.465,0.01,0.10,-0.01,-0.00,0.00,-0.00,
4.466,0.01,0.10,-0.01,-0.00,0.00,-0.00,
4.466,0.01,0.10,-0.01,-0.00,0.00,-0.00,
4.475,0.01,0.10,-0.01,0.00,0.00,-0.00,
4.476,0.01,0.10,-0.01,0.00,0.00,-0.00,
4.477,0.01,0.10,-0.01,0.00,0.00,-0.00,
4.477,0.01,0.10,-0.01,0.00,0.00,-0.00,
4.485,0.01,0.10,-0.01,0.00,0.00,0.00,
4.485,0.01,0.10,-0.01,0.00,0.00,0.00,
4.486,0.01,0.10,-0.01,0.00,0.00,0.00,
4.486,0.01,0.10,-0.01,0.00,0.00,0.00,
4.493,0.01,0.10,-0.01,0.00,-0.00,-0.00,
4.493,0.01,0.10,-0.01,0.00,-0.00,-0.00,
4.494,0.01,0.10,-0.01,0.00,-0.00,-0.00,
4.494,0.01,0.10,-0.01,0.00,-0.00,-0.00,
4.502,0.01,0.10,-0.01,-0.00,0.00,0.00,
4.503,0.01,0.10,-0.01,-0.00,0.00,0.00,
4.503,0.01,0.10,-0.01,-0.00,0.00,0.00,
4.504,0.01,0.10,-0.01,-0.00,0.00,0.00,
4.512,0.01,0.10,-0.01,-0.00,0.00,0.00,
4.513,0.01,0.10,-0.01,-0.00,0.00,0.00,
4.52,0.01,0.10,-0.01,-0.00,0.00,0.00,
4.52,0.01,0.10,-0.01,-0.00,0.00,0.00,
4.523,0.01,0.10,-0.01,0.00,-0.00,-0.00,
4.524,0.01,0.10,-0.01,0.00,-0.00,-0.00,
4.525,0.01,0.10,-0.01,0.00,-0.00,-0.00,
4.525,0.01,0.10,-0.01,0.00,-0.00,-0.00,
4.531,0.01,0.10,-0.01,0.00,-0.00,-0.00,
4.531,0.01,0.10,-0.01,0.00,-0.00,-0.00,
4.531,0.01,0.10,-0.01,0.00,-0.00,-0.00,
4.532,0.01,0.10,-0.01,0.00,-0.00,-0.00,
4.54,0.01,0.10,-0.01,0.00,0.00,0.00,
4.541,0.01,0.10,-0.01,0.00,0.00,0.00,
4.542,0.01,0.10,-0.01,0.00,0.00,0.00,
4.542,0.01,0.10,-0.01,0.00,0.00,0.00,
4.55,0.01,0.10,-0.01,0.00,-0.00,-0.00,
4.551,0.01,0.10,-0.01,0.00,-0.00,-0.00,
4.551,0.01,0.10,-0.01,0.00,-0.00,-0.00,
4.552,0.01,0.10,-0.01,0.00,-0.00,-0.00,
4.559,0.01,0.10,-0.01,0.00,-0.00,0.00,
4.56,0.01,0.10,-0.01,0.00,-0.00,0.00,
4.561,0.01,0.10,-0.01,0.00,-0.00,0.00,
4.561,0.01,0.10,-0.01,0.00,-0.00,0.00,
4.569,0.01,0.10,-0.01,0.00,0.00,0.00,
4.57,0.01,0.10,-0.01,0.00,0.00,0.00,
4.571,0.01,0.10,-0.01,0.00,0.00,0.00,
4.572,0.01,0.10,-0.01,0.00,0.00,0.00,
4.578,0.01,0.10,-0.01,0.00,-0.00,0.00,
4.58,0.01,0.10,-0.01,0.00,-0.00,0.00,
4.581,0.01,0.10,-0.01,0.00,-0.00,0.00,
4.582,0.01,0.10,-0.01,0.00,-0.00,0.00,
4.595,0.01,0.10,-0.01,0.00,0.00,-0.00,
4.596,0.01,0.10,-0.01,0.00,0.00,-0.00,
4.597,0.01,0.10,-0.01,0.00,0.00,-0.00,
4.597,0.01,0.10,-0.01,0.00,0.00,-0.00,
4.598,0.01,0.10,-0.01,0.00,-0.00,-0.00,
4.598,0.01,0.10,-0.01,0.00,-0.00,-0.00,
4.599,0.01,0.10,-0.01,0.00,-0.00,-0.00,
4.599,0.01,0.10,-0.01,0.00,-0.00,-0.00,
4.607,0.01,0.10,-0.01,-0.00,-0.00,0.00,
4.608,0.01,0.10,-0.01,-0.00,-0.00,0.00,
4.608,0.01,0.10,-0.01,-0.00,-0.00,0.00,
4.608,0.01,0.10,-0.01,-0.00,-0.00,0.00,
4.616,0.01,0.10,-0.01,-0.00,-0.00,-0.00,
4.617,0.01,0.10,-0.01,-0.00,-0.00,-0.00,
4.617,0.01,0.10,-0.01,-0.00,-0.00,-0.00,
4.618,0.01,0.10,-0.01,-0.00,-0.00,-0.00,
4.626,0.01,0.10,-0.01,0.00,-0.00,0.00,
4.626,0.01,0.10,-0.01,0.00,-0.00,0.00,
4.627,0.01,0.10,-0.01,0.00,-0.00,0.00,
4.628,0.01,0.10,-0.01,0.00,-0.00,0.00,
4.636,0.01,0.10,-0.01,0.00,0.00,0.00,
4.637,0.01,0.10,-0.01,0.00,0.00,0.00,
4.637,0.01,0.10,-0.01,0.00,0.00,0.00,
4.638,0.01,0.10,-0.01,0.00,0.00,0.00,
4.645,0.01,0.10,-0.01,-0.00,-0.00,-0.00,
4.646,0.01,0.10,-0.01,-0.00,-0.00,-0.00,
4.646,0.01,0.10,-0.01,-0.00,-0.00,-0.00,
4.647,0.01,0.10,-0.01,-0.00,-0.00,-0.00,
4.655,0.01,0.10,-0.01,-0.00,-0.00,-0.00,
4.656,0.01,0.10,-0.01,-0.00,-0.00,-0.00,
4.656,0.01,0.10,-0.01,-0.00,-0.00,-0.00,
4.657,0.01,0.10,-0.01,-0.00,-0.00,-0.00,
4.664,0.01,0.10,-0.01,0.00,0.00,-0.00,
4.665,0.01,0.10,-0.01,0.00,0.00,-0.00,
4.665,0.01,0.10,-0.01,0.00,0.00,-0.00,
4.666,0.01,0.10,-0.01,0.00,0.00,-0.00,
4.674,0.01,0.10,-0.01,0.00,0.00,-0.00,
4.675,0.01,0.10,-0.01,0.00,0.00,-0.00,
4.676,0.01,0.10,-0.01,0.00,0.00,-0.00,
4.676,0.01,0.10,-0.01,0.00,0.00,-0.00,
4.684,0.01,0.10,-0.01,0.00,0.00,0.00,
4.685,0.01,0.10,-0.01,0.00,0.00,0.00,
4.685,0.01,0.10,-0.01,0.00,0.00,0.00,
4.686,0.01,0.10,-0.01,0.00,0.00,0.00,
4.692,0.01,0.10,-0.01,0.00,-0.00,-0.00,
4.693,0.01,0.10,-0.01,0.00,-0.00,-0.00,
4.694,0.01,0.10,-0.01,0.00,-0.00,-0.00,
4.694,0.01,0.10,-0.01,0.00,-0.00,-0.00,
4.702,0.01,0.10,-0.01,0.00,-0.00,0.00,
4.702,0.01,0.10,-0.01,0.00,-0.00,0.00,
4.703,0.01,0.10,-0.01,0.00,-0.00,0.00,
4.703,0.01,0.10,-0.01,0.00,-0.00,0.00,
4.712,0.01,0.10,-0.01,-0.00,-0.00,0.00,
4.713,0.01,0.10,-0.01,-0.00,-0.00,0.00,
4.714,0.01,0.10,-0.01,-0.00,-0.00,0.00,
4.714,0.01,0.10,-0.01,-0.00,-0.00,0.00,
4.723,0.01,0.10,-0.01,-0.00,-0.00,0.00,
4.724,0.01,0.10,-0.01,-0.00,-0.00,0.00,
4.725,0.01,0.10,-0.01,-0.00,-0.00,0.00,
4.725,0.01,0.10,-0.01,-0.00,-0.00,0.00,
4.731,0.01,0.10,-0.01,0.00,-0.00,0.00,
4.732,0.01,0.10,-0.01,0.00,-0.00,0.00,
4.733,0.01,0.10,-0.01,0.00,-0.00,0.00,
4.733,0.01,0.10,-0.01,0.00,-0.00,0.00,
4.74,0.01,0.10,-0.01,0.00,0.00,-0.00,
4.742,0.01,0.10,-0.01,0.00,0.00,-0.00,
4.742,0.01,0.10,-0.01,0.00,0.00,-0.00,
4.743,0.01,0.10,-0.01,0.00,0.00,-0.00,
4.751,0.01,0.10,-0.01,-0.00,0.00,0.00,
4.752,0.01,0.10,-0.01,-0.00,0.00,0.00,
4.758,0.01,0.10,-0.01,-0.00,0.00,0.00,
4.758,0.01,0.10,-0.01,-0.00,0.00,0.00,
4.759,0.01,0.10,-0.01,0.00,-0.00,-0.00,
4.76,0.01,0.10,-0.01,0.00,-0.00,-0.00,
4.76,0.01,0.10,-0.01,0.00,-0.00,-0.00,
4.761,0.01,0.10,-0.01,0.00,-0.00,-0.00,
4.768,0.01,0.10,-0.01,0.00,0.00,-0.00,
4.769,0.01,0.10,-0.01,0.00,0.00,-0.00,
4.77,0.01,0.10,-0.01,0.00,0.00,-0.00,
4.77,0.01,0.10,-0.01,0.00,0.00,-0.00,
4.778,0.01,0.10,-0.01,-0.00,0.00,0.00,
4.779,0.01,0.10,-0.01,-0.00,0.00,0.00,
4.78,0.01,0.10,-0.01,-0.00,0.00,0.00,
4.78,0.01,0.10,-0.01,-0.00,0.00,0.00,
4.789,0.01,0.10,-0.01,-0.00,0.00,-0.00,
4.79,0.01,0.10,-0.01,-0.00,0.00,-0.00,
4.791,0.01,0.10,-0.01,-0.00,0.00,-0.00,
4.791,0.01,0.10,-0.01,-0.00,0.00,-0.00,
4.797,0.01,0.10,-0.01,0.00,-0.00,0.00,
4.798,0.01,0.10,-0.01,0.00,-0.00,0.00,
4.798,0.01,0.10,-0.01,0.00,-0.00,0.00,
4.799,0.01,0.10,-0.01,0.00,-0.00,0.00,
4.807,0.01,0.10,-0.01,0.00,0.00,0.00,
4.808,0.01,0.10,-0.01,0.00,0.00,0.00,
4.809,0.01,0.10,-0.01,0.00,0.00,0.00,
4.809,0.01,0.10,-0.01,0.00,0.00,0.00,
4.817,0.01,0.10,-0.01,-0.00,0.00,0.00,
4.818,0.01,0.10,-0.01,-0.00,0.00,0.00,
4.818,0.01,0.10,-0.01,-0.00,0.00,0.00,
4.819,0.01,0.10,-0.01,-0.00,0.00,0.00,
4.826,0.01,0.10,-0.01,0.00,0.00,0.00,
4.827,0.01,0.10,-0.01,0.00,0.00,0.00,
4.827,0.01,0.10,-0.01,0.00,0.00,0.00,
4.828,0.01,0.10,-0.01,0.00,0.00,0.00,
4.836,0.01,0.10,-0.01,-0.00,0.00,-0.00,
4.837,0.01,0.10,-0.01,-0.00,0.00,-0.00,
4.838,0.01,0.10,-0.01,-0.00,0.00,-0.00,
4.838,0.01,0.10,-0.01,-0.00,0.00,-0.00,
4.845,0.01,0.10,-0.01,0.00,-0.00,-0.00,
4.846,0.01,0.10,-0.01,0.00,-0.00,-0.00,
4.847,0.01,0.10,-0.01,0.00,-0.00,-0.00,
4.847,0.01,0.10,-0.01,0.00,-0.00,-0.00,
4.855,0.01,0.10,-0.01,0.00,-0.00,-0.00,
4.855,0.01,0.10,-0.01,0.00,-0.00,-0.00,
4.856,0.01,0.10,-0.01,0.00,-0.00,-0.00,
4.857,0.01,0.10,-0.01,0.00,-0.00,-0.00,
4.864,0.01,0.10,-0.01,0.00,-0.00,0.00,
4.865,0.01,0.10,-0.01,0.00,-0.00,0.00,
4.866,0.01,0.10,-0.01,0.00,-0.00,0.00,
4.866,0.01,0.10,-0.01,0.00,-0.00,0.00,
4.874,0.01,0.10,-0.01,0.00,-0.00,-0.00,
4.876,0.01,0.10,-0.01,0.00,-0.00,-0.00,
4.876,0.01,0.10,-0.01,0.00,-0.00,-0.00,
4.877,0.01,0.10,-0.01,0.00,-0.00,-0.00,
4.886,0.01,0.10,-0.01,0.00,-0.00,0.00,
4.887,0.01,0.10,-0.01,0.00,-0.00,0.00,
4.887,0.01,0.10,-0.01,0.00,-0.00,0.00,
4.887,0.01,0.10,-0.01,0.00,-0.00,0.00,
4.892,0.01,0.10,-0.01,-0.00,0.00,0.00,
4.893,0.01,0.10,-0.01,-0.00,0.00,0.00,
4.893,0.01,0.10,-0.01,-0.00,0.00,0.00,
4.893,0.01,0.10,-0.01,-0.00,0.00,0.00,
4.902,0.01,0.10,-0.01,-0.00,0.00,-0.00,
4.902,0.01,0.10,-0.01,-0.00,0.00,-0.00,
4.903,0.01,0.10,-0.01,-0.00,0.00,-0.00,
4.903,0.01,0.10,-0.01,-0.00,0.00,-0.00,
4.913,0.01,0.10,-0.01,-0.00,-0.00,0.00,
4.914,0.01,0.10,-0.01,-0.00,-0.00,0.00,
4.914,0.01,0.10,-0.01,-0.00,-0.00,0.00,
4.915,0.01,0.10,-0.01,-0.00,-0.00,0.00,
4.922,0.01,0.10,-0.01,-0.00,-0.00,0.00,
4.923,0.01,0.10,-0.01,-0.00,-0.00,0.00,
4.925,0.01,0.10,-0.01,-0.00,-0.00,0.00,
4.926,0.01,0.10,-0.01,-0.00,-0.00,0.00,
4.93,0.01,0.10,-0.01,0.00,-0.00,-0.00,
4.931,0.01,0.10,-0.01,0.00,-0.00,-0.00,
4.932,0.01,0.10,-0.01,0.00,-0.00,-0.00,
4.933,0.01,0.10,-0.01,0.00,-0.00,-0.00,
4.94,0.01,0.10,-0.01,-0.00,0.00,0.00,
4.942,0.01,0.10,-0.01,-0.00,0.00,0.00,
4.942,0.01,0.10,-0.01,-0.00,0.00,0.00,
4.943,0.01,0.10,-0.01,-0.00,0.00,0.00,
4.95,0.01,0.10,-0.01,-0.00,-0.00,0.00,
4.951,0.01,0.10,-0.01,-0.00,-0.00,0.00,
4.952,0.01,0.10,-0.01,-0.00,-0.00,0.00,
4.952,0.01,0.10,-0.01,-0.00,-0.00,0.00,
4.959,0.01,0.10,-0.01,0.00,0.00,-0.00,
4.96,0.01,0.10,-0.01,0.00,0.00,-0.00,
4.961,0.01,0.10,-0.01,0.00,0.00,-0.00,
4.961,0.01,0.10,-0.01,0.00,0.00,-0.00,
4.969,0.01,0.10,-0.01,-0.00,-0.00,0.00,
4.97,0.01,0.10,-0.01,-0.00,-0.00,0.00,
4.97,0.01,0.10,-0.01,-0.00,-0.00,0.00,
4.971,0.01,0.10,-0.01,-0.00,-0.00,0.00,
4.979,0.01,0.10,-0.01,-0.00,-0.00,-0.00,
4.979,0.01,0.10,-0.01,-0.00,-0.00,-0.00,
4.98,0.01,0.10,-0.01,-0.00,-0.00,-0.00,
4.98,0.01,0.10,-0.01,-0.00,-0.00,-0.00,
4.988,0.01,0.10,-0.01,0.00,-0.00,-0.00,
4.99,0.01,0.10,-0.01,0.00,-0.00,-0.00,
4.997,0.01,0.10,-0.01,0.00,-0.00,-0.00,
4.999,0.01,0.10,-0.01,0.00,-0.00,-0.00,
5.0,0.01,0.10,-0.01,0.00,0.00,0.00,
5.001,0.01,0.10,-0.01,0.00,0.00,0.00,
5.001,0.01,0.10,-0.01,0.00,0.00,0.00,
5.002,0.01,0.10,-0.01,0.00,0.00,0.00,
5.007,0.01,0.10,-0.01,0.00,-0.00,0.00,
5.009,0.01,0.10,-0.01,0.00,-0.00,0.00,
5.01,0.01,0.10,-0.01,0.00,-0.00,0.00,
5.01,0.01,0.10,-0.01,0.00,-0.00,0.00,
5.018,0.01,0.10,-0.01,-0.00,0.00,0.00,
5.019,0.01,0.10,-0.01,-0.00,0.00,0.00,
5.02,0.01,0.10,-0.01,-0.00,0.00,0.00,
5.02,0.01,0.10,-0.01,-0.00,0.00,0.00,
5.025,0.01,0.10,-0.01,0.00,-0.00,0.00,
5.026,0.01,0.10,-0.01,0.00,-0.00,0.00,
5.026,0.01,0.10,-0.01,0.00,-0.00,0.00,
5.027,0.01,0.10,-0.01,0.00,-0.00,0.00,
5.035,0.01,0.10,-0.01,-0.00,0.00,-0.00,
5.036,0.01,0.10,-0.01,-0.00,0.00,-0.00,
5.036,-0.13,0.48,-0.04,-0.00,0.00,-0.00,
5.036,-0.13,0.48,-0.04,-0.00,0.00,-0.00,
5.045,-0.13,0.48,-0.04,0.00,-0.00,0.00,
5.046,-0.13,0.48,-0.04,0.00,-0.00,0.00,
5.047,-0.20,0.47,0.03,0.00,-0.00,0.00,
5.048,-0.20,0.47,0.03,0.00,-0.00,0.00,
5.055,-0.20,0.47,0.03,-0.00,-0.00,-0.00,
5.057,-0.20,0.47,0.03,-0.00,-0.00,-0.00,
5.057,-0.30,0.44,0.08,-0.00,-0.00,-0.00,
5.058,-0.30,0.44,0.08,-0.00,-0.00,-0.00,
5.064,-0.30,0.44,0.08,-0.00,-0.00,0.00,
5.064,-0.30,0.44,0.08,-0.00,-0.00,0.00,
5.065,-0.41,0.38,0.13,-0.00,-0.00,0.00,
5.065,-0.41,0.38,0.13,-0.00,-0.00,0.00,
5.073,-0.41,0.38,0.13,-0.00,0.00,-0.00,
5.075,-0.41,0.38,0.13,-0.00,0.00,-0.00,
5.075,-0.52,0.31,0.15,-0.00,0.00,-0.00,
5.076,-0.52,0.31,0.15,-0.00,0.00,-0.00,
5.083,-0.52,0.31,0.15,-0.00,-0.00,0.00,
5.084,-0.52,0.31,0.15,-0.00,-0.00,0.00,
5.084,-0.63,0.27,0.14,-0.00,-0.00,0.00,
5.084,-0.63,0.27,0.14,-0.00,-0.00,0.00,
5.092,-0.63,0.27,0.14,0.00,-0.00,-0.00,
5.093,-0.63,0.27,0.14,0.00,-0.00,-0.00,
5.094,-0.70,0.23,0.15,0.00,-0.00,-0.00,
5.094,-0.70,0.23,0.15,0.00,-0.00,-0.00,
5.102,-0.70,0.23,0.15,0.10,-0.31,0.41,
5.103,-0.70,0.23,0.15,0.10,-0.31,0.41,
5.104,-0.74,0.22,0.16,0.10,-0.31,0.41,
5.104,-0.74,0.22,0.16,0.10,-0.31,0.41,
5.111,-0.74,0.22,0.16,0.10,-0.31,0.41,
5.112,-0.74,0.22,0.16,0.10,-0.31,0.41,
5.113,-0.74,0.22,0.16,0.10,-0.31,0.41,
5.113,-0.74,0.22,0.16,0.10,-0.31,0.41,
5.121,-0.74,0.22,0.16,0.11,-0.28,0.48,
5.123,-0.74,0.22,0.16,0.11,-0.28,0.48,
5.123,-0.75,0.20,0.33,0.11,-0.28,0.48,
5.124,-0.75,0.20,0.33,0.11,-0.28,0.48,
5.13,-0.75,0.20,0.33,0.12,-0.25,0.53,
5.131,-0.75,0.20,0.33,0.12,-0.25,0.53,
5.131,-0.71,0.21,0.44,0.12,-0.25,0.53,
5.132,-0.71,0.21,0.44,0.12,-0.25,0.53,
5.14,-0.71,0.21,0.44,0.14,-0.24,0.56,
5.141,-0.71,0.21,0.44,0.14,-0.24,0.56,
5.142,-0.68,0.20,0.50,0.14,-0.24,0.56,
5.143,-0.68,0.20,0.50,0.14,-0.24,0.56,
5.149,-0.68,0.20,0.50,0.17,-0.25,0.57,
5.15,-0.68,0.20,0.50,0.17,-0.25,0.57,
5.15,-0.65,0.20,0.49,0.17,-0.25,0.57,
5.151,-0.65,0.20,0.49,0.17,-0.25,0.57,
5.159,-0.65,0.20,0.49,0.22,-0.30,0.55,
5.159,-0.65,0.20,0.49,0.22,-0.30,0.55,
5.16,-0.61,0.19,0.36,0.22,-0.30,0.55,
5.16,-0.61,0.19,0.36,0.22,-0.30,0.55,
5.168,-0.61,0.19,0.36,0.25,-0.34,0.51,
5.169,-0.61,0.19,0.36,0.25,-0.34,0.51,
5.17,-0.56,0.17,0.17,0.25,-0.34,0.51,
5.17,-0.56,0.17,0.17,0.25,-0.34,0.51,
5.178,-0.56,0.17,0.17,0.26,-0.36,0.46,
5.179,-0.56,0.17,0.17,0.26,-0.36,0.46,
5.179,-0.50,0.15,-0.05,0.26,-0.36,0.46,
5.18,-0.50,0.15,-0.05,0.26,-0.36,0.46,
5.188,-0.50,0.15,-0.05,0.21,-0.35,0.39,
5.189,-0.50,0.15,-0.05,0.21,-0.35,0.39,
5.19,-0.41,0.13,-0.31,0.21,-0.35,0.39,
5.19,-0.41,0.13,-0.31,0.21,-0.35,0.39,
5.197,-0.41,0.13,-0.31,0.11,-0.32,0.31,
5.198,-0.41,0.13,-0.31,0.11,-0.32,0.31,
5.199,-0.28,0.09,-0.54,0.11,-0.32,0.31,
5.199,-0.28,0.09,-0.54,0.11,-0.32,0.31,
5.206,-0.28,0.09,-0.54,-0.04,-0.28,0.22,
5.207,-0.28,0.09,-0.54,-0.04,-0.28,0.22,
5.208,-0.13,0.04,-0.72,-0.04,-0.28,0.22,
5.208,-0.13,0.04,-0.72,-0.04,-0.28,0.22,
5.216,-0.13,0.04,-0.72,-0.22,-0.23,0.12,
5.217,-0.13,0.04,-0.72,-0.22,-0.23,0.12,
5.218,0.05,-0.00,-0.85,-0.22,-0.23,0.12,
5.218,0.05,-0.00,-0.85,-0.22,-0.23,0.12,
5.225,0.05,-0.00,-0.85,-0.41,-0.17,0.00,
5.226,0.05,-0.00,-0.85,-0.41,-0.17,0.00,
5.233,0.23,-0.05,-0.88,-0.41,-0.17,0.00,
5.233,0.23,-0.05,-0.88,-0.41,-0.17,0.00,
5.236,0.23,-0.05,-0.88,-0.58,-0.12,-0.13,
5.237,0.23,-0.05,-0.88,-0.58,-0.12,-0.13,
5.237,0.40,-0.07,-0.83,-0.58,-0.12,-0.13,
5.238,0.40,-0.07,-0.83,-0.58,-0.12,-0.13,
5.244,0.40,-0.07,-0.83,-0.72,-0.10,-0.27,
5.245,0.40,-0.07,-0.83,-0.72,-0.10,-0.27,
5.246,0.54,-0.06,-0.75,-0.72,-0.10,-0.27,
5.246,0.54,-0.06,-0.75,-0.72,-0.10,-0.27,
5.254,0.54,-0.06,-0.75,-0.80,-0.12,-0.41,
5.255,0.54,-0.06,-0.75,-0.80,-0.12,-0.41,
5.255,0.67,-0.05,-0.68,-0.80,-0.12,-0.41,
5.256,0.67,-0.05,-0.68,-0.80,-0.12,-0.41,
5.263,0.67,-0.05,-0.68,-0.82,-0.20,-0.54,
5.264,0.67,-0.05,-0.68,-0.82,-0.20,-0.54,
5.265,0.76,-0.02,-0.65,-0.82,-0.20,-0.54,
5.266,0.76,-0.02,-0.65,-0.82,-0.20,-0.54,
5.274,0.76,-0.02,-0.65,-0.79,-0.32,-0.64,
5.274,0.76,-0.02,-0.65,-0.79,-0.32,-0.64,
5.275,0.82,0.02,-0.71,-0.79,-0.32,-0.64,
5.276,0.82,0.02,-0.71,-0.79,-0.32,-0.64,
5.289,0.82,0.02,-0.71,-0.73,-0.46,-0.73,
5.29,0.82,0.02,-0.71,-0.73,-0.46,-0.73,
5.29,0.84,0.06,-0.81,-0.73,-0.46,-0.73,
5.291,0.84,0.06,-0.81,-0.73,-0.46,-0.73,
5.292,0.84,0.06,-0.81,-0.66,-0.58,-0.78,
5.292,0.84,0.06,-0.81,-0.66,-0.58,-0.78,
5.293,0.82,0.10,-0.93,-0.66,-0.58,-0.78,
5.294,0.82,0.10,-0.93,-0.66,-0.58,-0.78,
5.302,0.82,0.10,-0.93,-0.61,-0.66,-0.80,
5.303,0.82,0.10,-0.93,-0.61,-0.66,-0.80,
5.303,0.77,0.14,-1.04,-0.61,-0.66,-0.80,
5.304,0.77,0.14,-1.04,-0.61,-0.66,-0.80,
5.311,0.77,0.14,-1.04,-0.61,-0.66,-0.80,
5.312,0.77,0.14,-1.04,-0.61,-0.66,-0.80,
5.313,0.77,0.14,-1.04,-0.61,-0.66,-0.80,
5.313,0.77,0.14,-1.04,-0.61,-0.66,-0.80,
5.321,0.77,0.14,-1.04,-0.57,-0.68,-0.79,
5.322,0.77,0.14,-1.04,-0.57,-0.68,-0.79,
5.323,0.58,0.19,-1.16,-0.57,-0.68,-0.79,
5.323,0.58,0.19,-1.16,-0.57,-0.68,-0.79,
5.33,0.58,0.19,-1.16,-0.57,-0.66,-0.75,
5.331,0.58,0.19,-1.16,-0.57,-0.66,-0.75,
5.332,0.42,0.19,-1.27,-0.57,-0.66,-0.75,
5.333,0.42,0.19,-1.27,-0.57,-0.66,-0.75,
5.34,0.42,0.19,-1.27,-0.59,-0.59,-0.66,
5.341,0.42,0.19,-1.27,-0.59,-0.59,-0.66,
5.342,0.22,0.21,-1.42,-0.59,-0.59,-0.66,
5.342,0.22,0.21,-1.42,-0.59,-0.59,-0.66,
5.35,0.22,0.21,-1.42,-0.62,-0.48,-0.53,
5.351,0.22,0.21,-1.42,-0.62,-0.48,-0.53,
5.352,-0.02,0.17,-1.65,-0.62,-0.48,-0.53,
5.352,-0.02,0.17,-1.65,-0.62,-0.48,-0.53,
5.359,-0.02,0.17,-1.65,-0.67,-0.35,-0.36,
5.36,-0.02,0.17,-1.65,-0.67,-0.35,-0.36,
5.361,-0.26,0.13,-1.84,-0.67,-0.35,-0.36,
5.362,-0.26,0.13,-1.84,-0.67,-0.35,-0.36,
5.369,-0.26,0.13,-1.84,-0.75,-0.19,-0.15,
5.37,-0.26,0.13,-1.84,-0.75,-0.19,-0.15,
5.371,-0.43,0.05,-1.96,-0.75,-0.19,-0.15,
5.372,-0.43,0.05,-1.96,-0.75,-0.19,-0.15,
5.378,-0.43,0.05,-1.96,-0.84,-0.02,0.07,
5.379,-0.43,0.05,-1.96,-0.84,-0.02,0.07,
5.38,-0.52,-0.03,-1.96,-0.84,-0.02,0.07,
5.382,-0.52,-0.03,-1.96,-0.84,-0.02,0.07,
5.394,-0.52,-0.03,-1.96,-0.94,0.14,0.30,
5.395,-0.52,-0.03,-1.96,-0.94,0.14,0.30,
5.395,-0.49,-0.07,-1.83,-0.94,0.14,0.30,
5.395,-0.49,-0.07,-1.83,-0.94,0.14,0.30,
5.409,-0.49,-0.07,-1.83,-1.01,0.24,0.49,
5.41,-0.49,-0.07,-1.83,-1.01,0.24,0.49,
5.411,-0.36,-0.16,-1.69,-1.01,0.24,0.49,
5.411,-0.36,-0.16,-1.69,-1.01,0.24,0.49,
5.412,-0.36,-0.16,-1.69,-1.03,0.28,0.63,
5.412,-0.36,-0.16,-1.69,-1.03,0.28,0.63,
5.413,-0.14,-0.24,-1.60,-1.03,0.28,0.63,
5.413,-0.14,-0.24,-1.60,-1.03,0.28,0.63,
5.416,-0.14,-0.24,-1.60,-0.98,0.25,0.69,
5.417,-0.14,-0.24,-1.60,-0.98,0.25,0.69,
5.417,0.11,-0.32,-1.58,-0.98,0.25,0.69,
5.418,0.11,-0.32,-1.58,-0.98,0.25,0.69,
5.426,0.11,-0.32,-1.58,-0.90,0.16,0.66,
5.426,0.11,-0.32,-1.58,-0.90,0.16,0.66,
5.427,0.35,-0.33,-1.62,-0.90,0.16,0.66,
5.428,0.35,-0.33,-1.62,-0.90,0.16,0.66,
5.435,0.35,-0.33,-1.62,-0.80,0.04,0.54,
5.436,0.35,-0.33,-1.62,-0.80,0.04,0.54,
5.436,0.55,-0.22,-1.67,-0.80,0.04,0.54,
5.437,0.55,-0.22,-1.67,-0.80,0.04,0.54,
5.444,0.55,-0.22,-1.67,-0.70,-0.08,0.36,
5.445,0.55,-0.22,-1.67,-0.70,-0.08,0.36,
5.446,0.65,-0.03,-1.70,-0.70,-0.08,0.36,
5.446,0.65,-0.03,-1.70,-0.70,-0.08,0.36,
5.454,0.65,-0.03,-1.70,-0.63,-0.17,0.15,
5.455,0.65,-0.03,-1.70,-0.63,-0.17,0.15,
5.456,0.63,0.12,-1.75,-0.63,-0.17,0.15,
5.456,0.63,0.12,-1.75,-0.63,-0.17,0.15,
5.464,0.63,0.12,-1.75,-0.59,-0.25,-0.05,
5.465,0.63,0.12,-1.75,-0.59,-0.25,-0.05,
5.473,0.49,0.19,-1.84,-0.59,-0.25,-0.05,
5.474,0.49,0.19,-1.84,-0.59,-0.25,-0.05,
5.475,0.49,0.19,-1.84,-0.58,-0.32,-0.21,
5.476,0.49,0.19,-1.84,-0.58,-0.32,-0.21,
5.477,0.25,0.16,-2.04,-0.58,-0.32,-0.21,
5.477,0.25,0.16,-2.04,-0.58,-0.32,-0.21,
5.486,0.25,0.16,-2.04,-0.59,-0.36,-0.30,
5.488,0.25,0.16,-2.04,-0.59,-0.36,-0.30,
5.49,0.01,0.06,-2.29,-0.59,-0.36,-0.30,
5.491,0.01,0.06,-2.29,-0.59,-0.36,-0.30,
5.492,0.01,0.06,-2.29,-0.63,-0.34,-0.30,
5.494,0.01,0.06,-2.29,-0.63,-0.34,-0.30,
5.495,-0.13,-0.02,-2.47,-0.63,-0.34,-0.30,
5.495,-0.13,-0.02,-2.47,-0.63,-0.34,-0.30,
5.502,-0.13,-0.02,-2.47,-0.71,-0.26,-0.23,
5.503,-0.13,-0.02,-2.47,-0.71,-0.26,-0.23,
5.503,-0.08,-0.08,-2.55,-0.71,-0.26,-0.23,
5.504,-0.08,-0.08,-2.55,-0.71,-0.26,-0.23,
5.511,-0.08,-0.08,-2.55,-0.71,-0.26,-0.23,
5.512,-0.08,-0.08,-2.55,-0.71,-0.26,-0.23,
5.513,-0.08,-0.08,-2.55,-0.71,-0.26,-0.23,
5.513,-0.08,-0.08,-2.55,-0.71,-0.26,-0.23,
5.521,-0.08,-0.08,-2.55,-0.82,-0.14,-0.11,
5.522,-0.08,-0.08,-2.55,-0.82,-0.14,-0.11,
5.523,0.48,0.04,-2.48,-0.82,-0.14,-0.11,
5.523,0.48,0.04,-2.48,-0.82,-0.14,-0.11,
5.53,0.48,0.04,-2.48,-0.93,0.03,0.00,
5.531,0.48,0.04,-2.48,-0.93,0.03,0.00,
5.532,0.76,0.27,-2.56,-0.93,0.03,0.00,
5.532,0.76,0.27,-2.56,-0.93,0.03,0.00,
5.54,0.76,0.27,-2.56,-1.02,0.18,0.03,
5.541,0.76,0.27,-2.56,-1.02,0.18,0.03,
5.542,0.89,0.58,-2.85,-1.02,0.18,0.03,
5.542,0.89,0.58,-2.85,-1.02,0.18,0.03,
5.55,0.89,0.58,-2.85,-1.09,0.29,-0.05,
5.552,0.89,0.58,-2.85,-1.09,0.29,-0.05,
5.553,0.91,0.87,-3.31,-1.09,0.29,-0.05,
5.554,0.91,0.87,-3.31,-1.09,0.29,-0.05,
5.559,0.91,0.87,-3.31,-1.18,0.34,-0.21,
5.561,0.91,0.87,-3.31,-1.18,0.34,-0.21,
5.562,0.83,1.06,-3.69,-1.18,0.34,-0.21,
5.563,0.83,1.06,-3.69,-1.18,0.34,-0.21,
5.569,0.83,1.06,-3.69,-1.33,0.41,-0.35,
5.569,0.83,1.06,-3.69,-1.33,0.41,-0.35,
5.57,0.78,1.18,-3.90,-1.33,0.41,-0.35,
5.571,0.78,1.18,-3.90,-1.33,0.41,-0.35,
5.578,0.78,1.18,-3.90,-1.54,0.53,-0.43,
5.579,0.78,1.18,-3.90,-1.54,0.53,-0.43,
5.579,0.81,1.26,-3.88,-1.54,0.53,-0.43,
5.58,0.81,1.26,-3.88,-1.54,0.53,-0.43,
5.587,0.81,1.26,-3.88,-1.79,0.70,-0.45,
5.589,0.81,1.26,-3.88,-1.79,0.70,-0.45,
5.589,0.94,1.32,-3.66,-1.79,0.70,-0.45,
5.59,0.94,1.32,-3.66,-1.79,0.70,-0.45,
5.597,0.94,1.32,-3.66,-1.99,0.85,-0.43,
5.598,0.94,1.32,-3.66,-1.99,0.85,-0.43,
5.599,1.15,1.39,-3.42,-1.99,0.85,-0.43,
5.599,1.15,1.39,-3.42,-1.99,0.85,-0.43,
5.606,1.15,1.39,-3.42,-2.09,0.90,-0.41,
5.607,1.15,1.39,-3.42,-2.09,0.90,-0.41,
5.608,1.38,1.44,-3.19,-2.09,0.90,-0.41,
5.608,1.38,1.44,-3.19,-2.09,0.90,-0.41,
5.616,1.38,1.44,-3.19,-2.07,0.88,-0.43,
5.617,1.38,1.44,-3.19,-2.07,0.88,-0.43,
5.617,1.53,1.50,-3.07,-2.07,0.88,-0.43,
5.618,1.53,1.50,-3.07,-2.07,0.88,-0.43,
5.626,1.53,1.50,-3.07,-1.95,0.84,-0.52,
5.626,1.53,1.50,-3.07,-1.95,0.84,-0.52,
5.627,1.58,1.56,-3.07,-1.95,0.84,-0.52,
5.627,1.58,1.56,-3.07,-1.95,0.84,-0.52,
5.635,1.58,1.56,-3.07,-1.77,0.75,-0.65,
5.636,1.58,1.56,-3.07,-1.77,0.75,-0.65,
5.637,1.51,1.61,-3.14,-1.77,0.75,-0.65,
5.638,1.51,1.61,-3.14,-1.77,0.75,-0.65,
5.645,1.51,1.61,-3.14,-1.59,0.65,-0.79,
5.646,1.51,1.61,-3.14,-1.59,0.65,-0.79,
5.647,1.38,1.63,-3.20,-1.59,0.65,-0.79,
5.648,1.38,1.63,-3.20,-1.59,0.65,-0.79,
5.654,1.38,1.63,-3.20,-1.44,0.56,-0.87,
5.656,1.38,1.63,-3.20,-1.44,0.56,-0.87,
5.657,1.33,1.57,-3.15,-1.44,0.56,-0.87,
5.658,1.33,1.57,-3.15,-1.44,0.56,-0.87,
5.663,1.33,1.57,-3.15,-1.33,0.50,-0.89,
5.664,1.33,1.57,-3.15,-1.33,0.50,-0.89,
5.665,1.40,1.48,-2.99,-1.33,0.50,-0.89,
5.666,1.40,1.48,-2.99,-1.33,0.50,-0.89,
5.673,1.40,1.48,-2.99,-1.24,0.43,-0.86,
5.674,1.40,1.48,-2.99,-1.24,0.43,-0.86,
5.675,1.59,1.33,-2.77,-1.24,0.43,-0.86,
5.676,1.59,1.33,-2.77,-1.24,0.43,-0.86,
5.687,1.59,1.33,-2.77,-1.15,0.35,-0.83,
5.688,1.59,1.33,-2.77,-1.15,0.35,-0.83,
5.689,1.84,1.21,-2.56,-1.15,0.35,-0.83,
5.69,1.84,1.21,-2.56,-1.15,0.35,-0.83,
5.693,1.84,1.21,-2.56,-1.01,0.23,-0.83,
5.694,1.84,1.21,-2.56,-1.01,0.23,-0.83,
5.694,2.01,1.16,-2.41,-1.01,0.23,-0.83,
5.695,2.01,1.16,-2.41,-1.01,0.23,-0.83,
5.702,2.01,1.16,-2.41,-0.83,0.09,-0.90,
5.703,2.01,1.16,-2.41,-0.83,0.09,-0.90,
5.708,2.02,1.14,-2.38,-0.83,0.09,-0.90,
5.709,2.02,1.14,-2.38,-0.83,0.09,-0.90,
5.711,2.02,1.14,-2.38,-0.83,0.09,-0.90,
5.711,2.02,1.14,-2.38,-0.83,0.09,-0.90,
5.712,2.02,1.14,-2.38,-0.83,0.09,-0.90,
5.712,2.02,1.14,-2.38,-0.83,0.09,-0.90,
5.721,2.02,1.14,-2.38,-0.64,-0.05,-1.01,
5.723,2.02,1.14,-2.38,-0.64,-0.05,-1.01,
5.724,1.60,1.18,-2.60,-0.64,-0.05,-1.01,
5.725,1.60,1.18,-2.60,-0.64,-0.05,-1.01,
5.73,1.60,1.18,-2.60,-0.48,-0.16,-1.10,
5.731,1.60,1.18,-2.60,-0.48,-0.16,-1.10,
5.731,1.18,1.17,-2.66,-0.48,-0.16,-1.10,
5.732,1.18,1.17,-2.66,-0.48,-0.16,-1.10,
5.74,1.18,1.17,-2.66,-0.40,-0.20,-1.09,
5.741,1.18,1.17,-2.66,-0.40,-0.20,-1.09,
5.742,0.68,1.11,-2.67,-0.40,-0.20,-1.09,
5.742,0.68,1.11,-2.67,-0.40,-0.20,-1.09,
5.749,0.68,1.11,-2.67,-0.41,-0.17,-0.93,
5.75,0.68,1.11,-2.67,-0.41,-0.17,-0.93,
5.751,0.16,1.11,-2.60,-0.41,-0.17,-0.93,
5.751,0.16,1.11,-2.60,-0.41,-0.17,-0.93,
5.759,0.16,1.11,-2.60,-0.49,-0.12,-0.61,
5.76,0.16,1.11,-2.60,-0.49,-0.12,-0.61,
5.76,-0.25,1.12,-2.53,-0.49,-0.12,-0.61,
5.761,-0.25,1.12,-2.53,-0.49,-0.12,-0.61,
5.768,-0.25,1.12,-2.53,-0.58,-0.08,-0.21,
5.768,-0.25,1.12,-2.53,-0.58,-0.08,-0.21,
5.769,-0.49,1.18,-2.51,-0.58,-0.08,-0.21,
5.769,-0.49,1.18,-2.51,-0.58,-0.08,-0.21,
5.778,-0.49,1.18,-2.51,-0.64,-0.09,0.23,
5.779,-0.49,1.18,-2.51,-0.64,-0.09,0.23,
5.779,-0.48,1.30,-2.52,-0.64,-0.09,0.23,
5.78,-0.48,1.30,-2.52,-0.64,-0.09,0.23,
5.788,-0.48,1.30,-2.52,-0.70,-0.12,0.63,
5.789,-0.48,1.30,-2.52,-0.70,-0.12,0.63,
5.79,-0.29,1.42,-2.62,-0.70,-0.12,0.63,
5.791,-0.29,1.42,-2.62,-0.70,-0.12,0.63,
5.797,-0.29,1.42,-2.62,-0.75,-0.15,0.95,
5.797,-0.29,1.42,-2.62,-0.75,-0.15,0.95,
5.798,0.02,1.51,-2.69,-0.75,-0.15,0.95,
5.798,0.02,1.51,-2.69,-0.75,-0.15,0.95,
5.806,0.02,1.51,-2.69,-0.83,-0.15,1.11,
5.807,0.02,1.51,-2.69,-0.83,-0.15,1.11,
5.807,0.37,1.57,-2.68,-0.83,-0.15,1.11,
5.807,0.37,1.57,-2.68,-0.83,-0.15,1.11,
5.816,0.37,1.57,-2.68,-0.92,-0.15,1.11,
5.817,0.37,1.57,-2.68,-0.92,-0.15,1.11,
5.817,0.72,1.59,-2.61,-0.92,-0.15,1.11,
5.818,0.72,1.59,-2.61,-0.92,-0.15,1.11,
5.826,0.72,1.59,-2.61,-1.02,-0.13,0.95,
5.826,0.72,1.59,-2.61,-1.02,-0.13,0.95,
5.827,1.02,1.53,-2.47,-1.02,-0.13,0.95,
5.827,1.02,1.53,-2.47,-1.02,-0.13,0.95,
5.835,1.02,1.53,-2.47,-1.09,-0.11,0.66,
5.836,1.02,1.53,-2.47,-1.09,-0.11,0.66,
5.836,1.28,1.49,-2.29,-1.09,-0.11,0.66,
5.837,1.28,1.49,-2.29,-1.09,-0.11,0.66,
5.844,1.28,1.49,-2.29,-1.11,-0.08,0.30,
5.845,1.28,1.49,-2.29,-1.11,-0.08,0.30,
5.846,1.52,1.47,-2.12,-1.11,-0.08,0.30,
5.846,1.52,1.47,-2.12,-1.11,-0.08,0.30,
5.854,1.52,1.47,-2.12,-1.09,-0.07,-0.11,
5.855,1.52,1.47,-2.12,-1.09,-0.07,-0.11,
5.857,1.65,1.42,-1.96,-1.09,-0.07,-0.11,
5.858,1.65,1.42,-1.96,-1.09,-0.07,-0.11,
5.863,1.65,1.42,-1.96,-1.00,-0.10,-0.52,
5.865,1.65,1.42,-1.96,-1.00,-0.10,-0.52,
5.867,1.71,1.37,-1.78,-1.00,-0.10,-0.52,
5.868,1.71,1.37,-1.78,-1.00,-0.10,-0.52,
5.873,1.71,1.37,-1.78,-0.88,-0.16,-0.91,
5.875,1.71,1.37,-1.78,-0.88,-0.16,-0.91,
5.876,1.68,1.30,-1.66,-0.88,-0.16,-0.91,
5.877,1.68,1.30,-1.66,-0.88,-0.16,-0.91,
5.887,1.68,1.30,-1.66,-0.74,-0.24,-1.23,
5.889,1.68,1.30,-1.66,-0.74,-0.24,-1.23,
5.89,1.60,1.23,-1.62,-0.74,-0.24,-1.23,
5.891,1.60,1.23,-1.62,-0.74,-0.24,-1.23,
5.892,1.60,1.23,-1.62,-0.59,-0.32,-1.46,
5.893,1.60,1.23,-1.62,-0.59,-0.32,-1.46,
5.894,1.57,1.23,-1.68,-0.59,-0.32,-1.46,
5.895,1.57,1.23,-1.68,-0.59,-0.32,-1.46,
5.902,1.57,1.23,-1.68,-0.59,-0.32,-1.46,
5.903,1.57,1.23,-1.68,-0.59,-0.32,-1.46,
5.904,1.57,1.23,-1.68,-0.59,-0.32,-1.46,
5.905,1.57,1.23,-1.68,-0.59,-0.32,-1.46,
5.911,1.57,1.23,-1.68,-0.46,-0.39,-1.60,
5.912,1.57,1.23,-1.68,-0.46,-0.39,-1.60,
5.913,1.57,1.40,-2.18,-0.46,-0.39,-1.60,
5.914,1.57,1.40,-2.18,-0.46,-0.39,-1.60,
5.921,1.57,1.40,-2.18,-0.40,-0.42,-1.63,
5.923,1.57,1.40,-2.18,-0.40,-0.42,-1.63,
5.923,1.56,1.50,-2.32,-0.40,-0.42,-1.63,
5.924,1.56,1.50,-2.32,-0.40,-0.42,-1.63,
5.93,1.56,1.50,-2.32,-0.44,-0.38,-1.57,
5.931,1.56,1.50,-2.32,-0.44,-0.38,-1.57,
5.932,1.50,1.59,-2.36,-0.44,-0.38,-1.57,
5.933,1.50,1.59,-2.36,-0.44,-0.38,-1.57,
5.94,1.50,1.59,-2.36,-0.60,-0.29,-1.45,
5.941,1.50,1.59,-2.36,-0.60,-0.29,-1.45,
5.947,1.40,1.68,-2.32,-0.60,-0.29,-1.45,
5.947,1.40,1.68,-2.32,-0.60,-0.29,-1.45,
5.95,1.40,1.68,-2.32,-0.81,-0.19,-1.30,
5.951,1.40,1.68,-2.32,-0.81,-0.19,-1.30,
5.952,1.25,1.77,-2.26,-0.81,-0.19,-1.30,
5.952,1.25,1.77,-2.26,-0.81,-0.19,-1.30,
5.959,1.25,1.77,-2.26,-1.01,-0.11,-1.15,
5.96,1.25,1.77,-2.26,-1.01,-0.11,-1.15,
5.96,1.01,1.87,-2.24,-1.01,-0.11,-1.15,
5.961,1.01,1.87,-2.24,-1.01,-0.11,-1.15,
5.968,1.01,1.87,-2.24,-1.16,-0.08,-1.00,
5.968,1.01,1.87,-2.24,-1.16,-0.08,-1.00,
5.969,0.73,1.96,-2.30,-1.16,-0.08,-1.00,
5.969,0.73,1.96,-2.30,-1.16,-0.08,-1.00,
5.978,0.73,1.96,-2.30,-1.26,-0.09,-0.85,
5.979,0.73,1.96,-2.30,-1.26,-0.09,-0.85,
5.979,0.41,2.06,-2.36,-1.26,-0.09,-0.85,
5.98,0.41,2.06,-2.36,-1.26,-0.09,-0.85,
5.988,0.41,2.06,-2.36,-1.35,-0.13,-0.68,
5.989,0.41,2.06,-2.36,-1.35,-0.13,-0.68,
5.99,0.12,2.16,-2.37,-1.35,-0.13,-0.68,
5.991,0.12,2.16,-2.37,-1.35,-0.13,-0.68,
5.997,0.12,2.16,-2.37,-1.43,-0.18,-0.46,
5.998,0.12,2.16,-2.37,-1.43,-0.18,-0.46,
5.998,-0.14,2.23,-2.34,-1.43,-0.18,-0.46,
5.999,-0.14,2.23,-2.34,-1.43,-0.18,-0.46,
6.006,-0.14,2.23,-2.34,-1.50,-0.24,-0.21,
6.007,-0.14,2.23,-2.34,-1.50,-0.24,-0.21,
6.007,-0.38,2.23,-2.23,-1.50,-0.24,-0.21,
6.007,-0.38,2.23,-2.23,-1.50,-0.24,-0.21,
6.016,-0.38,2.23,-2.23,-1.55,-0.31,0.04,
6.017,-0.38,2.23,-2.23,-1.55,-0.31,0.04,
6.017,-0.56,2.20,-2.15,-1.55,-0.31,0.04,
6.018,-0.56,2.20,-2.15,-1.55,-0.31,0.04,
6.025,-0.56,2.20,-2.15,-1.56,-0.39,0.28,
6.026,-0.56,2.20,-2.15,-1.56,-0.39,0.28,
6.027,-0.76,2.17,-2.14,-1.56,-0.39,0.28,
6.027,-0.76,2.17,-2.14,-1.56,-0.39,0.28,
6.034,-0.76,2.17,-2.14,-1.52,-0.42,0.48,
6.036,-0.76,2.17,-2.14,-1.52,-0.42,0.48,
6.036,-0.96,2.16,-2.16,-1.52,-0.42,0.48,
6.037,-0.96,2.16,-2.16,-1.52,-0.42,0.48,
6.045,-0.96,2.16,-2.16,-1.45,-0.45,0.67,
6.045,-0.96,2.16,-2.16,-1.45,-0.45,0.67,
6.046,-1.13,2.19,-2.20,-1.45,-0.45,0.67,
6.047,-1.13,2.19,-2.20,-1.45,-0.45,0.67,
6.054,-1.13,2.19,-2.20,-1.36,-0.54,0.81,
6.055,-1.13,2.19,-2.20,-1.36,-0.54,0.81,
6.056,-1.23,2.26,-2.14,-1.36,-0.54,0.81,
6.056,-1.23,2.26,-2.14,-1.36,-0.54,0.81,
6.064,-1.23,2.26,-2.14,-1.28,-0.63,0.91,
6.065,-1.23,2.26,-2.14,-1.28,-0.63,0.91,
6.066,-1.27,2.38,-2.04,-1.28,-0.63,0.91,
6.066,-1.27,2.38,-2.04,-1.28,-0.63,0.91,
6.072,-1.27,2.38,-2.04,-1.21,-0.73,0.96,
6.073,-1.27,2.38,-2.04,-1.21,-0.73,0.96,
6.074,-1.22,2.52,-1.93,-1.21,-0.73,0.96,
6.074,-1.22,2.52,-1.93,-1.21,-0.73,0.96,
6.087,-1.22,2.52,-1.93,-1.15,-0.80,0.97,
6.088,-1.22,2.52,-1.93,-1.15,-0.80,0.97,
6.089,-1.12,2.66,-1.82,-1.15,-0.80,0.97,
6.089,-1.12,2.66,-1.82,-1.15,-0.80,0.97,
6.092,-1.12,2.66,-1.82,-1.12,-0.82,0.93,
6.093,-1.12,2.66,-1.82,-1.12,-0.82,0.93,
6.093,-1.00,2.74,-1.75,-1.12,-0.82,0.93,
6.094,-1.00,2.74,-1.75,-1.12,-0.82,0.93,
6.101,-1.00,2.74,-1.75,-1.12,-0.82,0.93,
6.103,-1.00,2.74,-1.75,-1.12,-0.82,0.93,
6.103,-1.00,2.74,-1.75,-1.12,-0.82,0.93,
6.103,-1.00,2.74,-1.75,-1.12,-0.82,0.93,
6.111,-1.00,2.74,-1.75,-1.10,-0.80,0.86,
6.113,-1.00,2.74,-1.75,-1.10,-0.80,0.86,
6.113,-0.82,2.86,-1.68,-1.10,-0.80,0.86,
6.114,-0.82,2.86,-1.68,-1.10,-0.80,0.86,
6.12,-0.82,2.86,-1.68,-1.09,-0.74,0.73,
6.121,-0.82,2.86,-1.68,-1.09,-0.74,0.73,
6.122,-0.82,2.82,-1.59,-1.09,-0.74,0.73,
6.123,-0.82,2.82,-1.59,-1.09,-0.74,0.73,
6.13,-0.82,2.82,-1.59,-1.09,-0.67,0.55,
6.131,-0.82,2.82,-1.59,-1.09,-0.67,0.55,
6.131,-0.79,2.81,-1.53,-1.09,-0.67,0.55,
6.132,-0.79,2.81,-1.53,-1.09,-0.67,0.55,
6.14,-0.79,2.81,-1.53,-1.09,-0.59,0.35,
6.141,-0.79,2.81,-1.53,-1.09,-0.59,0.35,
6.142,-0.72,2.79,-1.53,-1.09,-0.59,0.35,
6.143,-0.72,2.79,-1.53,-1.09,-0.59,0.35,
6.149,-0.72,2.79,-1.53,-1.08,-0.50,0.17,
6.151,-0.72,2.79,-1.53,-1.08,-0.50,0.17,
6.153,-0.62,2.76,-1.60,-1.08,-0.50,0.17,
6.154,-0.62,2.76,-1.60,-1.08,-0.50,0.17,
6.159,-0.62,2.76,-1.60,-1.07,-0.41,0.01,
6.16,-0.62,2.76,-1.60,-1.07,-0.41,0.01,
6.161,-0.44,2.82,-1.71,-1.07,-0.41,0.01,
6.162,-0.44,2.82,-1.71,-1.07,-0.41,0.01,
6.168,-0.44,2.82,-1.71,-1.06,-0.33,-0.13,
6.169,-0.44,2.82,-1.71,-1.06,-0.33,-0.13,
6.169,-0.28,2.90,-1.81,-1.06,-0.33,-0.13,
6.17,-0.28,2.90,-1.81,-1.06,-0.33,-0.13,
6.177,-0.28,2.90,-1.81,-1.08,-0.24,-0.26,
6.178,-0.28,2.90,-1.81,-1.08,-0.24,-0.26,
6.185,-0.11,3.03,-1.87,-1.08,-0.24,-0.26,
6.186,-0.11,3.03,-1.87,-1.08,-0.24,-0.26,
6.194,-0.11,3.03,-1.87,-1.14,-0.14,-0.37,
6.195,-0.11,3.03,-1.87,-1.14,-0.14,-0.37,
6.195,0.10,3.24,-1.82,-1.14,-0.14,-0.37,
6.195,0.10,3.24,-1.82,-1.14,-0.14,-0.37,
6.202,0.10,3.24,-1.82,-1.22,-0.10,-0.47,
6.203,0.10,3.24,-1.82,-1.22,-0.10,-0.47,
6.204,0.26,3.43,-1.72,-1.22,-0.10,-0.47,
6.204,0.26,3.43,-1.72,-1.22,-0.10,-0.47,
6.206,0.26,3.43,-1.72,-1.33,-0.03,-0.56,
6.206,0.26,3.43,-1.72,-1.33,-0.03,-0.56,
6.207,0.43,3.64,-1.60,-1.33,-0.03,-0.56,
6.207,0.43,3.64,-1.60,-1.33,-0.03,-0.56,
6.215,0.43,3.64,-1.60,-1.44,0.14,-0.65,
6.216,0.43,3.64,-1.60,-1.44,0.14,-0.65,
6.216,0.61,3.83,-1.52,-1.44,0.14,-0.65,
6.217,0.61,3.83,-1.52,-1.44,0.14,-0.65,
6.226,0.61,3.83,-1.52,-1.54,0.21,-0.62,
6.227,0.61,3.83,-1.52,-1.54,0.21,-0.62,
6.228,0.81,3.97,-1.57,-1.54,0.21,-0.62,
6.229,0.81,3.97,-1.57,-1.54,0.21,-0.62,
6.235,0.81,3.97,-1.57,-1.65,0.20,-0.43,
6.236,0.81,3.97,-1.57,-1.65,0.20,-0.43,
6.237,1.02,4.11,-1.67,-1.65,0.20,-0.43,
6.238,1.02,4.11,-1.67,-1.65,0.20,-0.43,
6.244,1.02,4.11,-1.67,-1.76,0.14,-0.37,
6.245,1.02,4.11,-1.67,-1.76,0.14,-0.37,
6.246,1.21,4.22,-1.79,-1.76,0.14,-0.37,
6.246,1.21,4.22,-1.79,-1.76,0.14,-0.37,
6.253,1.21,4.22,-1.79,-1.87,0.24,-0.46,
6.255,1.21,4.22,-1.79,-1.87,0.24,-0.46,
6.257,1.39,4.36,-1.94,-1.87,0.24,-0.46,
6.257,1.39,4.36,-1.94,-1.87,0.24,-0.46,
6.263,1.39,4.36,-1.94,-1.99,0.31,-0.50,
6.263,1.39,4.36,-1.94,-1.99,0.31,-0.50,
6.264,1.55,4.52,-2.05,-1.99,0.31,-0.50,
6.264,1.55,4.52,-2.05,-1.99,0.31,-0.50,
6.272,1.55,4.52,-2.05,-2.11,0.36,-0.54,
6.273,1.55,4.52,-2.05,-2.11,0.36,-0.54,
6.273,1.67,4.66,-2.10,-2.11,0.36,-0.54,
6.274,1.67,4.66,-2.10,-2.11,0.36,-0.54,
6.287,1.67,4.66,-2.10,-2.23,0.57,-0.60,
6.288,1.67,4.66,-2.10,-2.23,0.57,-0.60,
6.289,1.75,4.78,-2.16,-2.23,0.57,-0.60,
6.289,1.75,4.78,-2.16,-2.23,0.57,-0.60,
6.293,1.75,4.78,-2.16,-2.23,0.57,-0.60,
6.294,1.75,4.78,-2.16,-2.23,0.57,-0.60,
6.294,1.75,4.78,-2.16,-2.23,0.57,-0.60,
6.295,1.75,4.78,-2.16,-2.23,0.57,-0.60,
6.301,1.75,4.78,-2.16,-2.35,0.73,-0.61,
6.302,1.75,4.78,-2.16,-2.35,0.73,-0.61,
6.302,1.79,4.96,-2.31,-2.35,0.73,-0.61,
6.303,1.79,4.96,-2.31,-2.35,0.73,-0.61,
6.311,1.79,4.96,-2.31,-2.45,0.85,-0.58,
6.311,1.79,4.96,-2.31,-2.45,0.85,-0.58,
6.312,1.84,4.95,-2.32,-2.45,0.85,-0.58,
6.313,1.84,4.95,-2.32,-2.45,0.85,-0.58,
6.321,1.84,4.95,-2.32,-2.54,0.92,-0.52,
6.323,1.84,4.95,-2.32,-2.54,0.92,-0.52,
6.323,1.89,4.95,-2.30,-2.54,0.92,-0.52,
6.324,1.89,4.95,-2.30,-2.54,0.92,-0.52,
6.33,1.89,4.95,-2.30,-2.61,0.94,-0.42,
6.331,1.89,4.95,-2.30,-2.61,0.94,-0.42,
6.331,1.95,4.97,-2.21,-2.61,0.94,-0.42,
6.332,1.95,4.97,-2.21,-2.61,0.94,-0.42,
6.339,1.95,4.97,-2.21,-2.63,0.93,-0.32,
6.34,1.95,4.97,-2.21,-2.63,0.93,-0.32,
6.341,2.03,5.00,-2.09,-2.63,0.93,-0.32,
6.342,2.03,5.00,-2.09,-2.63,0.93,-0.32,
6.348,2.03,5.00,-2.09,-2.60,0.91,-0.24,
6.35,2.03,5.00,-2.09,-2.60,0.91,-0.24,
6.35,2.14,5.08,-2.04,-2.60,0.91,-0.24,
6.351,2.14,5.08,-2.04,-2.60,0.91,-0.24,
6.358,2.14,5.08,-2.04,-2.53,0.88,-0.19,
6.359,2.14,5.08,-2.04,-2.53,0.88,-0.19,
6.359,2.23,5.16,-2.01,-2.53,0.88,-0.19,
6.36,2.23,5.16,-2.01,-2.53,0.88,-0.19,
6.367,2.23,5.16,-2.01,-2.44,0.85,-0.18,
6.368,2.23,5.16,-2.01,-2.44,0.85,-0.18,
6.369,2.28,5.16,-1.99,-2.44,0.85,-0.18,
6.369,2.28,5.16,-1.99,-2.44,0.85,-0.18,
6.377,2.28,5.16,-1.99,-2.35,0.82,-0.20,
6.379,2.28,5.16,-1.99,-2.35,0.82,-0.20,
6.38,2.26,5.14,-1.94,-2.35,0.82,-0.20,
6.382,2.26,5.14,-1.94,-2.35,0.82,-0.20,
6.395,2.26,5.14,-1.94,-2.27,0.81,-0.21,
6.395,2.26,5.14,-1.94,-2.27,0.81,-0.21,
6.395,2.12,5.06,-1.84,-2.27,0.81,-0.21,
6.396,2.12,5.06,-1.84,-2.27,0.81,-0.21,
6.409,2.12,5.06,-1.84,-2.19,0.73,-0.20,
6.41,2.12,5.06,-1.84,-2.19,0.73,-0.20,
6.41,1.89,4.93,-1.68,-2.19,0.73,-0.20,
6.411,1.89,4.93,-1.68,-2.19,0.73,-0.20,
6.411,1.89,4.93,-1.68,-2.19,0.73,-0.20,
6.411,1.89,4.93,-1.68,-2.19,0.73,-0.20,
6.411,1.89,4.93,-1.68,-2.19,0.73,-0.20,
6.412,1.89,4.93,-1.68,-2.19,0.73,-0.20,
6.415,1.89,4.93,-1.68,-1.97,0.58,-0.10,
6.416,1.89,4.93,-1.68,-1.97,0.58,-0.10,
6.422,1.39,4.52,-1.09,-1.97,0.58,-0.10,
6.422,1.39,4.52,-1.09,-1.97,0.58,-0.10,
6.426,1.39,4.52,-1.09,-1.81,0.46,-0.03,
6.426,1.39,4.52,-1.09,-1.81,0.46,-0.03,
6.427,1.16,4.24,-0.72,-1.81,0.46,-0.03,
6.427,1.16,4.24,-0.72,-1.81,0.46,-0.03,
6.434,1.16,4.24,-0.72,-1.61,0.32,0.05,
6.436,1.16,4.24,-0.72,-1.61,0.32,0.05,
6.436,0.99,3.94,-0.46,-1.61,0.32,0.05,
6.437,0.99,3.94,-0.46,-1.61,0.32,0.05,
6.443,0.99,3.94,-0.46,-1.38,0.18,0.12,
6.444,0.99,3.94,-0.46,-1.38,0.18,0.12,
6.444,0.90,3.70,-0.40,-1.38,0.18,0.12,
6.445,0.90,3.70,-0.40,-1.38,0.18,0.12,
6.454,0.90,3.70,-0.40,-1.14,0.05,0.19,
6.455,0.90,3.70,-0.40,-1.14,0.05,0.19,
6.455,0.95,3.55,-0.63,-1.14,0.05,0.19,
6.456,0.95,3.55,-0.63,-1.14,0.05,0.19,
6.463,0.95,3.55,-0.63,-0.89,-0.04,0.25,
6.463,0.95,3.55,-0.63,-0.89,-0.04,0.25,
6.464,1.20,3.47,-1.00,-0.89,-0.04,0.25,
6.465,1.20,3.47,-1.00,-0.89,-0.04,0.25,
6.473,1.20,3.47,-1.00,-0.68,-0.11,0.28,
6.474,1.20,3.47,-1.00,-0.68,-0.11,0.28,
6.474,1.59,3.43,-1.43,-0.68,-0.11,0.28,
6.475,1.59,3.43,-1.43,-0.68,-0.11,0.28,
6.488,1.59,3.43,-1.43,-0.53,-0.13,0.27,
6.489,1.59,3.43,-1.43,-0.53,-0.13,0.27,
6.489,2.11,3.39,-1.85,-0.53,-0.13,0.27,
6.49,2.11,3.39,-1.85,-0.53,-0.13,0.27,
6.492,2.11,3.39,-1.85,-0.46,-0.07,0.21,
6.493,2.11,3.39,-1.85,-0.46,-0.07,0.21,
6.494,2.64,3.35,-2.12,-0.46,-0.07,0.21,
6.495,2.64,3.35,-2.12,-0.46,-0.07,0.21,
6.501,2.64,3.35,-2.12,-0.46,-0.07,0.21,
6.502,2.64,3.35,-2.12,-0.46,-0.07,0.21,
6.503,2.64,3.35,-2.12,-0.46,-0.07,0.21,
6.503,2.64,3.35,-2.12,-0.46,-0.07,0.21,
6.511,2.64,3.35,-2.12,-0.47,0.08,0.12,
6.513,2.64,3.35,-2.12,-0.47,0.08,0.12,
6.513,3.39,3.40,-2.10,-0.47,0.08,0.12,
6.514,3.39,3.40,-2.10,-0.47,0.08,0.12,
6.52,3.39,3.40,-2.10,-0.52,0.32,-0.02,
6.521,3.39,3.40,-2.10,-0.52,0.32,-0.02,
6.522,3.48,3.27,-1.72,-0.52,0.32,-0.02,
6.522,3.48,3.27,-1.72,-0.52,0.32,-0.02,
6.53,3.48,3.27,-1.72,-0.58,0.62,-0.20,
6.531,3.48,3.27,-1.72,-0.58,0.62,-0.20,
6.532,3.39,3.08,-1.15,-0.58,0.62,-0.20,
6.532,3.39,3.08,-1.15,-0.58,0.62,-0.20,
6.539,3.39,3.08,-1.15,-0.63,0.94,-0.38,
6.54,3.39,3.08,-1.15,-0.63,0.94,-0.38,
6.541,3.14,2.90,-0.48,-0.63,0.94,-0.38,
6.542,3.14,2.90,-0.48,-0.63,0.94,-0.38,
6.549,3.14,2.90,-0.48,-0.63,1.21,-0.54,
6.551,3.14,2.90,-0.48,-0.63,1.21,-0.54,
6.552,2.83,2.72,0.23,-0.63,1.21,-0.54,
6.553,2.83,2.72,0.23,-0.63,1.21,-0.54,
6.558,2.83,2.72,0.23,-0.58,1.40,-0.65,
6.559,2.83,2.72,0.23,-0.58,1.40,-0.65,
6.56,2.54,2.55,1.75,-0.58,1.40,-0.65,
6.561,2.54,2.55,1.75,-0.58,1.40,-0.65,
6.567,2.54,2.55,1.75,-0.47,1.52,-0.73,
6.568,2.54,2.55,1.75,-0.47,1.52,-0.73,
6.569,2.40,2.36,1.92,-0.47,1.52,-0.73,
6.569,2.40,2.36,1.92,-0.47,1.52,-0.73,
6.578,2.40,2.36,1.92,-0.32,1.59,-0.81,
6.579,2.40,2.36,1.92,-0.32,1.59,-0.81,
6.58,2.49,2.13,1.98,-0.32,1.59,-0.81,
6.58,2.49,2.13,1.98,-0.32,1.59,-0.81,
6.588,2.49,2.13,1.98,-0.13,1.65,-0.91,
6.589,2.49,2.13,1.98,-0.13,1.65,-0.91,
6.59,2.75,1.89,1.84,-0.13,1.65,-0.91,
6.59,2.75,1.89,1.84,-0.13,1.65,-0.91,
6.601,2.75,1.89,1.84,0.07,1.70,-1.01,
6.602,2.75,1.89,1.84,0.07,1.70,-1.01,
6.602,3.04,1.69,1.52,0.07,1.70,-1.01,
6.602,3.04,1.69,1.52,0.07,1.70,-1.01,
6.606,3.04,1.69,1.52,0.26,1.74,-1.09,
6.607,3.04,1.69,1.52,0.26,1.74,-1.09,
6.607,3.28,1.51,1.19,0.26,1.74,-1.09,
6.607,3.28,1.51,1.19,0.26,1.74,-1.09,
6.615,3.28,1.51,1.19,0.42,1.76,-1.17,
6.616,3.28,1.51,1.19,0.42,1.76,-1.17,
6.617,3.35,1.40,0.89,0.42,1.76,-1.17,
6.617,3.35,1.40,0.89,0.42,1.76,-1.17,
6.625,3.35,1.40,0.89,0.53,1.77,-1.21,
6.626,3.35,1.40,0.89,0.53,1.77,-1.21,
6.627,3.26,1.34,0.66,0.53,1.77,-1.21,
6.627,3.26,1.34,0.66,0.53,1.77,-1.21,
6.635,3.26,1.34,0.66,0.56,1.72,-1.19,
6.636,3.26,1.34,0.66,0.56,1.72,-1.19,
6.637,3.05,1.29,0.50,0.56,1.72,-1.19,
6.637,3.05,1.29,0.50,0.56,1.72,-1.19,
6.644,3.05,1.29,0.50,0.51,1.62,-1.10,
6.646,3.05,1.29,0.50,0.51,1.62,-1.10,
6.647,2.71,1.21,0.46,0.51,1.62,-1.10,
6.648,2.71,1.21,0.46,0.51,1.62,-1.10,
6.653,2.71,1.21,0.46,0.41,1.45,-0.96,
6.655,2.71,1.21,0.46,0.41,1.45,-0.96,
6.661,2.37,1.04,0.57,0.41,1.45,-0.96,
6.662,2.37,1.04,0.57,0.41,1.45,-0.96,
6.662,2.37,1.04,0.57,0.29,1.23,-0.81,
6.664,2.37,1.04,0.57,0.29,1.23,-0.81,
6.665,2.05,0.84,0.77,0.29,1.23,-0.81,
6.665,2.05,0.84,0.77,0.29,1.23,-0.81,
6.672,2.05,0.84,0.77,0.18,0.98,-0.67,
6.673,2.05,0.84,0.77,0.18,0.98,-0.67,
6.674,1.78,0.64,1.00,0.18,0.98,-0.67,
6.675,1.78,0.64,1.00,0.18,0.98,-0.67,
6.688,1.78,0.64,1.00,0.12,0.73,-0.54,
6.689,1.78,0.64,1.00,0.12,0.73,-0.54,
6.69,1.60,0.52,1.15,0.12,0.73,-0.54,
6.69,1.60,0.52,1.15,0.12,0.73,-0.54,
6.691,1.60,0.52,1.15,0.11,0.50,-0.41,
6.692,1.60,0.52,1.15,0.11,0.50,-0.41,
6.693,1.45,0.51,1.14,0.11,0.50,-0.41,
6.693,1.45,0.51,1.14,0.11,0.50,-0.41,
6.703,1.45,0.51,1.14,0.11,0.50,-0.41,
6.704,1.45,0.51,1.14,0.11,0.50,-0.41,
6.704,1.45,0.51,1.14,0.11,0.50,-0.41,
6.704,1.45,0.51,1.14,0.11,0.50,-0.41,
6.711,1.45,0.51,1.14,0.12,0.31,-0.30,
6.712,1.45,0.51,1.14,0.12,0.31,-0.30,
6.712,1.26,0.65,0.86,0.12,0.31,-0.30,
6.713,1.26,0.65,0.86,0.12,0.31,-0.30,
6.721,1.26,0.65,0.86,0.13,0.16,-0.20,
6.722,1.26,0.65,0.86,0.13,0.16,-0.20,
6.722,1.18,0.70,0.70,0.13,0.16,-0.20,
6.723,1.18,0.70,0.70,0.13,0.16,-0.20,
6.73,1.18,0.70,0.70,0.10,0.03,-0.12,
6.73,1.18,0.70,0.70,0.10,0.03,-0.12,
6.731,1.20,0.69,0.66,0.10,0.03,-0.12,
6.732,1.20,0.69,0.66,0.10,0.03,-0.12,
6.74,1.20,0.69,0.66,0.02,-0.09,-0.05,
6.741,1.20,0.69,0.66,0.02,-0.09,-0.05,
6.742,1.33,0.66,0.70,0.02,-0.09,-0.05,
6.742,1.33,0.66,0.70,0.02,-0.09,-0.05,
6.749,1.33,0.66,0.70,-0.07,-0.19,-0.03,
6.75,1.33,0.66,0.70,-0.07,-0.19,-0.03,
6.75,1.54,0.55,0.83,-0.07,-0.19,-0.03,
6.751,1.54,0.55,0.83,-0.07,-0.19,-0.03,
6.758,1.54,0.55,0.83,-0.13,-0.23,-0.05,
6.759,1.54,0.55,0.83,-0.13,-0.23,-0.05,
6.76,1.79,0.36,0.97,-0.13,-0.23,-0.05,
6.76,1.79,0.36,0.97,-0.13,-0.23,-0.05,
6.767,1.79,0.36,0.97,-0.12,-0.19,-0.14,
6.768,1.79,0.36,0.97,-0.12,-0.19,-0.14,
6.769,2.04,0.15,1.03,-0.12,-0.19,-0.14,
6.769,2.04,0.15,1.03,-0.12,-0.19,-0.14,
6.778,2.04,0.15,1.03,-0.04,-0.05,-0.27,
6.778,2.04,0.15,1.03,-0.04,-0.05,-0.27,
6.779,2.22,-0.04,1.04,-0.04,-0.05,-0.27,
6.78,2.22,-0.04,1.04,-0.04,-0.05,-0.27,
6.788,2.22,-0.04,1.04,0.13,0.14,-0.44,
6.789,2.22,-0.04,1.04,0.13,0.14,-0.44,
6.79,2.34,-0.18,1.01,0.13,0.14,-0.44,
6.791,2.34,-0.18,1.01,0.13,0.14,-0.44,
6.8,2.34,-0.18,1.01,0.35,0.35,-0.62,
6.801,2.34,-0.18,1.01,0.35,0.35,-0.62,
6.801,2.38,-0.25,0.95,0.35,0.35,-0.62,
6.801,2.38,-0.25,0.95,0.35,0.35,-0.62,
6.806,2.38,-0.25,0.95,0.58,0.56,-0.78,
6.807,2.38,-0.25,0.95,0.58,0.56,-0.78,
6.807,2.36,-0.25,0.88,0.58,0.56,-0.78,
6.807,2.36,-0.25,0.88,0.58,0.56,-0.78,
6.816,2.36,-0.25,0.88,0.78,0.72,-0.90,
6.818,2.36,-0.25,0.88,0.78,0.72,-0.90,
6.819,2.29,-0.20,0.73,0.78,0.72,-0.90,
6.82,2.29,-0.20,0.73,0.78,0.72,-0.90,
6.825,2.29,-0.20,0.73,0.92,0.82,-0.97,
6.826,2.29,-0.20,0.73,0.92,0.82,-0.97,
6.827,2.16,-0.11,0.55,0.92,0.82,-0.97,
6.828,2.16,-0.11,0.55,0.92,0.82,-0.97,
6.834,2.16,-0.11,0.55,0.97,0.86,-0.97,
6.835,2.16,-0.11,0.55,0.97,0.86,-0.97,
6.835,1.94,0.06,0.36,0.97,0.86,-0.97,
6.836,1.94,0.06,0.36,0.97,0.86,-0.97,
6.845,1.94,0.06,0.36,0.91,0.84,-0.91,
6.846,1.94,0.06,0.36,0.91,0.84,-0.91,
6.846,1.65,0.27,0.14,0.91,0.84,-0.91,
6.847,1.65,0.27,0.14,0.91,0.84,-0.91,
6.853,1.65,0.27,0.14,0.78,0.76,-0.83,
6.854,1.65,0.27,0.14,0.78,0.76,-0.83,
6.855,1.36,0.48,-0.10,0.78,0.76,-0.83,
6.855,1.36,0.48,-0.10,0.78,0.76,-0.83,
6.863,1.36,0.48,-0.10,0.58,0.62,-0.74,
6.864,1.36,0.48,-0.10,0.58,0.62,-0.74,
6.864,1.12,0.64,-0.39,0.58,0.62,-0.74,
6.865,1.12,0.64,-0.39,0.58,0.62,-0.74,
6.872,1.12,0.64,-0.39,0.33,0.43,-0.64,
6.873,1.12,0.64,-0.39,0.33,0.43,-0.64,
6.874,1.03,0.66,-0.72,0.33,0.43,-0.64,
6.874,1.03,0.66,-0.72,0.33,0.43,-0.64,
6.887,1.03,0.66,-0.72,0.05,0.21,-0.52,
6.888,1.03,0.66,-0.72,0.05,0.21,-0.52,
6.888,1.14,0.51,-1.06,0.05,0.21,-0.52,
6.889,1.14,0.51,-1.06,0.05,0.21,-0.52,
6.892,1.14,0.51,-1.06,-0.22,-0.01,-0.39,
6.893,1.14,0.51,-1.06,-0.22,-0.01,-0.39,
6.898,1.47,0.22,-1.36,-0.22,-0.01,-0.39,
6.898,1.47,0.22,-1.36,-0.22,-0.01,-0.39,
6.903,1.47,0.22,-1.36,-0.22,-0.01,-0.39,
6.904,1.47,0.22,-1.36,-0.22,-0.01,-0.39,
6.904,1.47,0.22,-1.36,-0.22,-0.01,-0.39,
6.904,1.47,0.22,-1.36,-0.22,-0.01,-0.39,
6.91,1.47,0.22,-1.36,-0.41,-0.20,-0.26,
6.911,1.47,0.22,-1.36,-0.41,-0.20,-0.26,
6.911,3.51,-0.79,-1.86,-0.41,-0.20,-0.26,
6.912,3.51,-0.79,-1.86,-0.41,-0.20,-0.26,
6.921,3.51,-0.79,-1.86,-0.45,-0.28,-0.19,
6.922,3.51,-0.79,-1.86,-0.45,-0.28,-0.19,
6.923,4.92,-2.50,-2.12,-0.45,-0.28,-0.19,
6.923,4.92,-2.50,-2.12,-0.45,-0.28,-0.19,
6.929,4.92,-2.50,-2.12,-0.22,-0.18,-0.24,
6.93,4.92,-2.50,-2.12,-0.22,-0.18,-0.24,
6.931,5.20,-4.41,-2.34,-0.22,-0.18,-0.24,
6.931,5.20,-4.41,-2.34,-0.22,-0.18,-0.24,
6.94,5.20,-4.41,-2.34,0.36,0.11,-0.37,
6.941,5.20,-4.41,-2.34,0.36,0.11,-0.37,
6.942,5.30,-4.84,-2.50,0.36,0.11,-0.37,
6.943,5.30,-4.84,-2.50,0.36,0.11,-0.37,
6.948,5.30,-4.84,-2.50,1.20,0.46,-0.49,
6.949,5.30,-4.84,-2.50,1.20,0.46,-0.49,
6.95,4.97,-5.46,-2.43,1.20,0.46,-0.49,
6.951,4.97,-5.46,-2.43,1.20,0.46,-0.49,
6.958,4.97,-5.46,-2.43,2.06,0.72,-0.49,
6.959,4.97,-5.46,-2.43,2.06,0.72,-0.49,
6.959,3.14,-5.76,-2.12,2.06,0.72,-0.49,
6.96,3.14,-5.76,-2.12,2.06,0.72,-0.49,
6.967,3.14,-5.76,-2.12,2.71,0.80,-0.36,
6.969,3.14,-5.76,-2.12,2.71,0.80,-0.36,
6.969,2.61,-5.56,-1.66,2.71,0.80,-0.36,
6.97,2.61,-5.56,-1.66,2.71,0.80,-0.36,
6.977,2.61,-5.56,-1.66,3.08,0.71,-0.14,
6.978,2.61,-5.56,-1.66,3.08,0.71,-0.14,
6.979,0.73,-3.71,-1.16,3.08,0.71,-0.14,
6.98,0.73,-3.71,-1.16,3.08,0.71,-0.14,
6.991,0.73,-3.71,-1.16,3.19,0.50,0.12,
6.993,0.73,-3.71,-1.16,3.19,0.50,0.12,
6.994,-1.29,-3.26,-0.67,3.19,0.50,0.12,
6.995,-1.29,-3.26,-0.67,3.19,0.50,0.12,
7.0,-1.29,-3.26,-0.67,3.04,0.19,0.38,
7.001,-1.29,-3.26,-0.67,3.04,0.19,0.38,
7.001,-1.77,-1.82,-0.21,3.04,0.19,0.38,
7.002,-1.77,-1.82,-0.21,3.04,0.19,0.38,
7.006,-1.77,-1.82,-0.21,2.67,-0.18,0.61,
7.007,-1.77,-1.82,-0.21,2.67,-0.18,0.61,
7.007,-2.39,-1.51,0.24,2.67,-0.18,0.61,
7.007,-2.39,-1.51,0.24,2.67,-0.18,0.61,
7.015,-2.39,-1.51,0.24,2.14,-0.61,0.77,
7.017,-2.39,-1.51,0.24,2.14,-0.61,0.77,
7.017,-2.77,-1.21,0.60,2.14,-0.61,0.77,
7.018,-2.77,-1.21,0.60,2.14,-0.61,0.77,
7.025,-2.77,-1.21,0.60,1.55,-1.02,0.88,
7.026,-2.77,-1.21,0.60,1.55,-1.02,0.88,
7.027,-2.77,-0.99,0.65,1.55,-1.02,0.88,
7.027,-2.77,-0.99,0.65,1.55,-1.02,0.88,
7.034,-2.77,-0.99,0.65,0.99,-1.35,0.93,
7.035,-2.77,-0.99,0.65,0.99,-1.35,0.93,
7.036,-2.51,-0.90,0.26,0.99,-1.35,0.93,
7.036,-2.51,-0.90,0.26,0.99,-1.35,0.93,
7.044,-2.51,-0.90,0.26,0.49,-1.59,0.95,
7.045,-2.51,-0.90,0.26,0.49,-1.59,0.95,
7.045,-2.26,-0.88,-1.66,0.49,-1.59,0.95,
7.046,-2.26,-0.88,-1.66,0.49,-1.59,0.95,
7.055,-2.26,-0.88,-1.66,0.04,-1.74,0.94,
7.056,-2.26,-0.88,-1.66,0.04,-1.74,0.94,
7.057,-2.17,-0.92,-1.91,0.04,-1.74,0.94,
7.057,-2.17,-0.92,-1.91,0.04,-1.74,0.94,
7.062,-2.17,-0.92,-1.91,-0.37,-1.87,0.87,
7.063,-2.17,-0.92,-1.91,-0.37,-1.87,0.87,
7.063,-2.27,-0.96,-2.15,-0.37,-1.87,0.87,
7.064,-2.27,-0.96,-2.15,-0.37,-1.87,0.87,
7.073,-2.27,-0.96,-2.15,-0.72,-1.97,0.77,
7.074,-2.27,-0.96,-2.15,-0.72,-1.97,0.77,
7.075,-2.43,-0.95,-2.18,-0.72,-1.97,0.77,
7.075,-2.43,-0.95,-2.18,-0.72,-1.97,0.77,
7.083,-2.43,-0.95,-2.18,-0.98,-2.04,0.66,
7.084,-2.43,-0.95,-2.18,-0.98,-2.04,0.66,
7.084,-2.50,-0.88,-1.98,-0.98,-2.04,0.66,
7.085,-2.50,-0.88,-1.98,-0.98,-2.04,0.66,
7.092,-2.50,-0.88,-1.98,-0.98,-2.04,0.66,
7.093,-2.50,-0.88,-1.98,-0.98,-2.04,0.66,
7.094,-2.50,-0.88,-1.98,-0.98,-2.04,0.66,
7.094,-2.50,-0.88,-1.98,-0.98,-2.04,0.66,
7.104,-2.50,-0.88,-1.98,-1.13,-2.05,0.57,
7.106,-2.50,-0.88,-1.98,-1.13,-2.05,0.57,
7.107,-2.42,-0.57,-1.71,-1.13,-2.05,0.57,
7.108,-2.42,-0.57,-1.71,-1.13,-2.05,0.57,
7.11,-2.42,-0.57,-1.71,-1.17,-2.00,0.47,
7.112,-2.42,-0.57,-1.71,-1.17,-2.00,0.47,
7.113,-2.44,-0.31,-1.79,-1.17,-2.00,0.47,
7.114,-2.44,-0.31,-1.79,-1.17,-2.00,0.47,
7.12,-2.44,-0.31,-1.79,-1.16,-1.91,0.35,
