
time,ax,ay,az,wx,wy,wz,
0.002,-0.04,0.02,0.81,-0.05,-0.00,-0.04,
0.002,-0.04,0.02,0.81,-0.05,-0.00,-0.04,
0.003,-0.07,-0.01,0.74,-0.05,-0.00,-0.04,
0.003,-0.07,-0.01,0.74,-0.05,-0.00,-0.04,
0.009,-0.07,-0.01,0.74,-0.09,0.02,0.00,
0.01,-0.07,-0.01,0.74,-0.09,0.02,0.00,
0.01,-0.11,-0.05,0.58,-0.09,0.02,0.00,
0.01,-0.11,-0.05,0.58,-0.09,0.02,0.00,
0.019,-0.11,-0.05,0.58,-0.13,0.04,0.04,
0.019,-0.11,-0.05,0.58,-0.13,0.04,0.04,
0.02,-0.14,-0.08,0.34,-0.13,0.04,0.04,
0.02,-0.14,-0.08,0.34,-0.13,0.04,0.04,
0.028,-0.14,-0.08,0.34,-0.15,0.07,0.06,
0.029,-0.14,-0.08,0.34,-0.15,0.07,0.06,
0.029,-0.14,-0.06,0.15,-0.15,0.07,0.06,
0.03,-0.14,-0.06,0.15,-0.15,0.07,0.06,
0.038,-0.14,-0.06,0.15,-0.17,0.09,0.07,
0.038,-0.14,-0.06,0.15,-0.17,0.09,0.07,
0.039,-0.10,-0.02,0.05,-0.17,0.09,0.07,
0.039,-0.10,-0.02,0.05,-0.17,0.09,0.07,
0.047,-0.10,-0.02,0.05,-0.16,0.12,0.08,
0.048,-0.10,-0.02,0.05,-0.16,0.12,0.08,
0.048,-0.01,0.01,0.06,-0.16,0.12,0.08,
0.049,-0.01,0.01,0.06,-0.16,0.12,0.08,
0.067,-0.01,0.01,0.06,-0.14,0.12,0.06,
0.067,-0.01,0.01,0.06,-0.14,0.12,0.06,
0.068,0.09,0.06,0.17,-0.14,0.12,0.06,
0.068,0.09,0.06,0.17,-0.14,0.12,0.06,
0.068,0.09,0.06,0.17,-0.14,0.12,0.06,
0.069,0.09,0.06,0.17,-0.14,0.12,0.06,
0.069,0.09,0.06,0.17,-0.14,0.12,0.06,
0.07,0.09,0.06,0.17,-0.14,0.12,0.06,
0.076,0.09,0.06,0.17,-0.07,0.06,0.01,
0.077,0.09,0.06,0.17,-0.07,0.06,0.01,
0.077,0.25,0.11,0.40,-0.07,0.06,0.01,
0.078,0.25,0.11,0.40,-0.07,0.06,0.01,
0.085,0.25,0.11,0.40,-0.07,0.06,0.01,
0.086,0.25,0.11,0.40,-0.07,0.06,0.01,
0.086,0.25,0.11,0.40,-0.07,0.06,0.01,
0.087,0.25,0.11,0.40,-0.07,0.06,0.01,
0.095,0.25,0.11,0.40,-0.03,0.00,0.00,
0.096,0.25,0.11,0.40,-0.03,0.00,0.00,
0.096,0.27,0.12,0.52,-0.03,0.00,0.00,
0.096,0.27,0.12,0.52,-0.03,0.00,0.00,
0.105,0.27,0.12,0.52,-0.01,-0.07,0.01,
0.106,0.27,0.12,0.52,-0.01,-0.07,0.01,
0.107,0.24,0.12,0.50,-0.01,-0.07,0.01,
0.108,0.24,0.12,0.50,-0.01,-0.07,0.01,
0.121,0.24,0.12,0.50,-0.00,-0.12,0.03,
0.122,0.24,0.12,0.50,-0.00,-0.12,0.03,
0.122,0.19,0.09,0.41,-0.00,-0.12,0.03,
0.123,0.19,0.09,0.41,-0.00,-0.12,0.03,
0.123,0.19,0.09,0.41,-0.00,-0.16,0.04,
0.124,0.19,0.09,0.41,-0.00,-0.16,0.04,
0.124,0.13,0.06,0.25,-0.00,-0.16,0.04,
0.125,0.13,0.06,0.25,-0.00,-0.16,0.04,
0.136,0.13,0.06,0.25,-0.00,-0.17,0.03,
0.137,0.13,0.06,0.25,-0.00,-0.17,0.03,
0.137,0.09,0.03,0.03,-0.00,-0.17,0.03,
0.137,0.09,0.03,0.03,-0.00,-0.17,0.03,
0.143,0.09,0.03,0.03,-0.01,-0.15,0.03,
0.144,0.09,0.03,0.03,-0.01,-0.15,0.03,
0.144,0.05,0.00,-0.19,-0.01,-0.15,0.03,
0.144,0.05,0.00,-0.19,-0.01,-0.15,0.03,
0.152,0.05,0.00,-0.19,-0.00,-0.12,0.03,
0.153,0.05,0.00,-0.19,-0.00,-0.12,0.03,
0.153,0.02,-0.01,-0.36,-0.00,-0.12,0.03,
0.154,0.02,-0.01,-0.36,-0.00,-0.12,0.03,
0.171,0.02,-0.01,-0.36,0.01,-0.07,0.04,
0.172,0.02,-0.01,-0.36,0.01,-0.07,0.04,
0.172,-0.01,-0.00,-0.45,0.01,-0.07,0.04,
0.173,-0.01,-0.00,-0.45,0.01,-0.07,0.04,
0.174,-0.01,-0.00,-0.45,0.02,-0.02,0.07,
0.174,-0.01,-0.00,-0.45,0.02,-0.02,0.07,
0.175,-0.00,0.01,-0.42,0.02,-0.02,0.07,
0.175,-0.00,0.01,-0.42,0.02,-0.02,0.07,
0.19,-0.00,0.01,-0.42,0.04,0.02,0.09,
0.191,-0.00,0.01,-0.42,0.04,0.02,0.09,
0.191,0.03,0.04,-0.31,0.04,0.02,0.09,
0.191,0.03,0.04,-0.31,0.04,0.02,0.09,
0.192,0.03,0.04,-0.31,0.06,0.06,0.10,
0.192,0.03,0.04,-0.31,0.06,0.06,0.10,
0.192,0.09,0.06,-0.16,0.06,0.06,0.10,
0.193,0.09,0.06,-0.16,0.06,0.06,0.10,
0.201,0.09,0.06,-0.16,0.08,0.07,0.09,
0.202,0.09,0.06,-0.16,0.08,0.07,0.09,
0.203,0.15,0.08,0.00,0.08,0.07,0.09,
0.204,0.15,0.08,0.00,0.08,0.07,0.09,
0.209,0.15,0.08,0.00,0.08,0.06,0.07,
0.21,0.15,0.08,0.00,0.08,0.06,0.07,
0.211,0.19,0.08,0.17,0.08,0.06,0.07,
0.212,0.19,0.08,0.17,0.08,0.06,0.07,
0.219,0.19,0.08,0.17,0.08,0.04,0.05,
0.22,0.19,0.08,0.17,0.08,0.04,0.05,
0.221,0.20,0.08,0.34,0.08,0.04,0.05,
0.222,0.20,0.08,0.34,0.08,0.04,0.05,
0.228,0.20,0.08,0.34,0.07,-0.00,0.03,
0.229,0.20,0.08,0.34,0.07,-0.00,0.03,
0.23,0.16,0.11,0.53,0.07,-0.00,0.03,
0.23,0.16,0.11,0.53,0.07,-0.00,0.03,
0.238,0.16,0.11,0.53,0.04,-0.04,0.02,
0.239,0.16,0.11,0.53,0.04,-0.04,0.02,
0.24,0.10,0.13,0.72,0.04,-0.04,0.02,
0.241,0.10,0.13,0.72,0.04,-0.04,0.02,
0.248,0.10,0.13,0.72,0.01,-0.06,0.02,
0.249,0.10,0.13,0.72,0.01,-0.06,0.02,
0.249,0.03,0.14,0.85,0.01,-0.06,0.02,
0.25,0.03,0.14,0.85,0.01,-0.06,0.02,
0.27,0.03,0.14,0.85,-0.02,-0.06,0.03,
0.271,0.03,0.14,0.85,-0.02,-0.06,0.03,
0.271,-0.02,0.12,0.84,-0.02,-0.06,0.03,
0.272,-0.02,0.12,0.84,-0.02,-0.06,0.03,
0.272,-0.02,0.12,0.84,-0.02,-0.06,0.03,
0.273,-0.02,0.12,0.84,-0.02,-0.06,0.03,
0.273,-0.02,0.12,0.84,-0.02,-0.06,0.03,
0.274,-0.02,0.12,0.84,-0.02,-0.06,0.03,
0.276,-0.02,0.12,0.84,-0.07,0.00,0.06,
0.277,-0.02,0.12,0.84,-0.07,0.00,0.06,
0.278,-0.10,0.01,0.16,-0.07,0.00,0.06,
0.278,-0.10,0.01,0.16,-0.07,0.00,0.06,
0.285,-0.10,0.01,0.16,-0.07,0.00,0.06,
0.286,-0.10,0.01,0.16,-0.07,0.00,0.06,
0.287,-0.10,0.01,0.16,-0.07,0.00,0.06,
0.287,-0.10,0.01,0.16,-0.07,0.00,0.06,
0.295,-0.10,0.01,0.16,-0.08,0.05,0.08,
0.296,-0.10,0.01,0.16,-0.08,0.05,0.08,
0.296,0.08,0.12,-1.02,-0.08,0.05,0.08,
0.297,0.08,0.12,-1.02,-0.08,0.05,0.08,
0.304,0.08,0.12,-1.02,-0.06,0.09,0.09,
0.305,0.08,0.12,-1.02,-0.06,0.09,0.09,
0.306,0.35,0.28,-1.44,-0.06,0.09,0.09,
0.306,0.35,0.28,-1.44,-0.06,0.09,0.09,
0.314,0.35,0.28,-1.44,-0.00,0.10,0.07,
0.315,0.35,0.28,-1.44,-0.00,0.10,0.07,
0.315,0.67,0.40,-1.51,-0.00,0.10,0.07,
0.316,0.67,0.40,-1.51,-0.00,0.10,0.07,
0.324,0.67,0.40,-1.51,0.12,0.02,0.00,
0.325,0.67,0.40,-1.51,0.12,0.02,0.00,
0.326,1.01,0.40,-1.19,0.12,0.02,0.00,
0.326,1.01,0.40,-1.19,0.12,0.02,0.00,
0.333,1.01,0.40,-1.19,0.27,-0.14,-0.13,
0.334,1.01,0.40,-1.19,0.27,-0.14,-0.13,
0.334,1.24,0.15,0.50,0.27,-0.14,-0.13,
0.335,1.24,0.15,0.50,0.27,-0.14,-0.13,
0.343,1.24,0.15,0.50,0.40,-0.39,-0.12,
0.343,1.24,0.15,0.50,0.40,-0.39,-0.12,
0.344,1.33,-0.34,0.77,0.40,-0.39,-0.12,
0.345,1.33,-0.34,0.77,0.40,-0.39,-0.12,
0.352,1.33,-0.34,0.77,0.39,-0.64,-0.08,
0.353,1.33,-0.34,0.77,0.39,-0.64,-0.08,
0.354,1.27,-0.88,0.97,0.39,-0.64,-0.08,
0.355,1.27,-0.88,0.97,0.39,-0.64,-0.08,
0.363,1.27,-0.88,0.97,0.21,-0.84,-0.10,
0.365,1.27,-0.88,0.97,0.21,-0.84,-0.10,
0.366,1.07,-1.31,0.91,0.21,-0.84,-0.10,
0.368,1.07,-1.31,0.91,0.21,-0.84,-0.10,
0.371,1.07,-1.31,0.91,-0.11,-0.94,-0.03,
0.372,1.07,-1.31,0.91,-0.11,-0.94,-0.03,
0.373,0.78,-1.55,0.65,-0.11,-0.94,-0.03,
0.373,0.78,-1.55,0.65,-0.11,-0.94,-0.03,
0.381,0.78,-1.55,0.65,-0.49,-0.92,0.09,
0.381,0.78,-1.55,0.65,-0.49,-0.92,0.09,
0.382,0.49,-1.64,0.30,-0.49,-0.92,0.09,
0.382,0.49,-1.64,0.30,-0.49,-0.92,0.09,
0.39,0.49,-1.64,0.30,-0.84,-0.81,0.21,
0.391,0.49,-1.64,0.30,-0.84,-0.81,0.21,
0.392,0.41,-1.73,-0.08,-0.84,-0.81,0.21,
0.392,0.41,-1.73,-0.08,-0.84,-0.81,0.21,
0.4,0.41,-1.73,-0.08,-1.10,-0.63,0.33,
0.4,0.41,-1.73,-0.08,-1.10,-0.63,0.33,
0.401,0.65,-1.87,-0.50,-1.10,-0.63,0.33,
0.401,0.65,-1.87,-0.50,-1.10,-0.63,0.33,
0.41,0.65,-1.87,-0.50,-1.27,-0.43,0.43,
0.411,0.65,-1.87,-0.50,-1.27,-0.43,0.43,
0.412,1.21,-1.94,-1.10,-1.27,-0.43,0.43,
0.412,1.21,-1.94,-1.10,-1.27,-0.43,0.43,
0.419,1.21,-1.94,-1.10,-1.35,-0.29,0.53,
0.42,1.21,-1.94,-1.10,-1.35,-0.29,0.53,
0.421,2.65,-1.92,-2.72,-1.35,-0.29,0.53,
0.421,2.65,-1.92,-2.72,-1.35,-0.29,0.53,
0.428,2.65,-1.92,-2.72,-1.37,-0.31,0.60,
0.429,2.65,-1.92,-2.72,-1.37,-0.31,0.60,
0.43,2.90,-1.91,-3.26,-1.37,-0.31,0.60,
0.43,2.90,-1.91,-3.26,-1.37,-0.31,0.60,
0.438,2.90,-1.91,-3.26,-1.32,-0.58,0.59,
0.439,2.90,-1.91,-3.26,-1.32,-0.58,0.59,
0.439,3.08,-1.99,-3.77,-1.32,-0.58,0.59,
0.44,3.08,-1.99,-3.77,-1.32,-0.58,0.59,
0.447,3.08,-1.99,-3.77,-1.24,-1.09,0.50,
0.448,3.08,-1.99,-3.77,-1.24,-1.09,0.50,
0.449,3.09,-2.26,-4.03,-1.24,-1.09,0.50,
0.449,3.09,-2.26,-4.03,-1.24,-1.09,0.50,
0.464,3.09,-2.26,-4.03,-1.14,-1.72,0.37,
0.465,3.09,-2.26,-4.03,-1.14,-1.72,0.37,
0.465,3.03,-2.71,-4.14,-1.14,-1.72,0.37,
0.466,3.03,-2.71,-4.14,-1.14,-1.72,0.37,
0.467,3.03,-2.71,-4.14,-1.09,-2.29,0.28,
0.468,3.03,-2.71,-4.14,-1.09,-2.29,0.28,
0.469,2.99,-3.22,-4.14,-1.09,-2.29,0.28,
0.469,2.99,-3.22,-4.14,-1.09,-2.29,0.28,
0.477,2.99,-3.22,-4.14,-1.13,-2.70,0.29,
0.477,2.99,-3.22,-4.14,-1.13,-2.70,0.29,
0.478,3.03,-3.70,-4.18,-1.13,-2.70,0.29,
0.479,3.03,-3.70,-4.18,-1.13,-2.70,0.29,
0.485,3.03,-3.70,-4.18,-1.13,-2.70,0.29,
0.486,3.03,-3.70,-4.18,-1.13,-2.70,0.29,
0.486,3.03,-3.70,-4.18,-1.13,-2.70,0.29,
0.487,3.03,-3.70,-4.18,-1.13,-2.70,0.29,
0.495,3.03,-3.70,-4.18,-1.28,-2.96,0.44,
0.496,3.03,-3.70,-4.18,-1.28,-2.96,0.44,
0.497,3.45,-4.26,-4.11,-1.28,-2.96,0.44,
0.497,3.45,-4.26,-4.11,-1.28,-2.96,0.44,
0.504,3.45,-4.26,-4.11,-1.56,-3.09,0.71,
0.505,3.45,-4.26,-4.11,-1.56,-3.09,0.71,
0.505,3.76,-4.25,-3.76,-1.56,-3.09,0.71,
0.506,3.76,-4.25,-3.76,-1.56,-3.09,0.71,
0.514,3.76,-4.25,-3.76,-1.90,-3.17,1.05,
0.516,3.76,-4.25,-3.76,-1.90,-3.17,1.05,
0.517,4.03,-4.08,-3.40,-1.90,-3.17,1.05,
0.517,4.03,-4.08,-3.40,-1.90,-3.17,1.05,
0.524,4.03,-4.08,-3.40,-2.21,-3.24,1.38,
0.526,4.03,-4.08,-3.40,-2.21,-3.24,1.38,
0.526,4.28,-3.82,-3.27,-2.21,-3.24,1.38,
0.527,4.28,-3.82,-3.27,-2.21,-3.24,1.38,
0.533,4.28,-3.82,-3.27,-2.37,-3.30,1.62,
0.533,4.28,-3.82,-3.27,-2.37,-3.30,1.62,
0.534,4.49,-3.56,-3.60,-2.37,-3.30,1.62,
0.535,4.49,-3.56,-3.60,-2.37,-3.30,1.62,
0.542,4.49,-3.56,-3.60,-2.31,-3.32,1.72,
0.543,4.49,-3.56,-3.60,-2.31,-3.32,1.72,
0.544,4.73,-3.38,-5.58,-2.31,-3.32,1.72,
0.544,4.73,-3.38,-5.58,-2.31,-3.32,1.72,
0.552,4.73,-3.38,-5.58,-2.10,-3.37,1.68,
0.553,4.73,-3.38,-5.58,-2.10,-3.37,1.68,
0.554,5.03,-3.32,-5.96,-2.10,-3.37,1.68,
0.554,5.03,-3.32,-5.96,-2.10,-3.37,1.68,
0.562,5.03,-3.32,-5.96,-1.85,-3.53,1.52,
0.563,5.03,-3.32,-5.96,-1.85,-3.53,1.52,
0.564,5.44,-3.35,-6.47,-1.85,-3.53,1.52,
0.564,5.44,-3.35,-6.47,-1.85,-3.53,1.52,
0.571,5.44,-3.35,-6.47,-1.65,-3.88,1.28,
0.571,5.44,-3.35,-6.47,-1.65,-3.88,1.28,
0.572,7.09,-3.41,-6.84,-1.65,-3.88,1.28,
0.572,7.09,-3.41,-6.84,-1.65,-3.88,1.28,
0.58,7.09,-3.41,-6.84,-1.53,-4.43,0.99,
0.581,7.09,-3.41,-6.84,-1.53,-4.43,0.99,
0.582,7.27,-3.48,-7.02,-1.53,-4.43,0.99,
0.582,7.27,-3.48,-7.02,-1.53,-4.43,0.99,
0.59,7.27,-3.48,-7.02,-1.48,-5.11,0.69,
0.591,7.27,-3.48,-7.02,-1.48,-5.11,0.69,
0.591,7.48,-3.59,-7.16,-1.48,-5.11,0.69,
0.592,7.48,-3.59,-7.16,-1.48,-5.11,0.69,
0.599,7.48,-3.59,-7.16,-1.48,-5.79,0.42,
0.6,7.48,-3.59,-7.16,-1.48,-5.79,0.42,
0.601,7.42,-3.82,-7.31,-1.48,-5.79,0.42,
0.601,7.42,-3.82,-7.31,-1.48,-5.79,0.42,
0.609,7.42,-3.82,-7.31,-1.48,-6.29,0.22,
0.61,7.42,-3.82,-7.31,-1.48,-6.29,0.22,
0.611,6.86,-4.20,-7.40,-1.48,-6.29,0.22,
0.611,6.86,-4.20,-7.40,-1.48,-6.29,0.22,
0.619,6.86,-4.20,-7.40,-1.38,-6.49,0.17,
0.62,6.86,-4.20,-7.40,-1.38,-6.49,0.17,
0.62,5.03,-4.65,-7.39,-1.38,-6.49,0.17,
0.621,5.03,-4.65,-7.39,-1.38,-6.49,0.17,
0.628,5.03,-4.65,-7.39,-1.21,-6.36,0.33,
0.629,5.03,-4.65,-7.39,-1.21,-6.36,0.33,
0.63,4.42,-5.08,-7.23,-1.21,-6.36,0.33,
0.631,4.42,-5.08,-7.23,-1.21,-6.36,0.33,
0.638,4.42,-5.08,-7.23,-1.07,-5.95,0.69,
0.639,4.42,-5.08,-7.23,-1.07,-5.95,0.69,
0.64,3.86,-5.44,-6.93,-1.07,-5.95,0.69,
0.641,3.86,-5.44,-6.93,-1.07,-5.95,0.69,
0.647,3.86,-5.44,-6.93,-0.94,-5.31,1.24,
0.648,3.86,-5.44,-6.93,-0.94,-5.31,1.24,
0.649,3.63,-5.75,-6.54,-0.94,-5.31,1.24,
0.65,3.63,-5.75,-6.54,-0.94,-5.31,1.24,
0.662,3.63,-5.75,-6.54,-0.78,-4.55,1.92,
0.663,3.63,-5.75,-6.54,-0.78,-4.55,1.92,
0.664,3.73,-6.05,-6.00,-0.78,-4.55,1.92,
0.664,3.73,-6.05,-6.00,-0.78,-4.55,1.92,
0.679,3.73,-6.05,-6.00,-0.78,-4.55,1.92,
0.68,3.73,-6.05,-6.00,-0.78,-4.55,1.92,
0.68,3.73,-6.05,-6.00,-0.78,-4.55,1.92,
0.681,3.73,-6.05,-6.00,-0.78,-4.55,1.92,
0.681,3.73,-6.05,-6.00,-0.58,-3.77,2.63,
0.681,3.73,-6.05,-6.00,-0.58,-3.77,2.63,
0.681,4.66,-6.79,-2.66,-0.58,-3.77,2.63,
0.682,4.66,-6.79,-2.66,-0.58,-3.77,2.63,
0.685,4.66,-6.79,-2.66,-0.28,-2.94,3.27,
0.686,4.66,-6.79,-2.66,-0.28,-2.94,3.27,
0.686,6.15,-6.93,-2.24,-0.28,-2.94,3.27,
0.687,6.15,-6.93,-2.24,-0.28,-2.94,3.27,
0.695,6.15,-6.93,-2.24,0.19,-2.05,3.76,
0.696,6.15,-6.93,-2.24,0.19,-2.05,3.76,
0.697,6.22,-6.79,-1.64,0.19,-2.05,3.76,
0.697,6.22,-6.79,-1.64,0.19,-2.05,3.76,
0.704,6.22,-6.79,-1.64,0.82,-1.23,4.00,
0.704,6.22,-6.79,-1.64,0.82,-1.23,4.00,
0.705,7.74,-6.32,-1.30,0.82,-1.23,4.00,
0.705,7.74,-6.32,-1.30,0.82,-1.23,4.00,
0.715,7.74,-6.32,-1.30,1.46,-0.67,3.95,
0.716,7.74,-6.32,-1.30,1.46,-0.67,3.95,
0.717,7.95,-5.58,-1.42,1.46,-0.67,3.95,
0.718,7.95,-5.58,-1.42,1.46,-0.67,3.95,
0.723,7.95,-5.58,-1.42,1.96,-0.45,3.63,
0.724,7.95,-5.58,-1.42,1.96,-0.45,3.63,
0.725,9.37,-4.00,-1.93,1.96,-0.45,3.63,
0.725,9.37,-4.00,-1.93,1.96,-0.45,3.63,
0.733,9.37,-4.00,-1.93,2.32,-0.52,3.08,
0.733,9.37,-4.00,-1.93,2.32,-0.52,3.08,
0.734,9.54,-3.61,-3.40,2.32,-0.52,3.08,
0.734,9.54,-3.61,-3.40,2.32,-0.52,3.08,
0.742,9.54,-3.61,-3.40,2.54,-0.79,2.35,
0.743,9.54,-3.61,-3.40,2.54,-0.79,2.35,
0.743,9.64,-3.30,-3.43,2.54,-0.79,2.35,
0.744,9.64,-3.30,-3.43,2.54,-0.79,2.35,
0.752,9.64,-3.30,-3.43,2.60,-1.19,1.54,
0.753,9.64,-3.30,-3.43,2.60,-1.19,1.54,
0.753,9.51,-3.12,-3.16,2.60,-1.19,1.54,
0.753,9.51,-3.12,-3.16,2.60,-1.19,1.54,
0.762,9.51,-3.12,-3.16,2.51,-1.61,0.78,
0.763,9.51,-3.12,-3.16,2.51,-1.61,0.78,
0.763,9.14,-2.93,-2.52,2.51,-1.61,0.78,
0.763,9.14,-2.93,-2.52,2.51,-1.61,0.78,
0.771,9.14,-2.93,-2.52,2.33,-1.93,0.19,
0.771,9.14,-2.93,-2.52,2.33,-1.93,0.19,
0.772,8.59,-2.79,-0.79,2.33,-1.93,0.19,
0.772,8.59,-2.79,-0.79,2.33,-1.93,0.19,
0.78,8.59,-2.79,-0.79,2.20,-2.04,-0.15,
0.781,8.59,-2.79,-0.79,2.20,-2.04,-0.15,
0.782,8.00,-2.67,-0.13,2.20,-2.04,-0.15,
0.782,8.00,-2.67,-0.13,2.20,-2.04,-0.15,
0.79,8.00,-2.67,-0.13,2.22,-1.94,-0.27,
0.79,8.00,-2.67,-0.13,2.22,-1.94,-0.27,
0.791,7.41,-2.56,0.60,2.22,-1.94,-0.27,
0.791,7.41,-2.56,0.60,2.22,-1.94,-0.27,
0.8,7.41,-2.56,0.60,2.40,-1.66,-0.18,
0.801,7.41,-2.56,0.60,2.40,-1.66,-0.18,
0.801,6.87,-2.49,1.15,2.40,-1.66,-0.18,
0.801,6.87,-2.49,1.15,2.40,-1.66,-0.18,
0.809,6.87,-2.49,1.15,2.69,-1.30,0.07,
0.81,6.87,-2.49,1.15,2.69,-1.30,0.07,
0.81,6.46,-2.36,1.32,2.69,-1.30,0.07,
0.811,6.46,-2.36,1.32,2.69,-1.30,0.07,
0.819,6.46,-2.36,1.32,3.00,-0.95,0.39,
0.82,6.46,-2.36,1.32,3.00,-0.95,0.39,
0.82,6.24,-2.08,1.04,3.00,-0.95,0.39,
0.821,6.24,-2.08,1.04,3.00,-0.95,0.39,
0.828,6.24,-2.08,1.04,3.26,-0.67,0.73,
0.829,6.24,-2.08,1.04,3.26,-0.67,0.73,
0.83,6.20,-1.66,-0.49,3.26,-0.67,0.73,
0.831,6.20,-1.66,-0.49,3.26,-0.67,0.73,
0.837,6.20,-1.66,-0.49,3.37,-0.50,0.99,
0.838,6.20,-1.66,-0.49,3.37,-0.50,0.99,
0.839,6.20,-1.19,-1.78,3.37,-0.50,0.99,
0.839,6.20,-1.19,-1.78,3.37,-0.50,0.99,
0.847,6.20,-1.19,-1.78,3.23,-0.50,1.08,
0.848,6.20,-1.19,-1.78,3.23,-0.50,1.08,
0.849,6.18,-0.74,-3.45,3.23,-0.50,1.08,
0.849,6.18,-0.74,-3.45,3.23,-0.50,1.08,
0.861,6.18,-0.74,-3.45,2.79,-0.68,0.92,
0.862,6.18,-0.74,-3.45,2.79,-0.68,0.92,
0.862,6.07,-0.39,-3.52,2.79,-0.68,0.92,
0.863,6.07,-0.39,-3.52,2.79,-0.68,0.92,
0.867,6.07,-0.39,-3.52,2.79,-0.68,0.92,
0.868,6.07,-0.39,-3.52,2.79,-0.68,0.92,
0.869,6.07,-0.39,-3.52,2.79,-0.68,0.92,
0.869,6.07,-0.39,-3.52,2.79,-0.68,0.92,
0.876,6.07,-0.39,-3.52,2.05,-1.02,0.54,
0.877,6.07,-0.39,-3.52,2.05,-1.02,0.54,
0.877,6.01,-0.18,-3.98,2.05,-1.02,0.54,
0.877,6.01,-0.18,-3.98,2.05,-1.02,0.54,
0.885,6.01,-0.18,-3.98,1.14,-1.42,0.04,
0.886,6.01,-0.18,-3.98,1.14,-1.42,0.04,
0.886,6.08,-0.24,-3.66,1.14,-1.42,0.04,
0.887,6.08,-0.24,-3.66,1.14,-1.42,0.04,
0.895,6.08,-0.24,-3.66,0.21,-1.79,-0.46,
0.896,6.08,-0.24,-3.66,0.21,-1.79,-0.46,
0.897,6.28,-0.36,-2.96,0.21,-1.79,-0.46,
0.897,6.28,-0.36,-2.96,0.21,-1.79,-0.46,
0.904,6.28,-0.36,-2.96,-0.59,-2.05,-0.84,
0.905,6.28,-0.36,-2.96,-0.59,-2.05,-0.84,
0.905,6.47,-0.54,-1.06,-0.59,-2.05,-0.84,
0.906,6.47,-0.54,-1.06,-0.59,-2.05,-0.84,
0.914,6.47,-0.54,-1.06,-1.13,-2.15,-1.06,
0.915,6.47,-0.54,-1.06,-1.13,-2.15,-1.06,
0.916,6.40,-0.76,0.83,-1.13,-2.15,-1.06,
0.916,6.40,-0.76,0.83,-1.13,-2.15,-1.06,
0.923,6.40,-0.76,0.83,-1.30,-2.03,-1.09,
0.924,6.40,-0.76,0.83,-1.30,-2.03,-1.09,
0.925,6.04,-1.01,1.25,-1.30,-2.03,-1.09,
0.925,6.04,-1.01,1.25,-1.30,-2.03,-1.09,
0.933,6.04,-1.01,1.25,-1.05,-1.68,-0.93,
0.933,6.04,-1.01,1.25,-1.05,-1.68,-0.93,
0.934,5.40,-1.33,1.68,-1.05,-1.68,-0.93,
0.935,5.40,-1.33,1.68,-1.05,-1.68,-0.93,
0.942,5.40,-1.33,1.68,-0.50,-1.20,-0.62,
0.943,5.40,-1.33,1.68,-0.50,-1.20,-0.62,
0.943,3.82,-1.70,1.80,-0.50,-1.20,-0.62,
0.944,3.82,-1.70,1.80,-0.50,-1.20,-0.62,
0.952,3.82,-1.70,1.80,0.14,-0.72,-0.22,
0.953,3.82,-1.70,1.80,0.14,-0.72,-0.22,
0.953,3.40,-2.00,1.53,0.14,-0.72,-0.22,
0.954,3.40,-2.00,1.53,0.14,-0.72,-0.22,
0.961,3.40,-2.00,1.53,0.71,-0.30,0.24,
0.962,3.40,-2.00,1.53,0.71,-0.30,0.24,
0.963,2.94,-2.28,-0.36,0.71,-0.30,0.24,
0.963,2.94,-2.28,-0.36,0.71,-0.30,0.24,
0.971,2.94,-2.28,-0.36,0.76,-0.14,0.69,
0.972,2.94,-2.28,-0.36,0.76,-0.14,0.69,
0.972,2.53,-2.47,-0.68,0.76,-0.14,0.69,
0.972,2.53,-2.47,-0.68,0.76,-0.14,0.69,
0.981,2.53,-2.47,-0.68,0.58,-0.13,1.07,
0.982,2.53,-2.47,-0.68,0.58,-0.13,1.07,
0.982,2.20,-2.67,-2.31,0.58,-0.13,1.07,
0.982,2.20,-2.67,-2.31,0.58,-0.13,1.07,
0.99,2.20,-2.67,-2.31,0.46,-0.12,1.30,
0.99,2.20,-2.67,-2.31,0.46,-0.12,1.30,
0.991,1.86,-2.90,-2.48,0.46,-0.12,1.30,
0.991,1.86,-2.90,-2.48,0.46,-0.12,1.30,
1.0,1.86,-2.90,-2.48,0.03,-0.26,1.40,
1.0,1.86,-2.90,-2.48,0.03,-0.26,1.40,
1.001,1.51,-3.09,-2.76,0.03,-0.26,1.40,
1.001,1.51,-3.09,-2.76,0.03,-0.26,1.40,
1.009,1.51,-3.09,-2.76,-0.54,-0.46,1.43,
1.009,1.51,-3.09,-2.76,-0.54,-0.46,1.43,
1.01,1.13,-3.24,-3.05,-0.54,-0.46,1.43,
1.01,1.13,-3.24,-3.05,-0.54,-0.46,1.43,
1.019,1.13,-3.24,-3.05,-1.09,-0.68,1.46,
1.019,1.13,-3.24,-3.05,-1.09,-0.68,1.46,
1.02,0.73,-3.32,-3.28,-1.09,-0.68,1.46,
1.02,0.73,-3.32,-3.28,-1.09,-0.68,1.46,
1.028,0.73,-3.32,-3.28,-1.51,-0.88,1.52,
1.029,0.73,-3.32,-3.28,-1.51,-0.88,1.52,
1.03,0.28,-3.43,-3.45,-1.51,-0.88,1.52,
1.03,0.28,-3.43,-3.45,-1.51,-0.88,1.52,
1.037,0.28,-3.43,-3.45,-1.77,-1.05,1.62,
1.038,0.28,-3.43,-3.45,-1.77,-1.05,1.62,
1.039,-0.05,-3.40,-5.43,-1.77,-1.05,1.62,
1.04,-0.05,-3.40,-5.43,-1.77,-1.05,1.62,
1.047,-0.05,-3.40,-5.43,-1.93,-1.11,1.41,
1.048,-0.05,-3.40,-5.43,-1.93,-1.11,1.41,
1.049,-0.08,-3.12,-7.22,-1.93,-1.11,1.41,
1.05,-0.08,-3.12,-7.22,-1.93,-1.11,1.41,
1.061,-0.08,-3.12,-7.22,-2.13,-1.29,1.24,
1.062,-0.08,-3.12,-7.22,-2.13,-1.29,1.24,
1.063,0.02,-2.66,-7.53,-2.13,-1.29,1.24,
1.063,0.02,-2.66,-7.53,-2.13,-1.29,1.24,
1.068,0.02,-2.66,-7.53,-2.48,-1.79,1.35,
1.069,0.02,-2.66,-7.53,-2.48,-1.79,1.35,
1.069,0.18,-2.18,-7.79,-2.48,-1.79,1.35,
1.07,0.18,-2.18,-7.79,-2.48,-1.79,1.35,
1.076,0.18,-2.18,-7.79,-2.95,-1.79,1.32,
1.077,0.18,-2.18,-7.79,-2.95,-1.79,1.32,
1.077,0.29,-1.90,-6.17,-2.95,-1.79,1.32,
1.078,0.29,-1.90,-6.17,-2.95,-1.79,1.32,
1.086,0.29,-1.90,-6.17,-2.95,-1.79,1.32,
1.087,0.29,-1.90,-6.17,-2.95,-1.79,1.32,
1.087,0.29,-1.90,-6.17,-2.95,-1.79,1.32,
1.088,0.29,-1.90,-6.17,-2.95,-1.79,1.32,
1.095,0.29,-1.90,-6.17,-3.32,-1.82,1.16,
1.096,0.29,-1.90,-6.17,-3.32,-1.82,1.16,
1.096,0.41,-2.16,-3.47,-3.32,-1.82,1.16,
1.096,0.41,-2.16,-3.47,-3.32,-1.82,1.16,
1.104,0.41,-2.16,-3.47,-3.30,-2.26,0.91,
1.105,0.41,-2.16,-3.47,-3.30,-2.26,0.91,
1.105,0.64,-2.26,-2.90,-3.30,-2.26,0.91,
1.106,0.64,-2.26,-2.90,-3.30,-2.26,0.91,
1.114,0.64,-2.26,-2.90,-2.75,-2.31,0.64,
1.116,0.64,-2.26,-2.90,-2.75,-2.31,0.64,
1.116,0.88,-2.25,-2.42,-2.75,-2.31,0.64,
1.117,0.88,-2.25,-2.42,-2.75,-2.31,0.64,
1.123,0.88,-2.25,-2.42,-1.75,-2.05,0.38,
1.124,0.88,-2.25,-2.42,-1.75,-2.05,0.38,
1.124,1.03,-2.23,-1.96,-1.75,-2.05,0.38,
1.125,1.03,-2.23,-1.96,-1.75,-2.05,0.38,
1.133,1.03,-2.23,-1.96,-0.54,-1.65,0.17,
1.134,1.03,-2.23,-1.96,-0.54,-1.65,0.17,
1.134,1.07,-2.31,-1.36,-0.54,-1.65,0.17,
1.135,1.07,-2.31,-1.36,-0.54,-1.65,0.17,
1.142,1.07,-2.31,-1.36,0.62,-1.28,0.01,
1.143,1.07,-2.31,-1.36,0.62,-1.28,0.01,
1.144,0.99,-2.43,-0.68,0.62,-1.28,0.01,
1.144,0.99,-2.43,-0.68,0.62,-1.28,0.01,
1.152,0.99,-2.43,-0.68,1.63,-0.98,-0.06,
1.152,0.99,-2.43,-0.68,1.63,-0.98,-0.06,
1.153,0.65,-2.56,-0.41,1.63,-0.98,-0.06,
1.154,0.65,-2.56,-0.41,1.63,-0.98,-0.06,
1.161,0.65,-2.56,-0.41,2.52,-0.73,-0.05,
1.163,0.65,-2.56,-0.41,2.52,-0.73,-0.05,
1.163,0.23,-2.62,-0.57,2.52,-0.73,-0.05,
1.164,0.23,-2.62,-0.57,2.52,-0.73,-0.05,
1.171,0.23,-2.62,-0.57,3.29,-0.56,0.08,
1.172,0.23,-2.62,-0.57,3.29,-0.56,0.08,
1.172,-0.24,-2.61,-0.63,3.29,-0.56,0.08,
1.172,-0.24,-2.61,-0.63,3.29,-0.56,0.08,
1.18,-0.24,-2.61,-0.63,3.86,-0.46,0.10,
1.181,-0.24,-2.61,-0.63,3.86,-0.46,0.10,
1.182,-0.82,-2.48,-1.01,3.86,-0.46,0.10,
1.182,-0.82,-2.48,-1.01,3.86,-0.46,0.10,
1.19,-0.82,-2.48,-1.01,4.19,-0.43,0.20,
1.191,-0.82,-2.48,-1.01,4.19,-0.43,0.20,
1.191,-1.33,-2.31,-1.52,4.19,-0.43,0.20,
1.191,-1.33,-2.31,-1.52,4.19,-0.43,0.20,
1.199,-1.33,-2.31,-1.52,4.26,-0.45,0.52,
1.2,-1.33,-2.31,-1.52,4.26,-0.45,0.52,
1.2,-1.74,-2.09,-1.76,4.26,-0.45,0.52,
1.201,-1.74,-2.09,-1.76,4.26,-0.45,0.52,
1.209,-1.74,-2.09,-1.76,4.09,-0.51,0.80,
1.21,-1.74,-2.09,-1.76,4.09,-0.51,0.80,
1.21,-2.28,-1.72,-3.58,4.09,-0.51,0.80,
1.21,-2.28,-1.72,-3.58,4.09,-0.51,0.80,
1.218,-2.28,-1.72,-3.58,3.68,-0.41,1.01,
1.219,-2.28,-1.72,-3.58,3.68,-0.41,1.01,
1.219,-2.77,-1.37,-3.64,3.68,-0.41,1.01,
1.22,-2.77,-1.37,-3.64,3.68,-0.41,1.01,
1.229,-2.77,-1.37,-3.64,3.03,-0.41,1.14,
1.23,-2.77,-1.37,-3.64,3.03,-0.41,1.14,
1.23,-2.99,-1.09,-3.27,3.03,-0.41,1.14,
1.231,-2.99,-1.09,-3.27,3.03,-0.41,1.14,
1.237,-2.99,-1.09,-3.27,2.23,-0.69,1.18,
1.237,-2.99,-1.09,-3.27,2.23,-0.69,1.18,
1.238,-3.26,-0.84,-3.00,2.23,-0.69,1.18,
1.238,-3.26,-0.84,-3.00,2.23,-0.69,1.18,
1.247,-3.26,-0.84,-3.00,1.47,-0.96,1.19,
1.247,-3.26,-0.84,-3.00,1.47,-0.96,1.19,
1.248,-3.41,-0.72,-2.77,1.47,-0.96,1.19,
1.248,-3.41,-0.72,-2.77,1.47,-0.96,1.19,
1.258,-3.41,-0.72,-2.77,0.95,-1.17,1.17,
1.259,-3.41,-0.72,-2.77,0.95,-1.17,1.17,
1.259,-3.34,-0.71,-2.25,0.95,-1.17,1.17,
1.259,-3.34,-0.71,-2.25,0.95,-1.17,1.17,
1.267,-3.34,-0.71,-2.25,0.69,-1.29,1.15,
1.268,-3.34,-0.71,-2.25,0.69,-1.29,1.15,
1.268,-3.11,-0.74,-1.82,0.69,-1.29,1.15,
1.268,-3.11,-0.74,-1.82,0.69,-1.29,1.15,
1.275,-3.11,-0.74,-1.82,0.69,-1.29,1.15,
1.276,-3.11,-0.74,-1.82,0.69,-1.29,1.15,
1.276,-3.11,-0.74,-1.82,0.69,-1.29,1.15,
1.277,-3.11,-0.74,-1.82,0.69,-1.29,1.15,
1.285,-3.11,-0.74,-1.82,0.65,-1.33,1.13,
1.286,-3.11,-0.74,-1.82,0.65,-1.33,1.13,
1.286,-2.22,-1.07,-1.20,0.65,-1.33,1.13,
1.287,-2.22,-1.07,-1.20,0.65,-1.33,1.13,
1.294,-2.22,-1.07,-1.20,0.80,-1.30,1.09,
1.295,-2.22,-1.07,-1.20,0.80,-1.30,1.09,
1.296,-0.75,-1.25,-1.08,0.80,-1.30,1.09,
1.296,-0.75,-1.25,-1.08,0.80,-1.30,1.09,
1.304,-0.75,-1.25,-1.08,1.10,-1.23,1.00,
1.305,-0.75,-1.25,-1.08,1.10,-1.23,1.00,
1.306,-0.54,-1.36,-1.24,1.10,-1.23,1.00,
1.306,-0.54,-1.36,-1.24,1.10,-1.23,1.00,
1.314,-0.54,-1.36,-1.24,1.44,-1.17,0.82,
1.315,-0.54,-1.36,-1.24,1.44,-1.17,0.82,
1.316,-0.26,-1.42,-1.46,1.44,-1.17,0.82,
1.316,-0.26,-1.42,-1.46,1.44,-1.17,0.82,
1.323,-0.26,-1.42,-1.46,1.67,-1.14,0.57,
1.324,-0.26,-1.42,-1.46,1.67,-1.14,0.57,
1.324,-0.03,-1.38,-1.62,1.67,-1.14,0.57,
1.325,-0.03,-1.38,-1.62,1.67,-1.14,0.57,
1.332,-0.03,-1.38,-1.62,1.73,-1.17,0.32,
1.333,-0.03,-1.38,-1.62,1.73,-1.17,0.32,
1.334,0.07,-1.23,-1.71,1.73,-1.17,0.32,
1.335,0.07,-1.23,-1.71,1.73,-1.17,0.32,
1.342,0.07,-1.23,-1.71,1.62,-1.23,0.12,
1.343,0.07,-1.23,-1.71,1.62,-1.23,0.12,
1.343,0.06,-1.08,-1.58,1.62,-1.23,0.12,
1.344,0.06,-1.08,-1.58,1.62,-1.23,0.12,
1.352,0.06,-1.08,-1.58,1.42,-1.29,-0.03,
1.353,0.06,-1.08,-1.58,1.42,-1.29,-0.03,
1.353,-0.13,-1.02,-1.34,1.42,-1.29,-0.03,
1.354,-0.13,-1.02,-1.34,1.42,-1.29,-0.03,
1.367,-0.13,-1.02,-1.34,1.19,-1.30,-0.14,
1.368,-0.13,-1.02,-1.34,1.19,-1.30,-0.14,
1.368,-0.56,-1.05,-1.11,1.19,-1.30,-0.14,
1.369,-0.56,-1.05,-1.11,1.19,-1.30,-0.14,
1.371,-0.56,-1.05,-1.11,0.98,-1.25,-0.19,
1.372,-0.56,-1.05,-1.11,0.98,-1.25,-0.19,
1.372,-2.26,-1.16,-0.93,0.98,-1.25,-0.19,
1.372,-2.26,-1.16,-0.93,0.98,-1.25,-0.19,
1.38,-2.26,-1.16,-0.93,0.81,-1.13,-0.15,
1.381,-2.26,-1.16,-0.93,0.81,-1.13,-0.15,
1.381,-2.44,-1.22,-0.87,0.81,-1.13,-0.15,
1.381,-2.44,-1.22,-0.87,0.81,-1.13,-0.15,
1.389,-2.44,-1.22,-0.87,0.68,-0.95,0.06,
1.39,-2.44,-1.22,-0.87,0.68,-0.95,0.06,
1.39,-2.69,-1.12,-0.89,0.68,-0.95,0.06,
1.391,-2.69,-1.12,-0.89,0.68,-0.95,0.06,
1.399,-2.69,-1.12,-0.89,0.56,-0.75,0.40,
1.4,-2.69,-1.12,-0.89,0.56,-0.75,0.40,
1.4,-2.95,-0.94,-0.92,0.56,-0.75,0.40,
1.401,-2.95,-0.94,-0.92,0.56,-0.75,0.40,
1.409,-2.95,-0.94,-0.92,0.43,-0.57,0.79,
1.41,-2.95,-0.94,-0.92,0.43,-0.57,0.79,
1.411,-3.29,-0.76,-0.99,0.43,-0.57,0.79,
1.411,-3.29,-0.76,-0.99,0.43,-0.57,0.79,
1.418,-3.29,-0.76,-0.99,0.28,-0.42,1.12,
1.419,-3.29,-0.76,-0.99,0.28,-0.42,1.12,
1.42,-3.82,-0.72,-1.11,0.28,-0.42,1.12,
1.42,-3.82,-0.72,-1.11,0.28,-0.42,1.12,
1.427,-3.82,-0.72,-1.11,0.09,-0.27,1.38,
1.428,-3.82,-0.72,-1.11,0.09,-0.27,1.38,
1.429,-4.43,-0.86,-1.25,0.09,-0.27,1.38,
1.429,-4.43,-0.86,-1.25,0.09,-0.27,1.38,
1.437,-4.43,-0.86,-1.25,-0.11,-0.12,1.61,
1.437,-4.43,-0.86,-1.25,-0.11,-0.12,1.61,
1.438,-4.82,-1.04,-1.41,-0.11,-0.12,1.61,
1.438,-4.82,-1.04,-1.41,-0.11,-0.12,1.61,
1.447,-4.82,-1.04,-1.41,-0.33,-0.00,1.88,
1.448,-4.82,-1.04,-1.41,-0.33,-0.00,1.88,
1.448,-4.59,-1.17,-1.37,-0.33,-0.00,1.88,
1.449,-4.59,-1.17,-1.37,-0.33,-0.00,1.88,
1.456,-4.59,-1.17,-1.37,-0.58,0.09,2.19,
1.457,-4.59,-1.17,-1.37,-0.58,0.09,2.19,
1.457,-2.91,-1.19,-0.99,-0.58,0.09,2.19,
1.458,-2.91,-1.19,-0.99,-0.58,0.09,2.19,
1.467,-2.91,-1.19,-0.99,-0.58,0.09,2.19,
1.468,-2.91,-1.19,-0.99,-0.58,0.09,2.19,
1.468,-2.91,-1.19,-0.99,-0.58,0.09,2.19,
1.468,-2.91,-1.19,-0.99,-0.58,0.09,2.19,
1.475,-2.91,-1.19,-0.99,-0.82,0.18,2.45,
1.476,-2.91,-1.19,-0.99,-0.82,0.18,2.45,
1.477,-2.17,-1.30,0.11,-0.82,0.18,2.45,
1.477,-2.17,-1.30,0.11,-0.82,0.18,2.45,
1.485,-2.17,-1.30,0.11,-0.92,0.26,2.48,
1.486,-2.17,-1.30,0.11,-0.92,0.26,2.48,
1.487,-1.92,-1.36,0.20,-0.92,0.26,2.48,
1.487,-1.92,-1.36,0.20,-0.92,0.26,2.48,
1.495,-1.92,-1.36,0.20,-0.77,0.33,2.21,
1.496,-1.92,-1.36,0.20,-0.77,0.33,2.21,
1.497,-1.75,-1.44,-0.22,-0.77,0.33,2.21,
1.497,-1.75,-1.44,-0.22,-0.77,0.33,2.21,
1.504,-1.75,-1.44,-0.22,-0.43,0.33,1.75,
1.505,-1.75,-1.44,-0.22,-0.43,0.33,1.75,
1.505,-1.55,-1.43,-0.69,-0.43,0.33,1.75,
1.506,-1.55,-1.43,-0.69,-0.43,0.33,1.75,
1.514,-1.55,-1.43,-0.69,-0.10,0.27,1.30,
1.515,-1.55,-1.43,-0.69,-0.10,0.27,1.30,
1.516,-1.32,-1.31,-1.25,-0.10,0.27,1.30,
1.516,-1.32,-1.31,-1.25,-0.10,0.27,1.30,
1.523,-1.32,-1.31,-1.25,0.03,0.18,0.92,
1.524,-1.32,-1.31,-1.25,0.03,0.18,0.92,
1.524,-1.53,-1.08,-1.46,0.03,0.18,0.92,
1.525,-1.53,-1.08,-1.46,0.03,0.18,0.92,
1.532,-1.53,-1.08,-1.46,-0.06,0.03,0.62,
1.533,-1.53,-1.08,-1.46,-0.06,0.03,0.62,
1.534,-2.99,-0.56,-1.23,-0.06,0.03,0.62,
1.534,-2.99,-0.56,-1.23,-0.06,0.03,0.62,
1.542,-2.99,-0.56,-1.23,-0.25,0.00,0.40,
1.543,-2.99,-0.56,-1.23,-0.25,0.00,0.40,
1.543,-3.44,1.03,-0.91,-0.25,0.00,0.40,
1.544,-3.44,1.03,-0.91,-0.25,0.00,0.40,
1.552,-3.44,1.03,-0.91,-0.43,-0.02,0.29,
1.553,-3.44,1.03,-0.91,-0.43,-0.02,0.29,
1.553,-3.43,1.43,-0.46,-0.43,-0.02,0.29,
1.554,-3.43,1.43,-0.46,-0.43,-0.02,0.29,
1.562,-3.43,1.43,-0.46,-0.47,-0.18,0.24,
1.563,-3.43,1.43,-0.46,-0.47,-0.18,0.24,
1.564,-0.86,1.68,-0.21,-0.47,-0.18,0.24,
1.564,-0.86,1.68,-0.21,-0.47,-0.18,0.24,
1.57,-0.86,1.68,-0.21,-0.32,-0.32,0.08,
1.571,-0.86,1.68,-0.21,-0.32,-0.32,0.08,
1.571,1.19,1.49,-0.44,-0.32,-0.32,0.08,
1.572,1.19,1.49,-0.44,-0.32,-0.32,0.08,
1.58,1.19,1.49,-0.44,0.02,-0.50,-0.36,
1.581,1.19,1.49,-0.44,0.02,-0.50,-0.36,
1.582,1.60,-0.28,-1.04,0.02,-0.50,-0.36,
1.582,1.60,-0.28,-1.04,0.02,-0.50,-0.36,
1.59,1.60,-0.28,-1.04,0.44,-0.76,-1.07,
1.591,1.60,-0.28,-1.04,0.44,-0.76,-1.07,
1.591,1.64,-0.55,-2.47,0.44,-0.76,-1.07,
1.591,1.64,-0.55,-2.47,0.44,-0.76,-1.07,
1.599,1.64,-0.55,-2.47,0.69,-1.02,-1.74,
1.6,1.64,-0.55,-2.47,0.69,-1.02,-1.74,
1.601,1.27,-0.83,-2.34,0.69,-1.02,-1.74,
1.601,1.27,-0.83,-2.34,0.69,-1.02,-1.74,
1.609,1.27,-0.83,-2.34,0.54,-1.20,-2.06,
1.61,1.27,-0.83,-2.34,0.54,-1.20,-2.06,
1.611,0.69,-1.29,-0.40,0.54,-1.20,-2.06,
1.611,0.69,-1.29,-0.40,0.54,-1.20,-2.06,
1.618,0.69,-1.29,-0.40,0.13,-1.24,-1.96,
1.619,0.69,-1.29,-0.40,0.13,-1.24,-1.96,
1.62,0.31,-3.06,0.08,0.13,-1.24,-1.96,
1.62,0.31,-3.06,0.08,0.13,-1.24,-1.96,
1.628,0.31,-3.06,0.08,-0.10,-1.17,-1.55,
1.63,0.31,-3.06,0.08,-0.10,-1.17,-1.55,
1.631,0.25,-5.21,1.88,-0.10,-1.17,-1.55,
1.632,0.25,-5.21,1.88,-0.10,-1.17,-1.55,
1.637,0.25,-5.21,1.88,0.06,-1.01,-0.88,
1.638,0.25,-5.21,1.88,0.06,-1.01,-0.88,
1.638,0.36,-7.60,2.29,0.06,-1.01,-0.88,
1.639,0.36,-7.60,2.29,0.06,-1.01,-0.88,
1.646,0.36,-7.60,2.29,0.58,-0.76,0.04,
1.647,0.36,-7.60,2.29,0.58,-0.76,0.04,
1.648,0.48,-9.66,2.26,0.58,-0.76,0.04,
1.648,0.48,-9.66,2.26,0.58,-0.76,0.04,
1.658,0.48,-9.66,2.26,1.20,-0.41,1.12,
1.659,0.48,-9.66,2.26,1.20,-0.41,1.12,
1.659,-1.81,-10.06,0.58,1.20,-0.41,1.12,
1.66,-1.81,-10.06,0.58,1.20,-0.41,1.12,
1.679,-1.81,-10.06,0.58,1.20,-0.41,1.12,
1.68,-1.81,-10.06,0.58,1.20,-0.41,1.12,
1.681,-1.81,-10.06,0.58,1.20,-0.41,1.12,
1.681,-1.81,-10.06,0.58,1.20,-0.41,1.12,
1.681,-1.81,-10.06,0.58,1.47,-0.01,2.17,
1.682,-1.81,-10.06,0.58,1.47,-0.01,2.17,
1.682,-3.74,-7.82,-3.22,1.47,-0.01,2.17,
1.683,-3.74,-7.82,-3.22,1.47,-0.01,2.17,
1.683,-3.74,-7.82,-3.22,1.21,0.39,3.05,
1.683,-4.21,-4.53,-3.29,1.21,0.39,3.05,
1.689,-4.21,-4.53,-3.29,1.05,0.58,3.68,
1.69,-4.21,-4.53,-3.29,1.05,0.58,3.68,
1.69,-4.22,-2.78,-3.02,1.05,0.58,3.68,
1.69,-4.22,-2.78,-3.02,1.05,0.58,3.68,
1.698,-4.22,-2.78,-3.02,0.54,0.57,3.54,
1.699,-4.22,-2.78,-3.02,0.54,0.57,3.54,
1.699,-3.72,-1.10,-1.19,0.54,0.57,3.54,
1.7,-3.72,-1.10,-1.19,0.54,0.57,3.54,
1.708,-3.72,-1.10,-1.19,-0.52,0.57,2.84,
1.709,-3.72,-1.10,-1.19,-0.52,0.57,2.84,
1.71,-3.37,-0.52,-0.74,-0.52,0.57,2.84,
1.71,-3.37,-0.52,-0.74,-0.52,0.57,2.84,
1.718,-3.37,-0.52,-0.74,-1.13,0.56,2.29,
1.719,-3.37,-0.52,-0.74,-1.13,0.56,2.29,
1.719,-3.15,-0.29,-0.44,-1.13,0.56,2.29,
1.72,-3.15,-0.29,-0.44,-1.13,0.56,2.29,
1.728,-3.15,-0.29,-0.44,-1.24,0.50,1.87,
1.729,-3.15,-0.29,-0.44,-1.24,0.50,1.87,
1.729,-2.91,-0.33,-0.41,-1.24,0.50,1.87,
1.73,-2.91,-0.33,-0.41,-1.24,0.50,1.87,
1.737,-2.91,-0.33,-0.41,-1.02,0.38,1.49,
1.737,-2.91,-0.33,-0.41,-1.02,0.38,1.49,
1.738,-2.46,-0.48,-0.33,-1.02,0.38,1.49,
1.739,-2.46,-0.48,-0.33,-1.02,0.38,1.49,
1.746,-2.46,-0.48,-0.33,-0.65,0.18,1.26,
1.747,-2.46,-0.48,-0.33,-0.65,0.18,1.26,
1.748,-1.85,-0.65,-0.12,-0.65,0.18,1.26,
1.748,-1.85,-0.65,-0.12,-0.65,0.18,1.26,
1.76,-1.85,-0.65,-0.12,-0.27,0.16,1.07,
1.761,-1.85,-0.65,-0.12,-0.27,0.16,1.07,
1.762,-1.23,-0.74,0.03,-0.27,0.16,1.07,
1.762,-1.23,-0.74,0.03,-0.27,0.16,1.07,
1.766,-1.23,-0.74,0.03,-0.27,0.16,1.07,
1.767,-1.23,-0.74,0.03,-0.27,0.16,1.07,
1.768,-1.23,-0.74,0.03,-0.27,0.16,1.07,
1.768,-1.23,-0.74,0.03,-0.27,0.16,1.07,
1.775,-1.23,-0.74,0.03,0.08,0.10,0.65,
1.776,-1.23,-0.74,0.03,0.08,0.10,0.65,
1.777,-0.71,-1.15,-0.34,0.08,0.10,0.65,
1.777,-0.71,-1.15,-0.34,0.08,0.10,0.65,
1.785,-0.71,-1.15,-0.34,0.39,-0.19,0.14,
1.786,-0.71,-1.15,-0.34,0.39,-0.19,0.14,
1.786,-0.99,-1.45,-0.82,0.39,-0.19,0.14,
1.787,-0.99,-1.45,-0.82,0.39,-0.19,0.14,
1.795,-0.99,-1.45,-0.82,0.60,-0.41,-0.30,
1.796,-0.99,-1.45,-0.82,0.60,-0.41,-0.30,
1.796,-1.47,-1.75,-1.20,0.60,-0.41,-0.30,
1.797,-1.47,-1.75,-1.20,0.60,-0.41,-0.30,
1.804,-1.47,-1.75,-1.20,0.64,-0.56,-0.58,
1.804,-1.47,-1.75,-1.20,0.64,-0.56,-0.58,
1.805,-2.03,-1.98,-1.26,0.64,-0.56,-0.58,
1.805,-2.03,-1.98,-1.26,0.64,-0.56,-0.58,
1.813,-2.03,-1.98,-1.26,0.49,-0.63,-0.65,
1.814,-2.03,-1.98,-1.26,0.49,-0.63,-0.65,
1.815,-2.53,-2.08,-1.07,0.49,-0.63,-0.65,
1.815,-2.53,-2.08,-1.07,0.49,-0.63,-0.65,
1.823,-2.53,-2.08,-1.07,0.24,-0.62,-0.50,
1.824,-2.53,-2.08,-1.07,0.24,-0.62,-0.50,
1.824,-2.92,-1.95,-0.78,0.24,-0.62,-0.50,
1.824,-2.92,-1.95,-0.78,0.24,-0.62,-0.50,
1.833,-2.92,-1.95,-0.78,0.02,-0.57,-0.19,
1.834,-2.92,-1.95,-0.78,0.02,-0.57,-0.19,
1.834,-3.21,-1.67,-0.42,0.02,-0.57,-0.19,
1.835,-3.21,-1.67,-0.42,0.02,-0.57,-0.19,
1.842,-3.21,-1.67,-0.42,-0.08,-0.51,0.20,
1.843,-3.21,-1.67,-0.42,-0.08,-0.51,0.20,
1.844,-3.39,-1.33,-0.20,-0.08,-0.51,0.20,
1.844,-3.39,-1.33,-0.20,-0.08,-0.51,0.20,
1.852,-3.39,-1.33,-0.20,-0.04,-0.42,0.58,
1.852,-3.39,-1.33,-0.20,-0.04,-0.42,0.58,
1.853,-3.50,-0.97,-0.02,-0.04,-0.42,0.58,
1.854,-3.50,-0.97,-0.02,-0.04,-0.42,0.58,
1.862,-3.50,-0.97,-0.02,0.11,-0.39,0.89,
1.863,-3.50,-0.97,-0.02,0.11,-0.39,0.89,
1.863,-3.52,-0.69,0.09,0.11,-0.39,0.89,
1.864,-3.52,-0.69,0.09,0.11,-0.39,0.89,
1.87,-3.52,-0.69,0.09,0.29,-0.42,1.12,
1.871,-3.52,-0.69,0.09,0.29,-0.42,1.12,
1.872,-3.62,1.38,-0.03,0.29,-0.42,1.12,
1.872,-3.62,1.38,-0.03,0.29,-0.42,1.12,
1.88,-3.62,1.38,-0.03,0.45,-0.42,1.23,
1.881,-3.62,1.38,-0.03,0.45,-0.42,1.23,
1.881,-3.69,4.48,-0.40,0.45,-0.42,1.23,
1.881,-3.69,4.48,-0.40,0.45,-0.42,1.23,
1.889,-3.69,4.48,-0.40,0.55,-0.42,1.17,
1.89,-3.69,4.48,-0.40,0.55,-0.42,1.17,
1.891,-3.74,7.96,-0.81,0.55,-0.42,1.17,
1.891,-3.74,7.96,-0.81,0.55,-0.42,1.17,
1.899,-3.74,7.96,-0.81,0.55,-0.44,0.84,
1.9,-3.74,7.96,-0.81,0.55,-0.44,0.84,
1.905,-3.93,10.05,-0.84,0.55,-0.44,0.84,
1.907,-3.93,10.05,-0.84,0.55,-0.44,0.84,
1.909,-3.93,10.05,-0.84,0.42,-0.48,0.11,
1.91,-3.93,10.05,-0.84,0.42,-0.48,0.11,
1.911,-4.20,10.00,0.97,0.42,-0.48,0.11,
1.911,-4.20,10.00,0.97,0.42,-0.48,0.11,
1.918,-4.20,10.00,0.97,0.28,-0.61,-1.10,
1.919,-4.20,10.00,0.97,0.28,-0.61,-1.10,
1.919,-4.61,7.33,1.48,0.28,-0.61,-1.10,
1.919,-4.61,7.33,1.48,0.28,-0.61,-1.10,
1.927,-4.61,7.33,1.48,0.61,-0.94,-2.66,
1.928,-4.61,7.33,1.48,0.61,-0.94,-2.66,
1.929,-5.12,4.18,3.01,0.61,-0.94,-2.66,
1.929,-5.12,4.18,3.01,0.61,-0.94,-2.66,
1.936,-5.12,4.18,3.01,2.13,-1.49,-3.85,
1.937,-5.12,4.18,3.01,2.13,-1.49,-3.85,
1.938,-5.64,2.02,3.03,2.13,-1.49,-3.85,
1.938,-5.64,2.02,3.03,2.13,-1.49,-3.85,
1.947,-5.64,2.02,3.03,4.47,-1.60,-3.36,
1.947,-5.64,2.02,3.03,4.47,-1.60,-3.36,
1.948,-6.04,0.37,2.68,4.47,-1.60,-3.36,
1.948,-6.04,0.37,2.68,4.47,-1.60,-3.36,
1.958,-6.04,0.37,2.68,5.90,-0.54,-0.97,
1.959,-6.04,0.37,2.68,5.90,-0.54,-0.97,
1.959,-6.37,-1.12,2.21,5.90,-0.54,-0.97,
1.96,-6.37,-1.12,2.21,5.90,-0.54,-0.97,
1.966,-6.37,-1.12,2.21,5.90,-0.54,-0.97,
1.966,-6.37,-1.12,2.21,5.90,-0.54,-0.97,
1.967,-6.37,-1.12,2.21,5.90,-0.54,-0.97,
1.967,-6.37,-1.12,2.21,5.90,-0.54,-0.97,
1.975,-6.37,-1.12,2.21,5.67,1.06,1.99,
1.976,-6.37,-1.12,2.21,5.67,1.06,1.99,
1.976,-6.60,-2.96,0.99,5.67,1.06,1.99,
1.976,-6.60,-2.96,0.99,5.67,1.06,1.99,
1.985,-6.60,-2.96,0.99,4.40,2.22,4.26,
1.986,-6.60,-2.96,0.99,4.40,2.22,4.26,
1.986,-6.35,-3.29,0.44,4.40,2.22,4.26,
1.987,-6.35,-3.29,0.44,4.40,2.22,4.26,
1.995,-6.35,-3.29,0.44,3.71,2.21,5.51,
1.995,-6.35,-3.29,0.44,3.71,2.21,5.51,
1.996,-5.89,-3.56,-0.05,3.71,2.21,5.51,
1.996,-5.89,-3.56,-0.05,3.71,2.21,5.51,
2.003,-5.89,-3.56,-0.05,2.91,1.86,5.31,
2.004,-5.89,-3.56,-0.05,2.91,1.86,5.31,
2.005,-5.37,-3.74,-0.21,2.91,1.86,5.31,
2.005,-5.37,-3.74,-0.21,2.91,1.86,5.31,
2.013,-5.37,-3.74,-0.21,1.32,1.86,4.61,
2.014,-5.37,-3.74,-0.21,1.32,1.86,4.61,
2.015,-4.96,-3.78,-0.14,1.32,1.86,4.61,
2.015,-4.96,-3.78,-0.14,1.32,1.86,4.61,
2.023,-4.96,-3.78,-0.14,0.19,1.73,4.21,
2.024,-4.96,-3.78,-0.14,0.19,1.73,4.21,
2.024,-4.68,-3.68,-0.03,0.19,1.73,4.21,
2.025,-4.68,-3.68,-0.03,0.19,1.73,4.21,
2.032,-4.68,-3.68,-0.03,-0.52,1.52,3.61,
2.033,-4.68,-3.68,-0.03,-0.52,1.52,3.61,
2.034,-4.54,-3.39,0.17,-0.52,1.52,3.61,
2.034,-4.54,-3.39,0.17,-0.52,1.52,3.61,
2.042,-4.54,-3.39,0.17,-0.91,1.26,2.97,
2.043,-4.54,-3.39,0.17,-0.91,1.26,2.97,
2.043,-4.53,-2.83,0.47,-0.91,1.26,2.97,
2.044,-4.53,-2.83,0.47,-0.91,1.26,2.97,
2.052,-4.53,-2.83,0.47,-1.04,0.97,2.39,
2.053,-4.53,-2.83,0.47,-1.04,0.97,2.39,
2.054,-4.51,-1.17,0.86,-1.04,0.97,2.39,
2.054,-4.51,-1.17,0.86,-1.04,0.97,2.39,
2.062,-4.51,-1.17,0.86,-1.00,0.67,1.92,
2.063,-4.51,-1.17,0.86,-1.00,0.67,1.92,
2.064,-4.36,0.83,1.24,-1.00,0.67,1.92,
2.064,-4.36,0.83,1.24,-1.00,0.67,1.92,
2.07,-4.36,0.83,1.24,-0.82,0.37,1.56,
2.072,-4.36,0.83,1.24,-0.82,0.37,1.56,
2.072,-4.11,1.38,1.54,-0.82,0.37,1.56,
2.073,-4.11,1.38,1.54,-0.82,0.37,1.56,
2.08,-4.11,1.38,1.54,-0.52,0.07,1.29,
2.08,-4.11,1.38,1.54,-0.52,0.07,1.29,
2.08,-3.73,1.87,1.76,-0.52,0.07,1.29,
2.081,-3.73,1.87,1.76,-0.52,0.07,1.29,
2.089,-3.73,1.87,1.76,-0.15,-0.25,1.07,
2.09,-3.73,1.87,1.76,-0.15,-0.25,1.07,
2.09,-3.29,-0.98,1.88,-0.15,-0.25,1.07,
2.09,-3.29,-0.98,1.88,-0.15,-0.25,1.07,
2.099,-3.29,-0.98,1.88,0.24,-0.60,0.88,
2.099,-3.29,-0.98,1.88,0.24,-0.60,0.88,
2.1,-1.32,-8.66,1.94,0.24,-0.60,0.88,
2.101,-1.32,-8.66,1.94,0.24,-0.60,0.88,
2.108,-1.32,-8.66,1.94,0.55,-0.95,0.63,
2.109,-1.32,-8.66,1.94,0.55,-0.95,0.63,
2.109,-0.72,-16.68,1.86,0.55,-0.95,0.63,
2.111,-0.72,-16.68,1.86,0.55,-0.95,0.63,
2.118,-0.72,-16.68,1.86,0.63,-1.23,0.28,
2.12,-0.72,-16.68,1.86,0.63,-1.23,0.28,
2.121,0.93,-19.59,0.09,0.63,-1.23,0.28,
2.122,0.93,-19.59,0.09,0.63,-1.23,0.28,
2.127,0.93,-19.59,0.09,0.41,-1.36,-0.13,
2.129,0.93,-19.59,0.09,0.41,-1.36,-0.13,
2.129,1.41,-19.66,-0.40,0.41,-1.36,-0.13,
2.13,1.41,-19.66,-0.40,0.41,-1.36,-0.13,
2.136,1.41,-19.66,-0.40,-0.00,-1.32,-0.48,
2.137,1.41,-19.66,-0.40,-0.00,-1.32,-0.48,
2.144,1.32,-12.53,-1.04,-0.00,-1.32,-0.48,
2.144,1.32,-12.53,-1.04,-0.00,-1.32,-0.48,
2.147,1.32,-12.53,-1.04,-0.00,-1.32,-0.48,
2.149,1.32,-12.53,-1.04,-0.00,-1.32,-0.48,
2.149,1.32,-12.53,-1.04,-0.00,-1.32,-0.48,
2.15,1.32,-12.53,-1.04,-0.00,-1.32,-0.48,
2.157,1.32,-12.53,-1.04,-0.43,-1.22,-0.72,
2.157,1.32,-12.53,-1.04,-0.43,-1.22,-0.72,
2.158,-1.85,-1.00,-1.45,-0.43,-1.22,-0.72,
2.159,-1.85,-1.00,-1.45,-0.43,-1.22,-0.72,
2.165,-1.85,-1.00,-1.45,-0.74,-1.13,-0.85,
2.166,-1.85,-1.00,-1.45,-0.74,-1.13,-0.85,
2.166,-1.94,0.93,-1.02,-0.74,-1.13,-0.85,
2.167,-1.94,0.93,-1.02,-0.74,-1.13,-0.85,
2.175,-1.94,0.93,-1.02,-0.92,-1.05,-0.85,
2.176,-1.94,0.93,-1.02,-0.92,-1.05,-0.85,
2.177,-2.19,1.26,-0.50,-0.92,-1.05,-0.85,
2.177,-2.19,1.26,-0.50,-0.92,-1.05,-0.85,
2.184,-2.19,1.26,-0.50,-1.00,-0.93,-0.74,
2.185,-2.19,1.26,-0.50,-1.00,-0.93,-0.74,
2.185,-2.50,1.62,-0.09,-1.00,-0.93,-0.74,
2.185,-2.50,1.62,-0.09,-1.00,-0.93,-0.74,
2.194,-2.50,1.62,-0.09,-1.00,-0.74,-0.52,
2.195,-2.50,1.62,-0.09,-1.00,-0.74,-0.52,
2.195,-2.77,1.79,0.19,-1.00,-0.74,-0.52,
2.196,-2.77,1.79,0.19,-1.00,-0.74,-0.52,
2.203,-2.77,1.79,0.19,-0.92,-0.52,-0.24,
2.204,-2.77,1.79,0.19,-0.92,-0.52,-0.24,
2.204,-2.95,1.85,0.43,-0.92,-0.52,-0.24,
2.205,-2.95,1.85,0.43,-0.92,-0.52,-0.24,
2.213,-2.95,1.85,0.43,-0.74,-0.34,0.09,
2.214,-2.95,1.85,0.43,-0.74,-0.34,0.09,
2.214,-3.02,1.82,0.71,-0.74,-0.34,0.09,
2.215,-3.02,1.82,0.71,-0.74,-0.34,0.09,
2.222,-3.02,1.82,0.71,-0.50,-0.22,0.45,
2.223,-3.02,1.82,0.71,-0.50,-0.22,0.45,
2.223,-2.99,1.65,1.03,-0.50,-0.22,0.45,
2.223,-2.99,1.65,1.03,-0.50,-0.22,0.45,
2.232,-2.99,1.65,1.03,-0.20,-0.17,0.83,
2.232,-2.99,1.65,1.03,-0.20,-0.17,0.83,
2.233,-3.01,1.35,1.41,-0.20,-0.17,0.83,
2.233,-3.01,1.35,1.41,-0.20,-0.17,0.83,
2.241,-3.01,1.35,1.41,0.13,-0.18,1.18,
2.242,-3.01,1.35,1.41,0.13,-0.18,1.18,
2.242,-3.00,0.89,1.70,0.13,-0.18,1.18,
2.243,-3.00,0.89,1.70,0.13,-0.18,1.18,
2.251,-3.00,0.89,1.70,0.48,-0.24,1.48,
2.252,-3.00,0.89,1.70,0.48,-0.24,1.48,
2.253,-2.89,0.40,1.76,0.48,-0.24,1.48,
2.253,-2.89,0.40,1.76,0.48,-0.24,1.48,
2.261,-2.89,0.40,1.76,0.83,-0.34,1.72,
2.263,-2.89,0.40,1.76,0.83,-0.34,1.72,
2.265,-2.60,0.07,1.62,0.83,-0.34,1.72,
2.267,-2.60,0.07,1.62,0.83,-0.34,1.72,
2.27,-2.60,0.07,1.62,1.11,-0.45,1.86,
2.271,-2.60,0.07,1.62,1.11,-0.45,1.86,
2.271,-2.26,-0.10,1.30,1.11,-0.45,1.86,
2.271,-2.26,-0.10,1.30,1.11,-0.45,1.86,
2.279,-2.26,-0.10,1.30,1.26,-0.53,1.89,
2.28,-2.26,-0.10,1.30,1.26,-0.53,1.89,
2.281,-2.05,-0.20,0.91,1.26,-0.53,1.89,
2.281,-2.05,-0.20,0.91,1.26,-0.53,1.89,
2.289,-2.05,-0.20,0.91,1.27,-0.55,1.79,
2.289,-2.05,-0.20,0.91,1.27,-0.55,1.79,
2.29,-1.90,-0.29,0.53,1.27,-0.55,1.79,
2.29,-1.90,-0.29,0.53,1.27,-0.55,1.79,
2.298,-1.90,-0.29,0.53,1.13,-0.49,1.60,
2.299,-1.90,-0.29,0.53,1.13,-0.49,1.60,
2.299,-1.82,-0.35,0.20,1.13,-0.49,1.60,
2.3,-1.82,-0.35,0.20,1.13,-0.49,1.60,
2.308,-1.82,-0.35,0.20,0.88,-0.36,1.36,
2.309,-1.82,-0.35,0.20,0.88,-0.36,1.36,
2.309,-1.70,-0.21,-0.01,0.88,-0.36,1.36,
2.31,-1.70,-0.21,-0.01,0.88,-0.36,1.36,
2.318,-1.70,-0.21,-0.01,0.58,-0.18,1.13,
2.319,-1.70,-0.21,-0.01,0.58,-0.18,1.13,
2.319,-1.51,0.18,-0.09,0.58,-0.18,1.13,
2.32,-1.51,0.18,-0.09,0.58,-0.18,1.13,
2.327,-1.51,0.18,-0.09,0.27,0.01,0.91,
2.328,-1.51,0.18,-0.09,0.27,0.01,0.91,
2.329,-1.38,0.68,-0.01,0.27,0.01,0.91,
2.329,-1.38,0.68,-0.01,0.27,0.01,0.91,
2.336,-1.38,0.68,-0.01,0.01,0.16,0.74,
2.337,-1.38,0.68,-0.01,0.01,0.16,0.74,
2.338,-1.42,1.02,0.28,0.01,0.16,0.74,
2.338,-1.42,1.02,0.28,0.01,0.16,0.74,
2.346,-1.42,1.02,0.28,-0.17,0.23,0.60,
2.347,-1.42,1.02,0.28,-0.17,0.23,0.60,
2.348,-1.61,1.01,0.68,-0.17,0.23,0.60,
2.348,-1.61,1.01,0.68,-0.17,0.23,0.60,
2.359,-1.61,1.01,0.68,-0.22,0.21,0.52,
2.36,-1.61,1.01,0.68,-0.22,0.21,0.52,
2.361,-1.80,0.69,1.05,-0.22,0.21,0.52,
2.361,-1.80,0.69,1.05,-0.22,0.21,0.52,
2.365,-1.80,0.69,1.05,-0.22,0.21,0.52,
2.367,-1.80,0.69,1.05,-0.22,0.21,0.52,
2.367,-1.80,0.69,1.05,-0.22,0.21,0.52,
2.367,-1.80,0.69,1.05,-0.22,0.21,0.52,
2.375,-1.80,0.69,1.05,-0.16,0.13,0.52,
2.376,-1.80,0.69,1.05,-0.16,0.13,0.52,
2.381,-1.94,0.04,1.28,-0.16,0.13,0.52,
2.382,-1.94,0.04,1.28,-0.16,0.13,0.52,
2.384,-1.94,0.04,1.28,0.01,0.02,0.58,
2.385,-1.94,0.04,1.28,0.01,0.02,0.58,
2.385,-1.80,-0.02,1.04,0.01,0.02,0.58,
2.385,-1.80,-0.02,1.04,0.01,0.02,0.58,
2.394,-1.80,-0.02,1.04,0.21,-0.08,0.67,
2.394,-1.80,-0.02,1.04,0.21,-0.08,0.67,
2.395,-1.62,0.05,0.75,0.21,-0.08,0.67,
2.395,-1.62,0.05,0.75,0.21,-0.08,0.67,
2.403,-1.62,0.05,0.75,0.37,-0.12,0.73,
2.404,-1.62,0.05,0.75,0.37,-0.12,0.73,
2.404,-1.42,0.14,0.46,0.37,-0.12,0.73,
2.405,-1.42,0.14,0.46,0.37,-0.12,0.73,
2.413,-1.42,0.14,0.46,0.44,-0.11,0.74,
2.413,-1.42,0.14,0.46,0.44,-0.11,0.74,
2.414,-1.20,0.19,0.24,0.44,-0.11,0.74,
2.415,-1.20,0.19,0.24,0.44,-0.11,0.74,
2.422,-1.20,0.19,0.24,0.41,-0.05,0.67,
2.423,-1.20,0.19,0.24,0.41,-0.05,0.67,
2.423,-0.94,0.21,0.11,0.41,-0.05,0.67,
2.424,-0.94,0.21,0.11,0.41,-0.05,0.67,
2.432,-0.94,0.21,0.11,0.30,0.02,0.55,
2.432,-0.94,0.21,0.11,0.30,0.02,0.55,
2.433,-0.70,0.19,0.03,0.30,0.02,0.55,
2.433,-0.70,0.19,0.03,0.30,0.02,0.55,
2.441,-0.70,0.19,0.03,0.16,0.10,0.39,
2.442,-0.70,0.19,0.03,0.16,0.10,0.39,
2.443,-0.52,0.20,0.03,0.16,0.10,0.39,
2.443,-0.52,0.20,0.03,0.16,0.10,0.39,
2.451,-0.52,0.20,0.03,0.01,0.16,0.20,
2.452,-0.52,0.20,0.03,0.01,0.16,0.20,
2.452,-0.39,0.18,0.05,0.01,0.16,0.20,
2.453,-0.39,0.18,0.05,0.01,0.16,0.20,
2.461,-0.39,0.18,0.05,-0.10,0.20,0.01,
2.462,-0.39,0.18,0.05,-0.10,0.20,0.01,
2.462,-0.30,0.18,0.05,-0.10,0.20,0.01,
2.463,-0.30,0.18,0.05,-0.10,0.20,0.01,
2.47,-0.30,0.18,0.05,-0.18,0.21,-0.16,
2.47,-0.30,0.18,0.05,-0.18,0.21,-0.16,
2.471,-0.22,0.20,0.02,-0.18,0.21,-0.16,
2.471,-0.22,0.20,0.02,-0.18,0.21,-0.16,
2.479,-0.22,0.20,0.02,-0.23,0.18,-0.30,
2.48,-0.22,0.20,0.02,-0.23,0.18,-0.30,
2.481,-0.13,0.21,-0.03,-0.23,0.18,-0.30,
2.481,-0.13,0.21,-0.03,-0.23,0.18,-0.30,
2.488,-0.13,0.21,-0.03,-0.25,0.13,-0.39,
2.489,-0.13,0.21,-0.03,-0.25,0.13,-0.39,
2.489,-0.03,0.21,-0.09,-0.25,0.13,-0.39,
2.49,-0.03,0.21,-0.09,-0.25,0.13,-0.39,
2.498,-0.03,0.21,-0.09,-0.25,0.10,-0.46,
2.499,-0.03,0.21,-0.09,-0.25,0.10,-0.46,
2.5,0.07,0.18,-0.17,-0.25,0.10,-0.46,
2.5,0.07,0.18,-0.17,-0.25,0.10,-0.46,
2.508,0.07,0.18,-0.17,-0.26,0.09,-0.50,
2.509,0.07,0.18,-0.17,-0.26,0.09,-0.50,
2.51,0.16,0.16,-0.19,-0.26,0.09,-0.50,
2.511,0.16,0.16,-0.19,-0.26,0.09,-0.50,
2.518,0.16,0.16,-0.19,-0.26,0.13,-0.53,
2.52,0.16,0.16,-0.19,-0.26,0.13,-0.53,
2.521,0.26,0.15,-0.24,-0.26,0.13,-0.53,
2.521,0.26,0.15,-0.24,-0.26,0.13,-0.53,
2.527,0.26,0.15,-0.24,-0.27,0.17,-0.56,
2.529,0.26,0.15,-0.24,-0.27,0.17,-0.56,
2.53,0.29,0.14,-0.25,-0.27,0.17,-0.56,
2.531,0.29,0.14,-0.25,-0.27,0.17,-0.56,
2.536,0.29,0.14,-0.25,-0.28,0.19,-0.57,
2.537,0.29,0.14,-0.25,-0.28,0.19,-0.57,
2.537,0.33,0.15,-0.23,-0.28,0.19,-0.57,
2.538,0.33,0.15,-0.23,-0.28,0.19,-0.57,
2.546,0.33,0.15,-0.23,-0.28,0.19,-0.57,
2.546,0.33,0.15,-0.23,-0.28,0.19,-0.57,
2.547,0.33,0.15,-0.23,-0.28,0.19,-0.57,
2.547,0.33,0.15,-0.23,-0.28,0.19,-0.57,
2.557,0.33,0.15,-0.23,-0.28,0.17,-0.57,
2.558,0.33,0.15,-0.23,-0.28,0.17,-0.57,
2.558,0.33,0.16,-0.03,-0.28,0.17,-0.57,
2.559,0.33,0.16,-0.03,-0.28,0.17,-0.57,
2.565,0.33,0.16,-0.03,-0.27,0.14,-0.55,
2.565,0.33,0.16,-0.03,-0.27,0.14,-0.55,
2.566,0.35,0.09,0.01,-0.27,0.14,-0.55,
2.566,0.35,0.09,0.01,-0.27,0.14,-0.55,
2.574,0.35,0.09,0.01,-0.23,0.13,-0.52,
2.575,0.35,0.09,0.01,-0.23,0.13,-0.52,
2.575,0.31,-0.03,-0.12,-0.23,0.13,-0.52,
2.576,0.31,-0.03,-0.12,-0.23,0.13,-0.52,
2.584,0.31,-0.03,-0.12,-0.17,0.14,-0.47,
2.584,0.31,-0.03,-0.12,-0.17,0.14,-0.47,
2.585,0.25,-0.19,-0.39,-0.17,0.14,-0.47,
2.585,0.25,-0.19,-0.39,-0.17,0.14,-0.47,
2.593,0.25,-0.19,-0.39,-0.12,0.19,-0.42,
2.594,0.25,-0.19,-0.39,-0.12,0.19,-0.42,
2.595,0.18,-0.27,-0.65,-0.12,0.19,-0.42,
2.596,0.18,-0.27,-0.65,-0.12,0.19,-0.42,
2.603,0.18,-0.27,-0.65,-0.11,0.31,-0.35,
2.604,0.18,-0.27,-0.65,-0.11,0.31,-0.35,
2.604,0.23,-0.23,-0.76,-0.11,0.31,-0.35,
2.605,0.23,-0.23,-0.76,-0.11,0.31,-0.35,
2.612,0.23,-0.23,-0.76,-0.17,0.47,-0.28,
2.613,0.23,-0.23,-0.76,-0.17,0.47,-0.28,
2.62,0.38,-0.10,-0.62,-0.17,0.47,-0.28,
2.621,0.38,-0.10,-0.62,-0.17,0.47,-0.28,
2.622,0.38,-0.10,-0.62,-0.25,0.58,-0.20,
2.623,0.38,-0.10,-0.62,-0.25,0.58,-0.20,
2.624,0.58,0.08,-0.31,-0.25,0.58,-0.20,
2.624,0.58,0.08,-0.31,-0.25,0.58,-0.20,
2.631,0.58,0.08,-0.31,-0.32,0.59,-0.15,
2.632,0.58,0.08,-0.31,-0.32,0.59,-0.15,
2.633,0.72,0.18,-0.06,-0.32,0.59,-0.15,
2.634,0.72,0.18,-0.06,-0.32,0.59,-0.15,
2.641,0.72,0.18,-0.06,-0.33,0.49,-0.14,
2.642,0.72,0.18,-0.06,-0.33,0.49,-0.14,
2.642,0.76,0.21,0.07,-0.33,0.49,-0.14,
2.642,0.76,0.21,0.07,-0.33,0.49,-0.14,
2.65,0.76,0.21,0.07,-0.26,0.31,-0.16,
2.651,0.76,0.21,0.07,-0.26,0.31,-0.16,
2.651,0.69,0.20,0.08,-0.26,0.31,-0.16,
2.651,0.69,0.20,0.08,-0.26,0.31,-0.16,
2.663,0.69,0.20,0.08,-0.13,0.12,-0.20,
2.664,0.69,0.20,0.08,-0.13,0.12,-0.20,
2.664,0.58,0.17,0.01,-0.13,0.12,-0.20,
2.665,0.58,0.17,0.01,-0.13,0.12,-0.20,
2.682,0.58,0.17,0.01,0.01,-0.05,-0.23,
2.683,0.58,0.17,0.01,0.01,-0.05,-0.23,
2.684,0.50,0.17,-0.04,0.01,-0.05,-0.23,
2.684,0.50,0.17,-0.04,0.01,-0.05,-0.23,
2.684,0.50,0.17,-0.04,0.01,-0.05,-0.23,
2.685,0.50,0.17,-0.04,0.01,-0.05,-0.23,
2.685,0.50,0.17,-0.04,0.01,-0.05,-0.23,
2.685,0.50,0.17,-0.04,0.01,-0.05,-0.23,
2.688,0.50,0.17,-0.04,0.17,-0.22,-0.20,
2.689,0.50,0.17,-0.04,0.17,-0.22,-0.20,
2.69,0.45,0.14,0.07,0.17,-0.22,-0.20,
2.69,0.45,0.14,0.07,0.17,-0.22,-0.20,
2.698,0.45,0.14,0.07,0.20,-0.22,-0.16,
2.699,0.45,0.14,0.07,0.20,-0.22,-0.16,
2.699,0.47,0.10,0.16,0.20,-0.22,-0.16,
2.699,0.47,0.10,0.16,0.20,-0.22,-0.16,
2.708,0.47,0.10,0.16,0.22,-0.20,-0.12,
2.709,0.47,0.10,0.16,0.22,-0.20,-0.12,
2.709,0.44,0.05,0.22,0.22,-0.20,-0.12,
2.71,0.44,0.05,0.22,0.22,-0.20,-0.12,
2.717,0.44,0.05,0.22,0.23,-0.21,-0.08,
2.718,0.44,0.05,0.22,0.23,-0.21,-0.08,
2.719,0.39,0.02,0.29,0.23,-0.21,-0.08,
2.719,0.39,0.02,0.29,0.23,-0.21,-0.08,
2.727,0.39,0.02,0.29,0.25,-0.25,-0.06,
2.728,0.39,0.02,0.29,0.25,-0.25,-0.06,
2.728,0.32,0.02,0.37,0.25,-0.25,-0.06,
2.729,0.32,0.02,0.37,0.25,-0.25,-0.06,
2.738,0.32,0.02,0.37,0.28,-0.31,-0.03,
2.74,0.32,0.02,0.37,0.28,-0.31,-0.03,
2.74,0.22,0.03,0.42,0.28,-0.31,-0.03,
2.741,0.22,0.03,0.42,0.28,-0.31,-0.03,
2.746,0.22,0.03,0.42,0.28,-0.31,-0.03,
2.747,0.22,0.03,0.42,0.28,-0.31,-0.03,
2.748,0.22,0.03,0.42,0.28,-0.31,-0.03,
2.748,0.22,0.03,0.42,0.28,-0.31,-0.03,
2.755,0.22,0.03,0.42,0.30,-0.36,-0.00,
2.756,0.22,0.03,0.42,0.30,-0.36,-0.00,
2.756,0.10,0.12,0.47,0.30,-0.36,-0.00,
2.757,0.10,0.12,0.47,0.30,-0.36,-0.00,
2.765,0.10,0.12,0.47,0.33,-0.40,0.04,
2.766,0.10,0.12,0.47,0.33,-0.40,0.04,
2.766,0.04,0.17,0.43,0.33,-0.40,0.04,
2.767,0.04,0.17,0.43,0.33,-0.40,0.04,
2.776,0.04,0.17,0.43,0.35,-0.42,0.09,
2.777,0.04,0.17,0.43,0.35,-0.42,0.09,
2.778,0.04,0.20,0.37,0.35,-0.42,0.09,
2.778,0.04,0.20,0.37,0.35,-0.42,0.09,
2.784,0.04,0.20,0.37,0.36,-0.43,0.15,
2.784,0.04,0.20,0.37,0.36,-0.43,0.15,
2.785,0.08,0.22,0.32,0.36,-0.43,0.15,
2.785,0.08,0.22,0.32,0.36,-0.43,0.15,
2.793,0.08,0.22,0.32,0.34,-0.43,0.19,
2.794,0.08,0.22,0.32,0.34,-0.43,0.19,
2.795,0.14,0.20,0.31,0.34,-0.43,0.19,
2.795,0.14,0.20,0.31,0.34,-0.43,0.19,
2.803,0.14,0.20,0.31,0.31,-0.43,0.22,
2.803,0.14,0.20,0.31,0.31,-0.43,0.22,
2.804,0.19,0.19,0.31,0.31,-0.43,0.22,
2.804,0.19,0.19,0.31,0.31,-0.43,0.22,
2.812,0.19,0.19,0.31,0.26,-0.42,0.21,
2.813,0.19,0.19,0.31,0.26,-0.42,0.21,
2.814,0.22,0.21,0.35,0.26,-0.42,0.21,
2.814,0.22,0.21,0.35,0.26,-0.42,0.21,
2.822,0.22,0.21,0.35,0.22,-0.38,0.17,
2.823,0.22,0.21,0.35,0.22,-0.38,0.17,
2.823,0.23,0.23,0.36,0.22,-0.38,0.17,
2.824,0.23,0.23,0.36,0.22,-0.38,0.17,
2.831,0.23,0.23,0.36,0.19,-0.35,0.11,
2.832,0.23,0.23,0.36,0.19,-0.35,0.11,
2.833,0.22,0.26,0.38,0.19,-0.35,0.11,
2.833,0.22,0.26,0.38,0.19,-0.35,0.11,
2.841,0.22,0.26,0.38,0.16,-0.34,0.06,
2.842,0.22,0.26,0.38,0.16,-0.34,0.06,
2.843,0.17,0.26,0.42,0.16,-0.34,0.06,
2.843,0.17,0.26,0.42,0.16,-0.34,0.06,
2.85,0.17,0.26,0.42,0.15,-0.37,0.02,
2.851,0.17,0.26,0.42,0.15,-0.37,0.02,
2.858,0.12,0.27,0.49,0.15,-0.37,0.02,
2.858,0.12,0.27,0.49,0.15,-0.37,0.02,
2.866,0.12,0.27,0.49,0.14,-0.43,-0.01,
2.866,0.12,0.27,0.49,0.14,-0.43,-0.01,
2.867,-0.00,0.27,0.53,0.14,-0.43,-0.01,
2.867,-0.00,0.27,0.53,0.14,-0.43,-0.01,
2.874,-0.00,0.27,0.53,0.15,-0.48,-0.01,
2.875,-0.00,0.27,0.53,0.15,-0.48,-0.01,
2.875,-0.13,0.27,0.52,0.15,-0.48,-0.01,
2.876,-0.13,0.27,0.52,0.15,-0.48,-0.01,
2.879,-0.13,0.27,0.52,0.17,-0.51,0.01,
2.88,-0.13,0.27,0.52,0.17,-0.51,0.01,
2.88,-0.18,0.28,0.49,0.17,-0.51,0.01,
2.881,-0.18,0.28,0.49,0.17,-0.51,0.01,
2.888,-0.18,0.28,0.49,0.19,-0.49,0.05,
2.889,-0.18,0.28,0.49,0.19,-0.49,0.05,
2.889,-0.25,0.27,0.40,0.19,-0.49,0.05,
2.89,-0.25,0.27,0.40,0.19,-0.49,0.05,
2.898,-0.25,0.27,0.40,0.20,-0.43,0.10,
2.899,-0.25,0.27,0.40,0.20,-0.43,0.10,
2.9,-0.22,0.27,0.35,0.20,-0.43,0.10,
2.9,-0.22,0.27,0.35,0.20,-0.43,0.10,
2.908,-0.22,0.27,0.35,0.20,-0.36,0.15,
2.909,-0.22,0.27,0.35,0.20,-0.36,0.15,
2.91,-0.17,0.28,0.32,0.20,-0.36,0.15,
2.911,-0.17,0.28,0.32,0.20,-0.36,0.15,
2.917,-0.17,0.28,0.32,0.17,-0.29,0.18,
2.918,-0.17,0.28,0.32,0.17,-0.29,0.18,
2.919,-0.18,0.29,0.29,0.17,-0.29,0.18,
2.92,-0.18,0.29,0.29,0.17,-0.29,0.18,
2.927,-0.18,0.29,0.29,0.13,-0.23,0.19,
2.928,-0.18,0.29,0.29,0.13,-0.23,0.19,
2.929,-0.21,0.31,0.32,0.13,-0.23,0.19,
2.93,-0.21,0.31,0.32,0.13,-0.23,0.19,
2.938,-0.21,0.31,0.32,0.10,-0.19,0.19,
2.939,-0.21,0.31,0.32,0.10,-0.19,0.19,
2.939,-0.31,0.28,0.35,0.10,-0.19,0.19,
2.94,-0.31,0.28,0.35,0.10,-0.19,0.19,
2.946,-0.31,0.28,0.35,0.07,-0.16,0.18,
2.947,-0.31,0.28,0.35,0.07,-0.16,0.18,
2.947,-0.43,0.25,0.39,0.07,-0.16,0.18,
2.948,-0.43,0.25,0.39,0.07,-0.16,0.18,
2.955,-0.43,0.25,0.39,0.07,-0.16,0.18,
2.956,-0.43,0.25,0.39,0.07,-0.16,0.18,
2.956,-0.43,0.25,0.39,0.07,-0.16,0.18,
2.957,-0.43,0.25,0.39,0.07,-0.16,0.18,
2.965,-0.43,0.25,0.39,0.06,-0.15,0.19,
2.965,-0.43,0.25,0.39,0.06,-0.15,0.19,
2.966,-0.67,0.18,0.45,0.06,-0.15,0.19,
2.967,-0.67,0.18,0.45,0.06,-0.15,0.19,
2.976,-0.67,0.18,0.45,0.07,-0.12,0.21,
2.977,-0.67,0.18,0.45,0.07,-0.12,0.21,
2.978,-0.74,0.19,0.44,0.07,-0.12,0.21,
2.979,-0.74,0.19,0.44,0.07,-0.12,0.21,
2.985,-0.74,0.19,0.44,0.09,-0.08,0.27,
2.985,-0.74,0.19,0.44,0.09,-0.08,0.27,
2.986,-0.80,0.19,0.41,0.09,-0.08,0.27,
2.986,-0.80,0.19,0.41,0.09,-0.08,0.27,
2.993,-0.80,0.19,0.41,0.11,-0.03,0.34,
2.995,-0.80,0.19,0.41,0.11,-0.03,0.34,
2.995,-0.83,0.18,0.38,0.11,-0.03,0.34,
2.995,-0.83,0.18,0.38,0.11,-0.03,0.34,
3.004,-0.83,0.18,0.38,0.13,0.01,0.42,
3.004,-0.83,0.18,0.38,0.13,0.01,0.42,
3.005,-0.80,0.18,0.34,0.13,0.01,0.42,
3.005,-0.80,0.18,0.34,0.13,0.01,0.42,
3.012,-0.80,0.18,0.34,0.13,0.02,0.48,
3.013,-0.80,0.18,0.34,0.13,0.02,0.48,
3.013,-0.74,0.18,0.34,0.13,0.02,0.48,
3.014,-0.74,0.18,0.34,0.13,0.02,0.48,
3.021,-0.74,0.18,0.34,0.13,0.02,0.51,
3.022,-0.74,0.18,0.34,0.13,0.02,0.51,
3.023,-0.67,0.19,0.29,0.13,0.02,0.51,
3.023,-0.67,0.19,0.29,0.13,0.02,0.51,
3.031,-0.67,0.19,0.29,0.11,0.02,0.51,
3.032,-0.67,0.19,0.29,0.11,0.02,0.51,
3.033,-0.62,0.20,0.26,0.11,0.02,0.51,
3.033,-0.62,0.20,0.26,0.11,0.02,0.51,
3.041,-0.62,0.20,0.26,0.10,0.01,0.48,
3.042,-0.62,0.20,0.26,0.10,0.01,0.48,
3.042,-0.60,0.20,0.20,0.10,0.01,0.48,
3.043,-0.60,0.20,0.20,0.10,0.01,0.48,
3.051,-0.60,0.20,0.20,0.07,-0.01,0.43,
3.052,-0.60,0.20,0.20,0.07,-0.01,0.43,
3.053,-0.61,0.22,0.13,0.07,-0.01,0.43,
3.053,-0.61,0.22,0.13,0.07,-0.01,0.43,
3.061,-0.61,0.22,0.13,0.05,-0.03,0.37,
3.064,-0.61,0.22,0.13,0.05,-0.03,0.37,
3.065,-0.63,0.23,0.11,0.05,-0.03,0.37,
3.066,-0.63,0.23,0.11,0.05,-0.03,0.37,
3.076,-0.63,0.23,0.11,0.02,-0.03,0.31,
3.079,-0.63,0.23,0.11,0.02,-0.03,0.31,
3.079,-0.65,0.25,0.08,0.02,-0.03,0.31,
3.079,-0.65,0.25,0.08,0.02,-0.03,0.31,
3.08,-0.65,0.25,0.08,-0.01,-0.03,0.26,
3.08,-0.65,0.25,0.08,-0.01,-0.03,0.26,
3.08,-0.64,0.23,0.04,-0.01,-0.03,0.26,
3.08,-0.64,0.23,0.04,-0.01,-0.03,0.26,
3.088,-0.64,0.23,0.04,-0.04,-0.01,0.23,
3.089,-0.64,0.23,0.04,-0.04,-0.01,0.23,
3.092,-0.61,0.16,-0.03,-0.04,-0.01,0.23,
3.093,-0.61,0.16,-0.03,-0.04,-0.01,0.23,
3.098,-0.61,0.16,-0.03,-0.06,0.02,0.20,
3.099,-0.61,0.16,-0.03,-0.06,0.02,0.20,
3.099,-0.50,0.12,-0.13,-0.06,0.02,0.20,
3.099,-0.50,0.12,-0.13,-0.06,0.02,0.20,
3.107,-0.50,0.12,-0.13,-0.08,0.07,0.17,
3.108,-0.50,0.12,-0.13,-0.08,0.07,0.17,
3.108,-0.34,0.09,-0.20,-0.08,0.07,0.17,
3.109,-0.34,0.09,-0.20,-0.08,0.07,0.17,
3.117,-0.34,0.09,-0.20,-0.11,0.11,0.13,
3.118,-0.34,0.09,-0.20,-0.11,0.11,0.13,
3.118,-0.20,0.09,-0.21,-0.11,0.11,0.13,
3.118,-0.20,0.09,-0.21,-0.11,0.11,0.13,
3.126,-0.20,0.09,-0.21,-0.15,0.13,0.07,
3.127,-0.20,0.09,-0.21,-0.15,0.13,0.07,
3.127,-0.10,0.12,-0.16,-0.15,0.13,0.07,
3.127,-0.10,0.12,-0.16,-0.15,0.13,0.07,
3.137,-0.10,0.12,-0.16,-0.15,0.13,0.07,
3.138,-0.10,0.12,-0.16,-0.15,0.13,0.07,
3.138,-0.10,0.12,-0.16,-0.15,0.13,0.07,
3.139,-0.10,0.12,-0.16,-0.15,0.13,0.07,
3.146,-0.10,0.12,-0.16,-0.22,0.03,-0.10,
3.147,-0.10,0.12,-0.16,-0.22,0.03,-0.10,
3.147,-0.06,0.10,-0.10,-0.22,0.03,-0.10,
3.148,-0.06,0.10,-0.10,-0.22,0.03,-0.10,
3.156,-0.06,0.10,-0.10,-0.22,0.03,-0.10,
3.156,-0.06,0.10,-0.10,-0.22,0.03,-0.10,
3.157,-0.06,0.10,-0.10,-0.22,0.03,-0.10,
3.157,-0.06,0.10,-0.10,-0.22,0.03,-0.10,
3.165,-0.06,0.10,-0.10,-0.21,-0.05,-0.17,
3.165,-0.06,0.10,-0.10,-0.21,-0.05,-0.17,
3.165,-0.13,0.07,-0.23,-0.21,-0.05,-0.17,
3.166,-0.13,0.07,-0.23,-0.21,-0.05,-0.17,
3.175,-0.13,0.07,-0.23,-0.19,-0.11,-0.22,
3.176,-0.13,0.07,-0.23,-0.19,-0.11,-0.22,
3.176,-0.11,0.08,-0.34,-0.19,-0.11,-0.22,
3.177,-0.11,0.08,-0.34,-0.19,-0.11,-0.22,
3.185,-0.11,0.08,-0.34,-0.18,-0.17,-0.23,
3.186,-0.11,0.08,-0.34,-0.18,-0.17,-0.23,
3.186,-0.04,0.06,-0.44,-0.18,-0.17,-0.23,
3.186,-0.04,0.06,-0.44,-0.18,-0.17,-0.23,
3.193,-0.04,0.06,-0.44,-0.19,-0.22,-0.22,
3.194,-0.04,0.06,-0.44,-0.19,-0.22,-0.22,
3.194,0.12,0.04,-0.52,-0.19,-0.22,-0.22,
3.195,0.12,0.04,-0.52,-0.19,-0.22,-0.22,
3.204,0.12,0.04,-0.52,-0.23,-0.26,-0.21,
3.205,0.12,0.04,-0.52,-0.23,-0.26,-0.21,
3.205,0.32,0.00,-0.55,-0.23,-0.26,-0.21,
3.205,0.32,0.00,-0.55,-0.23,-0.26,-0.21,
3.213,0.32,0.00,-0.55,-0.28,-0.27,-0.21,
3.213,0.32,0.00,-0.55,-0.28,-0.27,-0.21,
3.214,0.48,-0.00,-0.52,-0.28,-0.27,-0.21,
3.215,0.48,-0.00,-0.52,-0.28,-0.27,-0.21,
3.223,0.48,-0.00,-0.52,-0.33,-0.28,-0.25,
3.223,0.48,-0.00,-0.52,-0.33,-0.28,-0.25,
3.224,0.59,0.01,-0.46,-0.33,-0.28,-0.25,
3.224,0.59,0.01,-0.46,-0.33,-0.28,-0.25,
3.232,0.59,0.01,-0.46,-0.36,-0.30,-0.32,
3.233,0.59,0.01,-0.46,-0.36,-0.30,-0.32,
3.233,0.59,0.03,-0.39,-0.36,-0.30,-0.32,
3.234,0.59,0.03,-0.39,-0.36,-0.30,-0.32,
3.241,0.59,0.03,-0.39,-0.36,-0.35,-0.39,
3.242,0.59,0.03,-0.39,-0.36,-0.35,-0.39,
3.242,0.51,0.07,-0.36,-0.36,-0.35,-0.39,
3.243,0.51,0.07,-0.36,-0.36,-0.35,-0.39,
3.251,0.51,0.07,-0.36,-0.33,-0.41,-0.45,
3.252,0.51,0.07,-0.36,-0.33,-0.41,-0.45,
3.252,0.35,0.12,-0.40,-0.33,-0.41,-0.45,
3.253,0.35,0.12,-0.40,-0.33,-0.41,-0.45,
3.262,0.35,0.12,-0.40,-0.29,-0.45,-0.46,
3.263,0.35,0.12,-0.40,-0.29,-0.45,-0.46,
3.263,0.18,0.16,-0.45,-0.29,-0.45,-0.46,
3.264,0.18,0.16,-0.45,-0.29,-0.45,-0.46,
3.282,0.18,0.16,-0.45,-0.24,-0.44,-0.42,
3.283,0.18,0.16,-0.45,-0.24,-0.44,-0.42,
3.283,0.05,0.19,-0.53,-0.24,-0.44,-0.42,
3.283,0.05,0.19,-0.53,-0.24,-0.44,-0.42,
3.284,0.05,0.19,-0.53,-0.21,-0.38,-0.33,
3.284,0.05,0.19,-0.53,-0.21,-0.38,-0.33,
3.284,-0.04,0.18,-0.55,-0.21,-0.38,-0.33,
3.284,-0.04,0.18,-0.55,-0.21,-0.38,-0.33,
3.29,-0.04,0.18,-0.55,-0.19,-0.28,-0.21,
3.291,-0.04,0.18,-0.55,-0.19,-0.28,-0.21,
3.291,-0.05,0.15,-0.53,-0.19,-0.28,-0.21,
3.292,-0.05,0.15,-0.53,-0.19,-0.28,-0.21,
3.298,-0.05,0.15,-0.53,-0.19,-0.16,-0.07,
3.299,-0.05,0.15,-0.53,-0.19,-0.16,-0.07,
3.3,-0.02,0.12,-0.47,-0.19,-0.16,-0.07,
3.3,-0.02,0.12,-0.47,-0.19,-0.16,-0.07,
3.308,-0.02,0.12,-0.47,-0.18,-0.05,0.04,
3.308,-0.02,0.12,-0.47,-0.18,-0.05,0.04,
3.309,0.06,0.09,-0.34,-0.18,-0.05,0.04,
3.309,0.06,0.09,-0.34,-0.18,-0.05,0.04,
3.318,0.06,0.09,-0.34,-0.17,0.02,0.13,
3.319,0.06,0.09,-0.34,-0.17,0.02,0.13,
3.319,0.17,0.09,-0.22,-0.17,0.02,0.13,
3.32,0.17,0.09,-0.22,-0.17,0.02,0.13,
3.328,0.17,0.09,-0.22,-0.14,0.03,0.18,
3.329,0.17,0.09,-0.22,-0.14,0.03,0.18,
3.333,0.28,0.10,-0.11,-0.14,0.03,0.18,
3.334,0.28,0.10,-0.11,-0.14,0.03,0.18,
3.338,0.28,0.10,-0.11,-0.09,-0.02,0.18,
3.339,0.28,0.10,-0.11,-0.09,-0.02,0.18,
3.339,0.39,0.09,-0.06,-0.09,-0.02,0.18,
3.34,0.39,0.09,-0.06,-0.09,-0.02,0.18,
3.346,0.39,0.09,-0.06,-0.09,-0.02,0.18,
3.346,0.39,0.09,-0.06,-0.09,-0.02,0.18,
3.346,0.39,0.09,-0.06,-0.09,-0.02,0.18,
3.347,0.39,0.09,-0.06,-0.09,-0.02,0.18,
3.355,0.39,0.09,-0.06,-0.02,-0.11,0.15,
3.356,0.39,0.09,-0.06,-0.02,-0.11,0.15,
3.356,0.42,0.06,-0.16,-0.02,-0.11,0.15,
3.357,0.42,0.06,-0.16,-0.02,-0.11,0.15,
3.365,0.42,0.06,-0.16,0.05,-0.22,0.10,
3.365,0.42,0.06,-0.16,0.05,-0.22,0.10,
3.366,0.34,0.06,-0.22,0.05,-0.22,0.10,
3.366,0.34,0.06,-0.22,0.05,-0.22,0.10,
3.374,0.34,0.06,-0.22,0.09,-0.29,0.03,
3.375,0.34,0.06,-0.22,0.09,-0.29,0.03,
3.375,0.23,0.09,-0.26,0.09,-0.29,0.03,
3.376,0.23,0.09,-0.26,0.09,-0.29,0.03,
3.384,0.23,0.09,-0.26,0.11,-0.30,-0.02,
3.385,0.23,0.09,-0.26,0.11,-0.30,-0.02,
3.385,0.10,0.12,-0.28,0.11,-0.30,-0.02,
3.385,0.10,0.12,-0.28,0.11,-0.30,-0.02,
3.393,0.10,0.12,-0.28,0.09,-0.27,-0.03,
3.394,0.10,0.12,-0.28,0.09,-0.27,-0.03,
3.394,0.00,0.14,-0.28,0.09,-0.27,-0.03,
3.395,0.00,0.14,-0.28,0.09,-0.27,-0.03,
3.403,0.00,0.14,-0.28,0.07,-0.21,-0.01,
3.404,0.00,0.14,-0.28,0.07,-0.21,-0.01,
3.404,-0.04,0.18,-0.30,0.07,-0.21,-0.01,
3.405,-0.04,0.18,-0.30,0.07,-0.21,-0.01,
3.412,-0.04,0.18,-0.30,0.03,-0.14,0.04,
3.413,-0.04,0.18,-0.30,0.03,-0.14,0.04,
3.413,-0.06,0.21,-0.24,0.03,-0.14,0.04,
3.414,-0.06,0.21,-0.24,0.03,-0.14,0.04,
3.422,-0.06,0.21,-0.24,0.01,-0.07,0.10,
3.423,-0.06,0.21,-0.24,0.01,-0.07,0.10,
3.424,-0.06,0.24,-0.17,0.01,-0.07,0.10,
3.424,-0.06,0.24,-0.17,0.01,-0.07,0.10,
3.431,-0.06,0.24,-0.17,-0.01,-0.02,0.15,
3.432,-0.06,0.24,-0.17,-0.01,-0.02,0.15,
3.432,-0.06,0.27,-0.13,-0.01,-0.02,0.15,
3.433,-0.06,0.27,-0.13,-0.01,-0.02,0.15,
3.441,-0.06,0.27,-0.13,-0.01,0.02,0.19,
3.442,-0.06,0.27,-0.13,-0.01,0.02,0.19,
3.443,-0.05,0.28,-0.07,-0.01,0.02,0.19,
3.443,-0.05,0.28,-0.07,-0.01,0.02,0.19,
3.451,-0.05,0.28,-0.07,0.00,0.03,0.21,
3.451,-0.05,0.28,-0.07,0.00,0.03,0.21,
3.452,-0.05,0.25,-0.04,0.00,0.03,0.21,
3.452,-0.05,0.25,-0.04,0.00,0.03,0.21,
3.46,-0.05,0.25,-0.04,0.02,0.01,0.22,
3.46,-0.05,0.25,-0.04,0.02,0.01,0.22,
3.461,-0.07,0.21,-0.02,0.02,0.01,0.22,
3.461,-0.07,0.21,-0.02,0.02,0.01,0.22,
3.473,-0.07,0.21,-0.02,0.04,-0.02,0.21,
3.474,-0.07,0.21,-0.02,0.04,-0.02,0.21,
3.475,-0.07,0.17,-0.00,0.04,-0.02,0.21,
3.475,-0.07,0.17,-0.00,0.04,-0.02,0.21,
3.479,-0.07,0.17,-0.00,0.06,-0.06,0.20,
3.48,-0.07,0.17,-0.00,0.06,-0.06,0.20,
3.48,-0.07,0.12,-0.03,0.06,-0.06,0.20,
3.48,-0.07,0.12,-0.03,0.06,-0.06,0.20,
3.488,-0.07,0.12,-0.03,0.08,-0.07,0.18,
3.489,-0.07,0.12,-0.03,0.08,-0.07,0.18,
3.489,-0.03,0.10,-0.07,0.08,-0.07,0.18,
3.489,-0.03,0.10,-0.07,0.08,-0.07,0.18,
3.498,-0.03,0.10,-0.07,0.08,-0.08,0.16,
3.498,-0.03,0.10,-0.07,0.08,-0.08,0.16,
3.499,0.07,0.05,-0.12,0.08,-0.08,0.16,
3.499,0.07,0.05,-0.12,0.08,-0.08,0.16,
3.507,0.07,0.05,-0.12,0.06,-0.09,0.13,
3.508,0.07,0.05,-0.12,0.06,-0.09,0.13,
3.508,0.16,0.03,-0.12,0.06,-0.09,0.13,
3.509,0.16,0.03,-0.12,0.06,-0.09,0.13,
3.517,0.16,0.03,-0.12,0.03,-0.09,0.08,
3.517,0.16,0.03,-0.12,0.03,-0.09,0.08,
3.518,0.21,0.03,-0.06,0.03,-0.09,0.08,
3.518,0.21,0.03,-0.06,0.03,-0.09,0.08,
3.527,0.21,0.03,-0.06,-0.00,-0.07,0.02,
3.528,0.21,0.03,-0.06,-0.00,-0.07,0.02,
3.528,0.26,0.04,0.01,-0.00,-0.07,0.02,
3.528,0.26,0.04,0.01,-0.00,-0.07,0.02,
3.537,0.26,0.04,0.01,-0.03,-0.06,-0.05,
3.538,0.26,0.04,0.01,-0.03,-0.06,-0.05,
3.538,0.24,0.08,0.05,-0.03,-0.06,-0.05,
3.538,0.24,0.08,0.05,-0.03,-0.06,-0.05,
3.546,0.24,0.08,0.05,-0.03,-0.06,-0.05,
3.546,0.24,0.08,0.05,-0.03,-0.06,-0.05,
3.546,0.24,0.08,0.05,-0.03,-0.06,-0.05,
3.547,0.24,0.08,0.05,-0.03,-0.06,-0.05,
3.555,0.24,0.08,0.05,-0.03,-0.08,-0.12,
3.556,0.24,0.08,0.05,-0.03,-0.08,-0.12,
3.556,0.16,0.13,0.07,-0.03,-0.08,-0.12,
3.556,0.16,0.13,0.07,-0.03,-0.08,-0.12,
3.564,0.16,0.13,0.07,-0.02,-0.10,-0.16,
3.565,0.16,0.13,0.07,-0.02,-0.10,-0.16,
3.568,0.06,0.13,0.05,-0.02,-0.10,-0.16,
3.569,0.06,0.13,0.05,-0.02,-0.10,-0.16,
3.574,0.06,0.13,0.05,-0.01,-0.13,-0.18,
3.575,0.06,0.13,0.05,-0.01,-0.13,-0.18,
3.576,-0.03,0.15,0.04,-0.01,-0.13,-0.18,
3.576,-0.03,0.15,0.04,-0.01,-0.13,-0.18,
3.583,-0.03,0.15,0.04,0.01,-0.14,-0.17,
3.584,-0.03,0.15,0.04,0.01,-0.14,-0.17,
3.585,-0.13,0.16,0.04,0.01,-0.14,-0.17,
3.585,-0.13,0.16,0.04,0.01,-0.14,-0.17,
3.593,-0.13,0.16,0.04,0.02,-0.12,-0.12,
3.594,-0.13,0.16,0.04,0.02,-0.12,-0.12,
3.594,-0.16,0.14,0.02,0.02,-0.12,-0.12,
3.594,-0.16,0.14,0.02,0.02,-0.12,-0.12,
3.603,-0.16,0.14,0.02,0.03,-0.09,-0.06,
3.604,-0.16,0.14,0.02,0.03,-0.09,-0.06,
3.604,-0.14,0.12,-0.02,0.03,-0.09,-0.06,
3.605,-0.14,0.12,-0.02,0.03,-0.09,-0.06,
3.612,-0.14,0.12,-0.02,0.02,-0.04,0.01,
3.612,-0.14,0.12,-0.02,0.02,-0.04,0.01,
3.613,-0.09,0.07,-0.05,0.02,-0.04,0.01,
3.613,-0.09,0.07,-0.05,0.02,-0.04,0.01,
3.622,-0.09,0.07,-0.05,0.01,-0.00,0.07,
3.623,-0.09,0.07,-0.05,0.01,-0.00,0.07,
3.624,-0.01,0.04,-0.09,0.01,-0.00,0.07,
3.624,-0.01,0.04,-0.09,0.01,-0.00,0.07,
3.631,-0.01,0.04,-0.09,-0.01,0.04,0.09,
3.632,-0.01,0.04,-0.09,-0.01,0.04,0.09,
3.632,0.06,0.04,-0.11,-0.01,0.04,0.09,
3.633,0.06,0.04,-0.11,-0.01,0.04,0.09,
3.641,0.06,0.04,-0.11,-0.03,0.08,0.09,
3.642,0.06,0.04,-0.11,-0.03,0.08,0.09,
3.642,0.10,0.05,-0.13,-0.03,0.08,0.09,
3.643,0.10,0.05,-0.13,-0.03,0.08,0.09,
3.65,0.10,0.05,-0.13,-0.06,0.11,0.06,
3.651,0.10,0.05,-0.13,-0.06,0.11,0.06,
3.651,0.10,0.07,-0.14,-0.06,0.11,0.06,
3.651,0.10,0.07,-0.14,-0.06,0.11,0.06,
3.66,0.10,0.07,-0.14,-0.08,0.11,0.02,
3.661,0.10,0.07,-0.14,-0.08,0.11,0.02,
3.661,0.04,0.08,-0.15,-0.08,0.11,0.02,
3.662,0.04,0.08,-0.15,-0.08,0.11,0.02,
3.682,0.04,0.08,-0.15,-0.10,0.10,-0.01,
3.683,0.04,0.08,-0.15,-0.10,0.10,-0.01,
3.683,0.00,0.09,-0.17,-0.10,0.10,-0.01,
3.684,0.00,0.09,-0.17,-0.10,0.10,-0.01,
3.684,0.00,0.09,-0.17,-0.10,0.10,-0.01,
3.684,0.00,0.09,-0.17,-0.10,0.10,-0.01,
3.685,0.00,0.09,-0.17,-0.10,0.10,-0.01,
3.685,0.00,0.09,-0.17,-0.10,0.10,-0.01,
3.689,0.00,0.09,-0.17,-0.12,0.13,-0.04,
3.69,0.00,0.09,-0.17,-0.12,0.13,-0.04,
3.691,-0.03,0.04,-0.12,-0.12,0.13,-0.04,
3.691,-0.03,0.04,-0.12,-0.12,0.13,-0.04,
3.698,-0.03,0.04,-0.12,-0.12,0.15,-0.03,
3.698,-0.03,0.04,-0.12,-0.12,0.15,-0.03,
3.699,-0.03,0.04,-0.08,-0.12,0.15,-0.03,
3.699,-0.03,0.04,-0.08,-0.12,0.15,-0.03,
3.707,-0.03,0.04,-0.08,-0.11,0.15,-0.00,
3.708,-0.03,0.04,-0.08,-0.11,0.15,-0.00,
3.709,-0.05,0.05,-0.05,-0.11,0.15,-0.00,
3.709,-0.05,0.05,-0.05,-0.11,0.15,-0.00,
3.717,-0.05,0.05,-0.05,-0.09,0.12,0.02,
3.718,-0.05,0.05,-0.05,-0.09,0.12,0.02,
3.718,-0.03,0.09,-0.04,-0.09,0.12,0.02,
3.718,-0.03,0.09,-0.04,-0.09,0.12,0.02,
3.727,-0.03,0.09,-0.04,-0.07,0.09,0.04,
3.728,-0.03,0.09,-0.04,-0.07,0.09,0.04,
3.728,-0.03,0.13,-0.05,-0.07,0.09,0.04,
3.729,-0.03,0.13,-0.05,-0.07,0.09,0.04,
3.737,-0.03,0.13,-0.05,-0.07,0.09,0.04,
3.737,-0.03,0.13,-0.05,-0.07,0.09,0.04,
3.738,-0.03,0.13,-0.05,-0.07,0.09,0.04,
3.738,-0.03,0.13,-0.05,-0.07,0.09,0.04,
3.745,-0.03,0.13,-0.05,-0.04,0.08,0.05,
3.746,-0.03,0.13,-0.05,-0.04,0.08,0.05,
3.746,0.00,0.14,-0.05,-0.04,0.08,0.05,
3.746,0.00,0.14,-0.05,-0.04,0.08,0.05,
3.755,0.00,0.14,-0.05,-0.02,0.09,0.05,
3.755,0.00,0.14,-0.05,-0.02,0.09,0.05,
3.756,0.01,0.13,-0.01,-0.02,0.09,0.05,
3.756,0.01,0.13,-0.01,-0.02,0.09,0.05,
3.764,0.01,0.13,-0.01,0.00,0.07,0.05,
3.765,0.01,0.13,-0.01,0.00,0.07,0.05,
3.765,0.01,0.14,0.05,0.00,0.07,0.05,
3.765,0.01,0.14,0.05,0.00,0.07,0.05,
3.774,0.01,0.14,0.05,0.02,0.03,0.05,
3.774,0.01,0.14,0.05,0.02,0.03,0.05,
3.775,-0.03,0.17,0.09,0.02,0.03,0.05,
3.775,-0.03,0.17,0.09,0.02,0.03,0.05,
3.783,-0.03,0.17,0.09,0.04,-0.02,0.05,
3.784,-0.03,0.17,0.09,0.04,-0.02,0.05,
3.784,-0.07,0.19,0.12,0.04,-0.02,0.05,
3.785,-0.07,0.19,0.12,0.04,-0.02,0.05,
3.793,-0.07,0.19,0.12,0.06,-0.05,0.05,
3.794,-0.07,0.19,0.12,0.06,-0.05,0.05,
3.794,-0.11,0.21,0.13,0.06,-0.05,0.05,
3.794,-0.11,0.21,0.13,0.06,-0.05,0.05,
3.803,-0.11,0.21,0.13,0.10,-0.03,0.06,
3.804,-0.11,0.21,0.13,0.10,-0.03,0.06,
3.808,-0.15,0.20,0.13,0.10,-0.03,0.06,
3.809,-0.15,0.20,0.13,0.10,-0.03,0.06,
3.812,-0.15,0.20,0.13,0.13,0.01,0.07,
3.813,-0.15,0.20,0.13,0.13,0.01,0.07,
3.813,-0.14,0.19,0.11,0.13,0.01,0.07,
3.814,-0.14,0.19,0.11,0.13,0.01,0.07,
3.821,-0.14,0.19,0.11,0.16,0.05,0.09,
3.823,-0.14,0.19,0.11,0.16,0.05,0.09,
3.823,-0.11,0.17,0.05,0.16,0.05,0.09,
3.824,-0.11,0.17,0.05,0.16,0.05,0.09,
3.831,-0.11,0.17,0.05,0.16,0.08,0.10,
3.832,-0.11,0.17,0.05,0.16,0.08,0.10,
3.832,-0.06,0.15,-0.01,0.16,0.08,0.10,
3.832,-0.06,0.15,-0.01,0.16,0.08,0.10,
3.84,-0.06,0.15,-0.01,0.15,0.10,0.11,
3.842,-0.06,0.15,-0.01,0.15,0.10,0.11,
3.842,0.01,0.12,-0.07,0.15,0.10,0.11,
3.843,0.01,0.12,-0.07,0.15,0.10,0.11,
3.85,0.01,0.12,-0.07,0.13,0.11,0.10,
3.851,0.01,0.12,-0.07,0.13,0.11,0.10,
3.851,0.01,0.12,-0.07,0.13,0.11,0.10,
3.852,0.01,0.12,-0.07,0.13,0.11,0.10,
3.86,0.01,0.12,-0.07,0.08,0.14,0.07,
3.86,0.01,0.12,-0.07,0.08,0.14,0.07,
3.861,0.01,0.12,-0.07,0.08,0.14,0.07,
3.861,0.01,0.12,-0.07,0.08,0.14,0.07,
3.873,0.01,0.12,-0.07,0.04,0.16,0.03,
3.874,0.01,0.12,-0.07,0.04,0.16,0.03,
3.874,0.01,0.12,-0.06,0.04,0.16,0.03,
3.875,0.01,0.12,-0.06,0.04,0.16,0.03,
3.879,0.01,0.12,-0.06,0.00,0.18,-0.00,
3.88,0.01,0.12,-0.06,0.00,0.18,-0.00,
3.88,0.01,0.12,-0.06,0.00,0.18,-0.00,
3.88,0.01,0.12,-0.06,0.00,0.18,-0.00,
3.889,0.01,0.12,-0.06,-0.02,0.18,-0.03,
3.89,0.01,0.12,-0.06,-0.02,0.18,-0.03,
3.89,0.01,0.12,-0.06,-0.02,0.18,-0.03,
3.89,0.01,0.12,-0.06,-0.02,0.18,-0.03,
3.897,0.01,0.12,-0.06,-0.04,0.18,-0.04,
3.898,0.01,0.12,-0.06,-0.04,0.18,-0.04,
3.898,0.01,0.12,-0.05,-0.04,0.18,-0.04,
3.899,0.01,0.12,-0.05,-0.04,0.18,-0.04,
3.907,0.01,0.12,-0.05,-0.05,0.17,-0.05,
3.908,0.01,0.12,-0.05,-0.05,0.17,-0.05,
3.908,0.01,0.12,-0.05,-0.05,0.17,-0.05,
3.909,0.01,0.12,-0.05,-0.05,0.17,-0.05,
3.917,0.01,0.12,-0.05,-0.05,0.15,-0.05,
3.917,0.01,0.12,-0.05,-0.05,0.15,-0.05,
3.918,0.01,0.12,-0.05,-0.05,0.15,-0.05,
3.918,0.01,0.12,-0.05,-0.05,0.15,-0.05,
3.926,0.01,0.12,-0.05,-0.06,0.14,-0.05,
3.927,0.01,0.12,-0.05,-0.06,0.14,-0.05,
3.928,0.01,0.12,-0.04,-0.06,0.14,-0.05,
3.928,0.01,0.12,-0.04,-0.06,0.14,-0.05,
3.936,0.01,0.12,-0.04,-0.06,0.14,-0.05,
3.937,0.01,0.12,-0.04,-0.06,0.14,-0.05,
3.937,0.01,0.12,-0.04,-0.06,0.14,-0.05,
3.938,0.01,0.12,-0.04,-0.06,0.14,-0.05,
3.945,0.01,0.12,-0.04,-0.05,0.13,-0.05,
3.946,0.01,0.12,-0.04,-0.05,0.13,-0.05,
3.946,-0.02,0.05,-0.22,-0.05,0.13,-0.05,
3.947,-0.02,0.05,-0.22,-0.05,0.13,-0.05,
3.955,-0.02,0.05,-0.22,-0.06,0.12,-0.05,
3.956,-0.02,0.05,-0.22,-0.06,0.12,-0.05,
3.956,-0.04,0.03,-0.26,-0.06,0.12,-0.05,
3.956,-0.04,0.03,-0.26,-0.06,0.12,-0.05,
3.964,-0.04,0.03,-0.26,-0.07,0.12,-0.04,
3.965,-0.04,0.03,-0.26,-0.07,0.12,-0.04,
3.965,-0.00,0.06,-0.26,-0.07,0.12,-0.04,
3.966,-0.00,0.06,-0.26,-0.07,0.12,-0.04,
3.974,-0.00,0.06,-0.26,-0.11,0.12,-0.03,
3.975,-0.00,0.06,-0.26,-0.11,0.12,-0.03,
3.976,0.03,0.08,-0.25,-0.11,0.12,-0.03,
3.976,0.03,0.08,-0.25,-0.11,0.12,-0.03,
3.984,0.03,0.08,-0.25,-0.15,0.12,-0.03,
3.984,0.03,0.08,-0.25,-0.15,0.12,-0.03,
3.985,0.06,0.12,-0.19,-0.15,0.12,-0.03,
3.985,0.06,0.12,-0.19,-0.15,0.12,-0.03,
3.993,0.06,0.12,-0.19,-0.18,0.11,-0.03,
3.994,0.06,0.12,-0.19,-0.18,0.11,-0.03,
3.994,0.12,0.14,-0.11,-0.18,0.11,-0.03,
3.994,0.12,0.14,-0.11,-0.18,0.11,-0.03,
4.003,0.12,0.14,-0.11,-0.18,0.11,-0.03,
4.004,0.12,0.14,-0.11,-0.18,0.11,-0.03,
4.004,0.14,0.15,-0.00,-0.18,0.11,-0.03,
4.004,0.14,0.15,-0.00,-0.18,0.11,-0.03,
4.012,0.14,0.15,-0.00,-0.16,0.09,-0.05,
4.012,0.14,0.15,-0.00,-0.16,0.09,-0.05,
4.013,0.17,0.16,0.08,-0.16,0.09,-0.05,
4.013,0.17,0.16,0.08,-0.16,0.09,-0.05,
4.021,0.17,0.16,0.08,-0.11,0.06,-0.07,
4.022,0.17,0.16,0.08,-0.11,0.06,-0.07,
4.022,0.19,0.16,0.12,-0.11,0.06,-0.07,
4.022,0.19,0.16,0.12,-0.11,0.06,-0.07,
4.031,0.19,0.16,0.12,-0.04,0.01,-0.09,
4.032,0.19,0.16,0.12,-0.04,0.01,-0.09,
4.032,0.19,0.15,0.17,-0.04,0.01,-0.09,
4.033,0.19,0.15,0.17,-0.04,0.01,-0.09,
4.04,0.19,0.15,0.17,0.02,-0.04,-0.11,
4.041,0.19,0.15,0.17,0.02,-0.04,-0.11,
4.045,0.16,0.13,0.15,0.02,-0.04,-0.11,
4.045,0.16,0.13,0.15,0.02,-0.04,-0.11,
4.05,0.16,0.13,0.15,0.09,-0.08,-0.12,
4.05,0.16,0.13,0.15,0.09,-0.08,-0.12,
4.05,0.12,0.16,0.11,0.09,-0.08,-0.12,
4.051,0.12,0.16,0.11,0.09,-0.08,-0.12,
4.06,0.12,0.16,0.11,0.13,-0.11,-0.13,
4.06,0.12,0.16,0.11,0.13,-0.11,-0.13,
4.06,0.10,0.16,0.11,0.13,-0.11,-0.13,
4.061,0.10,0.16,0.11,0.13,-0.11,-0.13,
4.073,0.10,0.16,0.11,0.15,-0.13,-0.12,
4.073,0.10,0.16,0.11,0.15,-0.13,-0.12,
4.074,0.10,0.15,0.05,0.15,-0.13,-0.12,
4.074,0.10,0.15,0.05,0.15,-0.13,-0.12,
4.079,0.10,0.15,0.05,0.16,-0.13,-0.09,
4.08,0.10,0.15,0.05,0.16,-0.13,-0.09,
4.08,0.13,0.15,0.00,0.16,-0.13,-0.09,
4.08,0.13,0.15,0.00,0.16,-0.13,-0.09,
4.088,0.13,0.15,0.00,0.14,-0.11,-0.07,
4.089,0.13,0.15,0.00,0.14,-0.11,-0.07,
4.089,0.17,0.13,-0.01,0.14,-0.11,-0.07,
4.089,0.17,0.13,-0.01,0.14,-0.11,-0.07,
4.097,0.17,0.13,-0.01,0.11,-0.07,-0.06,
4.098,0.17,0.13,-0.01,0.11,-0.07,-0.06,
4.098,0.17,0.17,-0.02,0.11,-0.07,-0.06,
4.099,0.17,0.17,-0.02,0.11,-0.07,-0.06,
4.107,0.17,0.17,-0.02,0.09,-0.01,-0.06,
4.108,0.17,0.17,-0.02,0.09,-0.01,-0.06,
4.109,0.16,0.20,0.00,0.09,-0.01,-0.06,
4.109,0.16,0.20,0.00,0.09,-0.01,-0.06,
4.117,0.16,0.20,0.00,0.06,0.05,-0.07,
4.118,0.16,0.20,0.00,0.06,0.05,-0.07,
4.118,0.14,0.23,0.07,0.06,0.05,-0.07,
4.118,0.14,0.23,0.07,0.06,0.05,-0.07,
4.127,0.14,0.23,0.07,0.04,0.09,-0.07,
4.128,0.14,0.23,0.07,0.04,0.09,-0.07,
4.128,0.09,0.22,0.11,0.04,0.09,-0.07,
4.128,0.09,0.22,0.11,0.04,0.09,-0.07,
4.137,0.09,0.22,0.11,0.04,0.09,-0.07,
4.138,0.09,0.22,0.11,0.04,0.09,-0.07,
4.138,0.09,0.22,0.11,0.04,0.09,-0.07,
4.138,0.09,0.22,0.11,0.04,0.09,-0.07,
4.145,0.09,0.22,0.11,0.03,0.09,-0.06,
4.146,0.09,0.22,0.11,0.03,0.09,-0.06,
4.146,0.09,0.13,0.08,0.03,0.09,-0.06,
4.147,0.09,0.13,0.08,0.03,0.09,-0.06,
4.155,0.09,0.13,0.08,0.03,0.06,-0.05,
4.156,0.09,0.13,0.08,0.03,0.06,-0.05,
4.156,0.11,0.10,0.03,0.03,0.06,-0.05,
4.157,0.11,0.10,0.03,0.03,0.06,-0.05,
4.164,0.11,0.10,0.03,0.03,0.03,-0.03,
4.165,0.11,0.10,0.03,0.03,0.03,-0.03,
4.166,0.13,0.10,0.01,0.03,0.03,-0.03,
4.166,0.13,0.10,0.01,0.03,0.03,-0.03,
4.174,0.13,0.10,0.01,0.03,0.02,-0.02,
4.175,0.13,0.10,0.01,0.03,0.02,-0.02,
4.176,0.12,0.11,-0.01,0.03,0.02,-0.02,
4.176,0.12,0.11,-0.01,0.03,0.02,-0.02,
4.184,0.12,0.11,-0.01,0.02,0.02,-0.02,
4.185,0.12,0.11,-0.01,0.02,0.02,-0.02,
4.185,0.09,0.16,0.02,0.02,0.02,-0.02,
4.185,0.09,0.16,0.02,0.02,0.02,-0.02,
4.193,0.09,0.16,0.02,0.01,0.03,-0.01,
4.194,0.09,0.16,0.02,0.01,0.03,-0.01,
4.194,0.08,0.19,0.05,0.01,0.03,-0.01,
4.194,0.08,0.19,0.05,0.01,0.03,-0.01,
4.203,0.08,0.19,0.05,0.01,0.01,-0.01,
4.204,0.08,0.19,0.05,0.01,0.01,-0.01,
4.205,0.04,0.21,0.05,0.01,0.01,-0.01,
4.205,0.04,0.21,0.05,0.01,0.01,-0.01,
4.212,0.04,0.21,0.05,-0.00,-0.02,0.00,
4.213,0.04,0.21,0.05,-0.00,-0.02,0.00,
4.213,0.05,0.21,0.09,-0.00,-0.02,0.00,
4.213,0.05,0.21,0.09,-0.00,-0.02,0.00,
4.221,0.05,0.21,0.09,0.00,-0.05,0.01,
4.222,0.05,0.21,0.09,0.00,-0.05,0.01,
4.223,0.05,0.18,0.10,0.00,-0.05,0.01,
4.223,0.05,0.18,0.10,0.00,-0.05,0.01,
4.231,0.05,0.18,0.10,0.01,-0.05,0.03,
4.232,0.05,0.18,0.10,0.01,-0.05,0.03,
4.232,0.03,0.14,0.10,0.01,-0.05,0.03,
4.232,0.03,0.14,0.10,0.01,-0.05,0.03,
4.24,0.03,0.14,0.10,0.03,-0.04,0.03,
4.241,0.03,0.14,0.10,0.03,-0.04,0.03,
4.242,0.01,0.10,0.12,0.03,-0.04,0.03,
4.242,0.01,0.10,0.12,0.03,-0.04,0.03,
4.25,0.01,0.10,0.12,0.04,-0.03,0.04,
4.25,0.01,0.10,0.12,0.04,-0.03,0.04,
4.251,-0.04,0.09,0.11,0.04,-0.03,0.04,
4.251,-0.04,0.09,0.11,0.04,-0.03,0.04,
4.26,-0.04,0.09,0.11,0.05,-0.03,0.05,
4.261,-0.04,0.09,0.11,0.05,-0.03,0.05,
4.261,-0.04,0.10,0.12,0.05,-0.03,0.05,
4.261,-0.04,0.10,0.12,0.05,-0.03,0.05,
4.269,-0.04,0.10,0.12,0.06,-0.04,0.06,
4.269,-0.04,0.10,0.12,0.06,-0.04,0.06,
4.269,-0.05,0.10,0.12,0.06,-0.04,0.06,
4.27,-0.05,0.10,0.12,0.06,-0.04,0.06,
4.279,-0.05,0.10,0.12,0.06,-0.05,0.07,
4.28,-0.05,0.10,0.12,0.06,-0.05,0.07,
4.284,-0.05,0.10,0.12,0.06,-0.05,0.07,
4.284,-0.05,0.10,0.12,0.06,-0.05,0.07,
4.288,-0.05,0.10,0.12,0.06,-0.05,0.08,
4.289,-0.05,0.10,0.12,0.06,-0.05,0.08,
4.289,-0.05,0.10,0.11,0.06,-0.05,0.08,
4.289,-0.05,0.10,0.11,0.06,-0.05,0.08,
4.297,-0.05,0.10,0.11,0.06,-0.05,0.08,
4.298,-0.05,0.10,0.11,0.06,-0.05,0.08,
4.298,-0.05,0.10,0.11,0.06,-0.05,0.08,
4.298,-0.05,0.10,0.11,0.06,-0.05,0.08,
4.307,-0.05,0.10,0.11,0.06,-0.05,0.08,
4.307,-0.05,0.10,0.11,0.06,-0.05,0.08,
4.308,-0.06,0.10,0.10,0.06,-0.05,0.08,
4.308,-0.06,0.10,0.10,0.06,-0.05,0.08,
4.316,-0.06,0.10,0.10,0.05,-0.04,0.06,
4.317,-0.06,0.10,0.10,0.05,-0.04,0.06,
4.317,-0.06,0.10,0.10,0.05,-0.04,0.06,
4.317,-0.06,0.10,0.10,0.05,-0.04,0.06,
4.326,-0.06,0.10,0.10,0.04,-0.03,0.05,
4.328,-0.06,0.10,0.10,0.04,-0.03,0.05,
4.328,-0.06,0.10,0.10,0.04,-0.03,0.05,
4.329,-0.06,0.10,0.10,0.04,-0.03,0.05,
4.336,-0.06,0.10,0.10,0.04,-0.03,0.05,
4.337,-0.06,0.10,0.10,0.04,-0.03,0.05,
4.338,-0.06,0.10,0.10,0.04,-0.03,0.05,
4.338,-0.06,0.10,0.10,0.04,-0.03,0.05,
4.345,-0.06,0.10,0.10,0.03,-0.03,0.04,
4.346,-0.06,0.10,0.10,0.03,-0.03,0.04,
4.346,-0.07,0.10,0.09,0.03,-0.03,0.04,
4.347,-0.07,0.10,0.09,0.03,-0.03,0.04,
4.355,-0.07,0.10,0.09,0.03,-0.02,0.04,
4.355,-0.07,0.10,0.09,0.03,-0.02,0.04,
4.355,-0.07,0.10,0.09,0.03,-0.02,0.04,
4.356,-0.07,0.10,0.09,0.03,-0.02,0.04,
4.364,-0.07,0.10,0.09,0.02,-0.02,0.03,
4.365,-0.07,0.10,0.09,0.02,-0.02,0.03,
4.365,-0.07,0.10,0.08,0.02,-0.02,0.03,
4.366,-0.07,0.10,0.08,0.02,-0.02,0.03,
4.374,-0.07,0.10,0.08,0.02,-0.01,0.02,
4.375,-0.07,0.10,0.08,0.02,-0.01,0.02,
4.375,-0.07,0.10,0.08,0.02,-0.01,0.02,
4.376,-0.07,0.10,0.08,0.02,-0.01,0.02,
4.383,-0.07,0.10,0.08,0.01,-0.01,0.02,
4.384,-0.07,0.10,0.08,0.01,-0.01,0.02,
4.384,-0.07,0.10,0.08,0.01,-0.01,0.02,
4.384,-0.07,0.10,0.08,0.01,-0.01,0.02,
4.393,-0.07,0.10,0.08,0.01,-0.01,0.02,
4.394,-0.07,0.10,0.08,0.01,-0.01,0.02,
4.394,-0.07,0.10,0.07,0.01,-0.01,0.02,
4.395,-0.07,0.10,0.07,0.01,-0.01,0.02,
4.403,-0.07,0.10,0.07,0.01,-0.01,0.01,
4.403,-0.07,0.10,0.07,0.01,-0.01,0.01,
4.403,-0.07,0.09,0.07,0.01,-0.01,0.01,
4.404,-0.07,0.09,0.07,0.01,-0.01,0.01,
4.411,-0.07,0.09,0.07,0.01,-0.01,0.01,
4.412,-0.07,0.09,0.07,0.01,-0.01,0.01,
4.412,-0.07,0.09,0.06,0.01,-0.01,0.01,
4.412,-0.07,0.09,0.06,0.01,-0.01,0.01,
4.421,-0.07,0.09,0.06,0.01,-0.01,0.01,
4.422,-0.07,0.09,0.06,0.01,-0.01,0.01,
4.422,-0.07,0.09,0.06,0.01,-0.01,0.01,
4.422,-0.07,0.09,0.06,0.01,-0.01,0.01,
4.431,-0.07,0.09,0.06,0.01,-0.00,0.01,
4.432,-0.07,0.09,0.06,0.01,-0.00,0.01,
4.432,-0.07,0.09,0.05,0.01,-0.00,0.01,
4.432,-0.07,0.09,0.05,0.01,-0.00,0.01,
4.441,-0.07,0.09,0.05,0.00,-0.00,0.01,
4.442,-0.07,0.09,0.05,0.00,-0.00,0.01,
4.442,-0.07,0.09,0.05,0.00,-0.00,0.01,
4.442,-0.07,0.09,0.05,0.00,-0.00,0.01,
4.45,-0.07,0.09,0.05,0.00,-0.00,0.00,
4.45,-0.07,0.09,0.05,0.00,-0.00,0.00,
4.451,-0.06,0.09,0.04,0.00,-0.00,0.00,
4.451,-0.06,0.09,0.04,0.00,-0.00,0.00,
4.46,-0.06,0.09,0.04,0.00,-0.00,0.00,
4.46,-0.06,0.09,0.04,0.00,-0.00,0.00,
4.461,-0.06,0.09,0.04,0.00,-0.00,0.00,
4.461,-0.06,0.09,0.04,0.00,-0.00,0.00,
4.472,-0.06,0.09,0.04,0.00,-0.00,0.00,
4.473,-0.06,0.09,0.04,0.00,-0.00,0.00,
4.473,-0.06,0.09,0.03,0.00,-0.00,0.00,
4.474,-0.06,0.09,0.03,0.00,-0.00,0.00,
4.478,-0.06,0.09,0.03,0.00,-0.00,0.00,
4.479,-0.06,0.09,0.03,0.00,-0.00,0.00,
4.479,-0.05,0.09,0.03,0.00,-0.00,0.00,
4.48,-0.05,0.09,0.03,0.00,-0.00,0.00,
4.488,-0.05,0.09,0.03,-0.00,0.00,0.00,
4.489,-0.05,0.09,0.03,-0.00,0.00,0.00,
4.489,-0.05,0.09,0.03,-0.00,0.00,0.00,
4.489,-0.05,0.09,0.03,-0.00,0.00,0.00,
4.497,-0.05,0.09,0.03,0.00,0.00,-0.00,
4.498,-0.05,0.09,0.03,0.00,0.00,-0.00,
4.498,-0.05,0.09,0.02,0.00,0.00,-0.00,
4.499,-0.05,0.09,0.02,0.00,0.00,-0.00,
4.507,-0.05,0.09,0.02,-0.00,0.00,0.00,
4.508,-0.05,0.09,0.02,-0.00,0.00,0.00,
4.508,-0.04,0.09,0.02,-0.00,0.00,0.00,
4.509,-0.04,0.09,0.02,-0.00,0.00,0.00,
4.517,-0.04,0.09,0.02,0.00,-0.00,-0.00,
4.517,-0.04,0.09,0.02,0.00,-0.00,-0.00,
4.522,-0.04,0.09,0.01,0.00,-0.00,-0.00,
4.522,-0.04,0.09,0.01,0.00,-0.00,-0.00,
4.527,-0.04,0.09,0.01,-0.00,-0.00,-0.00,
4.527,-0.04,0.09,0.01,-0.00,-0.00,-0.00,
4.528,-0.04,0.09,0.01,-0.00,-0.00,-0.00,
4.528,-0.04,0.09,0.01,-0.00,-0.00,-0.00,
4.536,-0.04,0.09,0.01,-0.00,-0.00,-0.00,
4.537,-0.04,0.09,0.01,-0.00,-0.00,-0.00,
4.537,-0.04,0.09,0.01,-0.00,-0.00,-0.00,
4.537,-0.04,0.09,0.01,-0.00,-0.00,-0.00,
4.545,-0.04,0.09,0.01,0.00,0.00,-0.00,
4.546,-0.04,0.09,0.01,0.00,0.00,-0.00,
4.546,-0.03,0.08,0.01,0.00,0.00,-0.00,
4.547,-0.03,0.08,0.01,0.00,0.00,-0.00,
4.554,-0.03,0.08,0.01,-0.00,-0.00,0.00,
4.555,-0.03,0.08,0.01,-0.00,-0.00,0.00,
4.555,-0.03,0.08,0.01,-0.00,-0.00,0.00,
4.556,-0.03,0.08,0.01,-0.00,-0.00,0.00,
4.564,-0.03,0.08,0.01,0.00,-0.00,-0.00,
4.565,-0.03,0.08,0.01,0.00,-0.00,-0.00,
4.565,-0.03,0.08,0.00,0.00,-0.00,-0.00,
4.565,-0.03,0.08,0.00,0.00,-0.00,-0.00,
4.573,-0.03,0.08,0.00,0.00,-0.00,0.00,
4.574,-0.03,0.08,0.00,0.00,-0.00,0.00,
4.575,-0.02,0.08,0.00,0.00,-0.00,0.00,
4.575,-0.02,0.08,0.00,0.00,-0.00,0.00,
4.584,-0.02,0.08,0.00,-0.00,0.00,0.00,
4.585,-0.02,0.08,0.00,-0.00,0.00,0.00,
4.585,-0.02,0.08,0.00,-0.00,0.00,0.00,
4.586,-0.02,0.08,0.00,-0.00,0.00,0.00,
4.592,-0.02,0.08,0.00,-0.00,0.00,0.00,
4.593,-0.02,0.08,0.00,-0.00,0.00,0.00,
4.593,-0.02,0.08,-0.00,-0.00,0.00,0.00,
4.593,-0.02,0.08,-0.00,-0.00,0.00,0.00,
4.603,-0.02,0.08,-0.00,-0.00,0.00,-0.00,
4.604,-0.02,0.08,-0.00,-0.00,0.00,-0.00,
4.604,-0.01,0.08,-0.00,-0.00,0.00,-0.00,
4.604,-0.01,0.08,-0.00,-0.00,0.00,-0.00,
4.612,-0.01,0.08,-0.00,-0.00,-0.00,0.00,
4.613,-0.01,0.08,-0.00,-0.00,-0.00,0.00,
4.613,-0.01,0.08,-0.00,-0.00,-0.00,0.00,
4.613,-0.01,0.08,-0.00,-0.00,-0.00,0.00,
4.621,-0.01,0.08,-0.00,-0.00,0.00,-0.00,
4.622,-0.01,0.08,-0.00,-0.00,0.00,-0.00,
4.623,-0.01,0.08,-0.00,-0.00,0.00,-0.00,
4.623,-0.01,0.08,-0.00,-0.00,0.00,-0.00,
4.63,-0.01,0.08,-0.00,0.00,0.00,-0.00,
4.631,-0.01,0.08,-0.00,0.00,0.00,-0.00,
4.631,-0.00,0.08,-0.00,0.00,0.00,-0.00,
4.632,-0.00,0.08,-0.00,0.00,0.00,-0.00,
4.64,-0.00,0.08,-0.00,-0.00,-0.00,0.00,
4.641,-0.00,0.08,-0.00,-0.00,-0.00,0.00,
4.641,-0.00,0.08,-0.01,-0.00,-0.00,0.00,
4.642,-0.00,0.08,-0.01,-0.00,-0.00,0.00,
4.65,-0.00,0.08,-0.01,0.00,-0.00,-0.00,
4.65,-0.00,0.08,-0.01,0.00,-0.00,-0.00,
4.651,0.00,0.08,-0.01,0.00,-0.00,-0.00,
4.651,0.00,0.08,-0.01,0.00,-0.00,-0.00,
4.659,0.00,0.08,-0.01,-0.00,-0.00,0.00,
4.66,0.00,0.08,-0.01,-0.00,-0.00,0.00,
4.66,0.00,0.08,-0.01,-0.00,-0.00,0.00,
4.66,0.00,0.08,-0.01,-0.00,-0.00,0.00,
4.682,0.00,0.08,-0.01,0.00,-0.00,-0.00,
4.683,0.00,0.08,-0.01,0.00,-0.00,-0.00,
4.683,0.00,0.08,-0.01,0.00,-0.00,-0.00,
4.683,0.00,0.08,-0.01,0.00,-0.00,-0.00,
4.684,0.00,0.08,-0.01,0.00,-0.00,-0.00,
4.684,0.00,0.08,-0.01,0.00,-0.00,-0.00,
4.684,0.00,0.08,-0.01,0.00,-0.00,-0.00,
4.685,0.00,0.08,-0.01,0.00,-0.00,-0.00,
4.688,0.00,0.08,-0.01,0.00,-0.00,-0.00,
4.689,0.00,0.08,-0.01,0.00,-0.00,-0.00,
4.689,0.01,0.08,-0.01,0.00,-0.00,-0.00,
4.689,0.01,0.08,-0.01,0.00,-0.00,-0.00,
4.697,0.01,0.08,-0.01,0.00,-0.00,0.00,
4.698,0.01,0.08,-0.01,0.00,-0.00,0.00,
4.698,0.01,0.08,-0.01,0.00,-0.00,0.00,
4.698,0.01,0.08,-0.01,0.00,-0.00,0.00,
4.707,0.01,0.08,-0.01,-0.00,-0.00,-0.00,
4.708,0.01,0.08,-0.01,-0.00,-0.00,-0.00,
4.708,0.01,0.08,-0.01,-0.00,-0.00,-0.00,
4.708,0.01,0.08,-0.01,-0.00,-0.00,-0.00,
4.717,0.01,0.08,-0.01,-0.00,-0.00,0.00,
4.718,0.01,0.08,-0.01,-0.00,-0.00,0.00,
4.718,0.01,0.08,-0.01,-0.00,-0.00,0.00,
4.719,0.01,0.08,-0.01,-0.00,-0.00,0.00,
4.726,0.01,0.08,-0.01,-0.00,0.00,0.00,
4.727,0.01,0.08,-0.01,-0.00,0.00,0.00,
4.727,0.01,0.08,-0.01,-0.00,0.00,0.00,
4.728,0.01,0.08,-0.01,-0.00,0.00,0.00,
4.736,0.01,0.08,-0.01,-0.00,0.00,0.00,
4.737,0.01,0.08,-0.01,-0.00,0.00,0.00,
4.738,0.01,0.08,-0.01,-0.00,0.00,0.00,
4.739,0.01,0.08,-0.01,-0.00,0.00,0.00,
4.745,0.01,0.08,-0.01,-0.00,0.00,-0.00,
4.746,0.01,0.08,-0.01,-0.00,0.00,-0.00,
4.746,0.01,0.08,-0.01,-0.00,0.00,-0.00,
4.746,0.01,0.08,-0.01,-0.00,0.00,-0.00,
4.754,0.01,0.08,-0.01,-0.00,0.00,0.00,
4.755,0.01,0.08,-0.01,-0.00,0.00,0.00,
4.759,0.01,0.08,-0.01,-0.00,0.00,0.00,
4.76,0.01,0.08,-0.01,-0.00,0.00,0.00,
4.764,0.01,0.08,-0.01,-0.00,0.00,-0.00,
4.764,0.01,0.08,-0.01,-0.00,0.00,-0.00,
4.765,0.01,0.08,-0.01,-0.00,0.00,-0.00,
4.765,0.01,0.08,-0.01,-0.00,0.00,-0.00,
4.774,0.01,0.08,-0.01,0.00,0.00,0.00,
4.776,0.01,0.08,-0.01,0.00,0.00,0.00,
4.776,0.01,0.08,-0.01,0.00,0.00,0.00,
4.777,0.01,0.08,-0.01,0.00,0.00,0.00,
4.783,0.01,0.08,-0.01,0.00,0.00,0.00,
4.784,0.01,0.08,-0.01,0.00,0.00,0.00,
4.785,0.01,0.08,-0.01,0.00,0.00,0.00,
4.785,0.01,0.08,-0.01,0.00,0.00,0.00,
4.792,0.01,0.08,-0.01,-0.00,0.00,-0.00,
4.793,0.01,0.08,-0.01,-0.00,0.00,-0.00,
4.793,0.01,0.08,-0.01,-0.00,0.00,-0.00,
4.793,0.01,0.08,-0.01,-0.00,0.00,-0.00,
4.802,0.01,0.08,-0.01,-0.00,-0.00,0.00,
4.803,0.01,0.08,-0.01,-0.00,-0.00,0.00,
4.804,0.01,0.08,-0.01,-0.00,-0.00,0.00,
4.804,0.01,0.08,-0.01,-0.00,-0.00,0.00,
4.812,0.01,0.08,-0.01,0.00,0.00,0.00,
4.812,0.01,0.08,-0.01,0.00,0.00,0.00,
4.813,0.01,0.08,-0.01,0.00,0.00,0.00,
4.813,0.01,0.08,-0.01,0.00,0.00,0.00,
4.821,0.01,0.08,-0.01,-0.00,0.00,-0.00,
4.822,0.01,0.08,-0.01,-0.00,0.00,-0.00,
4.823,0.01,0.08,-0.01,-0.00,0.00,-0.00,
4.823,0.01,0.08,-0.01,-0.00,0.00,-0.00,
4.831,0.01,0.08,-0.01,0.00,0.00,0.00,
4.831,0.01,0.08,-0.01,0.00,0.00,0.00,
4.832,0.01,0.08,-0.01,0.00,0.00,0.00,
4.833,0.01,0.08,-0.01,0.00,0.00,0.00,
4.84,0.01,0.08,-0.01,0.00,-0.00,0.00,
4.841,0.01,0.08,-0.01,0.00,-0.00,0.00,
4.842,0.01,0.08,-0.01,0.00,-0.00,0.00,
4.842,0.01,0.08,-0.01,0.00,-0.00,0.00,
4.849,0.01,0.08,-0.01,-0.00,0.00,-0.00,
4.85,0.01,0.08,-0.01,-0.00,0.00,-0.00,
4.851,0.01,0.08,-0.01,-0.00,0.00,-0.00,
4.852,0.01,0.08,-0.01,-0.00,0.00,-0.00,
4.859,0.01,0.08,-0.01,0.00,-0.00,0.00,
4.86,0.01,0.08,-0.01,0.00,-0.00,0.00,
4.861,0.01,0.08,-0.01,0.00,-0.00,0.00,
4.862,0.01,0.08,-0.01,0.00,-0.00,0.00,
4.875,0.01,0.08,-0.01,0.00,-0.00,0.00,
4.876,0.01,0.08,-0.01,0.00,-0.00,0.00,
4.877,0.01,0.08,-0.01,0.00,-0.00,0.00,
4.878,0.01,0.08,-0.01,0.00,-0.00,0.00,
4.878,0.01,0.08,-0.01,-0.00,-0.00,-0.00,
4.879,0.01,0.08,-0.01,-0.00,-0.00,-0.00,
4.879,0.01,0.08,-0.01,-0.00,-0.00,-0.00,
4.88,0.01,0.08,-0.01,-0.00,-0.00,-0.00,
4.888,0.01,0.08,-0.01,0.00,-0.00,-0.00,
4.889,0.01,0.08,-0.01,0.00,-0.00,-0.00,
4.89,0.01,0.08,-0.01,0.00,-0.00,-0.00,
4.89,0.01,0.08,-0.01,0.00,-0.00,-0.00,
4.897,0.01,0.08,-0.01,-0.00,0.00,-0.00,
4.898,0.01,0.08,-0.01,-0.00,0.00,-0.00,
4.898,0.01,0.08,-0.01,-0.00,0.00,-0.00,
4.899,0.01,0.08,-0.01,-0.00,0.00,-0.00,
4.907,0.01,0.08,-0.01,0.00,0.00,0.00,
4.908,0.01,0.08,-0.01,0.00,0.00,0.00,
4.909,0.01,0.08,-0.01,0.00,0.00,0.00,
4.909,0.01,0.08,-0.01,0.00,0.00,0.00,
4.916,0.01,0.08,-0.01,0.00,0.00,-0.00,
4.917,0.01,0.08,-0.01,0.00,0.00,-0.00,
4.918,0.01,0.08,-0.01,0.00,0.00,-0.00,
4.919,0.01,0.08,-0.01,0.00,0.00,-0.00,
4.926,0.01,0.08,-0.01,0.00,0.00,-0.00,
4.928,0.01,0.08,-0.01,0.00,0.00,-0.00,
4.929,0.01,0.08,-0.01,0.00,0.00,-0.00,
4.93,0.01,0.08,-0.01,0.00,0.00,-0.00,
4.936,0.01,0.08,-0.01,-0.00,0.00,-0.00,
4.937,0.01,0.08,-0.01,-0.00,0.00,-0.00,
4.938,0.01,0.08,-0.01,-0.00,0.00,-0.00,
4.939,0.01,0.08,-0.01,-0.00,0.00,-0.00,
4.945,0.01,0.08,-0.01,-0.00,0.00,0.00,
4.946,0.01,0.08,-0.01,-0.00,0.00,0.00,
4.947,0.01,0.08,-0.01,-0.00,0.00,0.00,
4.947,0.01,0.08,-0.01,-0.00,0.00,0.00,
4.954,0.01,0.08,-0.01,0.00,0.00,-0.00,
4.955,0.01,0.08,-0.01,0.00,0.00,-0.00,
4.956,0.01,0.08,-0.01,0.00,0.00,-0.00,
4.956,0.01,0.08,-0.01,0.00,0.00,-0.00,
4.964,0.01,0.08,-0.01,0.00,-0.00,0.00,
4.965,0.01,0.08,-0.01,0.00,-0.00,0.00,
4.965,0.01,0.08,-0.01,0.00,-0.00,0.00,
4.966,0.01,0.08,-0.01,0.00,-0.00,0.00,
4.976,0.01,0.08,-0.01,0.00,0.00,-0.00,
4.977,0.01,0.08,-0.01,0.00,0.00,-0.00,
4.978,0.01,0.08,-0.01,0.00,0.00,-0.00,
4.978,0.01,0.08,-0.01,0.00,0.00,-0.00,
4.984,0.01,0.08,-0.01,0.00,0.00,0.00,
4.985,0.01,0.08,-0.01,0.00,0.00,0.00,
4.985,0.01,0.08,-0.01,0.00,0.00,0.00,
4.986,0.01,0.08,-0.01,0.00,0.00,0.00,
4.992,0.01,0.08,-0.01,-0.00,-0.00,-0.00,
4.993,0.01,0.08,-0.01,-0.00,-0.00,-0.00,
4.998,0.01,0.08,-0.01,-0.00,-0.00,-0.00,
4.999,0.01,0.08,-0.01,-0.00,-0.00,-0.00,
5.003,0.01,0.08,-0.01,0.00,0.00,0.00,
5.004,0.01,0.08,-0.01,0.00,0.00,0.00,
5.005,0.01,0.08,-0.01,0.00,0.00,0.00,
5.005,0.01,0.08,-0.01,0.00,0.00,0.00,
5.012,0.01,0.08,-0.01,0.00,-0.00,-0.00,
5.013,0.01,0.08,-0.01,0.00,-0.00,-0.00,
5.014,0.01,0.08,-0.01,0.00,-0.00,-0.00,
5.014,0.01,0.08,-0.01,0.00,-0.00,-0.00,
5.021,0.01,0.08,-0.01,-0.00,-0.00,0.00,
5.022,0.01,0.08,-0.01,-0.00,-0.00,0.00,
5.023,0.01,0.08,-0.01,-0.00,-0.00,0.00,
5.023,0.01,0.08,-0.01,-0.00,-0.00,0.00,
5.031,0.01,0.08,-0.01,0.00,0.00,-0.00,
5.032,0.01,0.08,-0.01,0.00,0.00,-0.00,
5.033,0.01,0.08,-0.01,0.00,0.00,-0.00,
5.034,0.01,0.08,-0.01,0.00,0.00,-0.00,
5.041,0.01,0.08,-0.01,-0.00,0.00,-0.00,
5.043,0.01,0.08,-0.01,-0.00,0.00,-0.00,
5.044,0.01,0.08,-0.01,-0.00,0.00,-0.00,
5.045,0.01,0.08,-0.01,-0.00,0.00,-0.00,
5.049,0.01,0.08,-0.01,-0.00,-0.00,-0.00,
5.05,0.01,0.08,-0.01,-0.00,-0.00,-0.00,
5.05,0.01,0.08,-0.01,-0.00,-0.00,-0.00,
5.051,0.01,0.08,-0.01,-0.00,-0.00,-0.00,
5.059,0.01,0.08,-0.01,-0.00,-0.00,0.00,
5.06,0.01,0.08,-0.01,-0.00,-0.00,0.00,
5.061,0.01,0.08,-0.01,-0.00,-0.00,0.00,
5.061,0.01,0.08,-0.01,-0.00,-0.00,0.00,
5.073,0.01,0.08,-0.01,-0.00,-0.00,0.00,
5.074,0.01,0.08,-0.01,-0.00,-0.00,0.00,
5.075,0.01,0.08,-0.01,-0.00,-0.00,0.00,
5.075,0.01,0.08,-0.01,-0.00,-0.00,0.00,
5.081,0.01,0.08,-0.01,-0.00,-0.00,-0.00,
5.082,0.01,0.08,-0.01,-0.00,-0.00,-0.00,
5.082,0.01,0.08,-0.01,-0.00,-0.00,-0.00,
5.082,0.01,0.08,-0.01,-0.00,-0.00,-0.00,
5.088,0.01,0.08,-0.01,-0.00,-0.00,0.00,
5.089,0.01,0.08,-0.01,-0.00,-0.00,0.00,
5.09,0.01,0.08,-0.01,-0.00,-0.00,0.00,
5.09,0.01,0.08,-0.01,-0.00,-0.00,0.00,
5.097,0.01,0.08,-0.01,-0.00,-0.00,-0.00,
5.099,0.01,0.08,-0.01,-0.00,-0.00,-0.00,
5.099,0.01,0.08,-0.01,-0.00,-0.00,-0.00,
5.1,0.01,0.08,-0.01,-0.00,-0.00,-0.00,
5.108,0.01,0.08,-0.01,-0.00,0.00,-0.00,
5.109,0.01,0.08,-0.01,-0.00,0.00,-0.00,
5.11,0.01,0.08,-0.01,-0.00,0.00,-0.00,
5.111,0.01,0.08,-0.01,-0.00,0.00,-0.00,
5.116,0.01,0.08,-0.01,0.00,0.00,0.00,
5.117,0.01,0.08,-0.01,0.00,0.00,0.00,
5.118,0.01,0.08,-0.01,0.00,0.00,0.00,
5.119,0.01,0.08,-0.01,0.00,0.00,0.00,
5.125,0.01,0.08,-0.01,0.00,0.00,0.00,
5.127,0.01,0.08,-0.01,0.00,0.00,0.00,
5.128,0.01,0.08,-0.01,0.00,0.00,0.00,
5.128,0.01,0.08,-0.01,0.00,0.00,0.00,
5.137,0.01,0.08,-0.01,0.00,-0.00,0.00,
5.138,0.01,0.08,-0.01,0.00,-0.00,0.00,
5.139,0.01,0.08,-0.01,0.00,-0.00,0.00,
5.14,0.01,0.08,-0.01,0.00,-0.00,0.00,
5.145,0.01,0.08,-0.01,0.00,0.00,-0.00,
5.145,0.01,0.08,-0.01,0.00,0.00,-0.00,
5.146,0.01,0.08,-0.01,0.00,0.00,-0.00,
5.147,0.01,0.08,-0.01,0.00,0.00,-0.00,
5.155,0.01,0.08,-0.01,-0.00,-0.00,0.00,
5.156,0.01,0.08,-0.01,-0.00,-0.00,0.00,
5.156,0.01,0.08,-0.01,-0.00,-0.00,0.00,
5.157,0.01,0.08,-0.01,-0.00,-0.00,0.00,
5.164,0.01,0.08,-0.01,0.00,-0.00,0.00,
5.164,0.01,0.08,-0.01,0.00,-0.00,0.00,
5.165,0.01,0.08,-0.01,0.00,-0.00,0.00,
5.165,0.01,0.08,-0.01,0.00,-0.00,0.00,
5.175,0.01,0.08,-0.01,0.00,-0.00,-0.00,
5.176,0.01,0.08,-0.01,0.00,-0.00,-0.00,
5.177,0.01,0.08,-0.01,0.00,-0.00,-0.00,
5.178,0.01,0.08,-0.01,0.00,-0.00,-0.00,
5.187,0.01,0.08,-0.01,-0.00,-0.00,0.00,
5.188,0.01,0.08,-0.01,-0.00,-0.00,0.00,
5.189,0.01,0.08,-0.01,-0.00,-0.00,0.00,
5.189,0.01,0.08,-0.01,-0.00,-0.00,0.00,
5.192,0.01,0.08,-0.01,-0.00,0.00,0.00,
5.193,0.01,0.08,-0.01,-0.00,0.00,0.00,
5.193,0.01,0.08,-0.01,-0.00,0.00,0.00,
5.193,0.01,0.08,-0.01,-0.00,0.00,0.00,
5.203,0.01,0.08,-0.01,0.00,-0.00,0.00,
5.204,0.01,0.08,-0.01,0.00,-0.00,0.00,
5.204,0.01,0.08,-0.01,0.00,-0.00,0.00,
5.205,0.01,0.08,-0.01,0.00,-0.00,0.00,
5.212,0.01,0.08,-0.01,0.00,-0.00,0.00,
5.213,0.01,0.08,-0.01,0.00,-0.00,0.00,
5.214,0.01,0.08,-0.01,0.00,-0.00,0.00,
5.215,0.01,0.08,-0.01,0.00,-0.00,0.00,
5.221,0.01,0.08,-0.01,-0.00,-0.00,0.00,
5.223,0.01,0.08,-0.01,-0.00,-0.00,0.00,
5.224,0.01,0.08,-0.01,-0.00,-0.00,0.00,
5.224,0.01,0.08,-0.01,-0.00,-0.00,0.00,
5.23,0.01,0.08,-0.01,-0.00,0.00,-0.00,
5.231,0.01,0.08,-0.01,-0.00,0.00,-0.00,
5.238,0.01,0.08,-0.01,-0.00,0.00,-0.00,
5.239,0.01,0.08,-0.01,-0.00,0.00,-0.00,
5.24,0.01,0.08,-0.01,0.00,0.00,0.00,
5.242,0.01,0.08,-0.01,0.00,0.00,0.00,
5.243,0.01,0.08,-0.01,0.00,0.00,0.00,
5.245,0.01,0.08,-0.01,0.00,0.00,0.00,
5.251,0.01,0.08,-0.01,0.00,0.00,-0.00,
5.252,0.01,0.08,-0.01,0.00,0.00,-0.00,
5.253,0.01,0.08,-0.01,0.00,0.00,-0.00,
5.253,0.01,0.08,-0.01,0.00,0.00,-0.00,
5.259,0.01,0.08,-0.01,0.00,-0.00,-0.00,
5.259,0.01,0.08,-0.01,0.00,-0.00,-0.00,
5.259,0.01,0.08,-0.01,0.00,-0.00,-0.00,
5.26,0.01,0.08,-0.01,0.00,-0.00,-0.00,
5.268,0.01,0.08,-0.01,0.00,-0.00,-0.00,
5.269,0.01,0.08,-0.01,0.00,-0.00,-0.00,
5.269,0.01,0.08,-0.01,0.00,-0.00,-0.00,
5.27,0.01,0.08,-0.01,0.00,-0.00,-0.00,
5.278,0.01,0.08,-0.01,0.00,0.00,0.00,
5.278,0.01,0.08,-0.01,0.00,0.00,0.00,
5.279,0.01,0.08,-0.01,0.00,0.00,0.00,
5.279,0.01,0.08,-0.01,0.00,0.00,0.00,
5.289,0.01,0.08,-0.01,0.00,0.00,-0.00,
5.29,0.01,0.08,-0.01,0.00,0.00,-0.00,
5.29,0.01,0.08,-0.01,0.00,0.00,-0.00,
5.29,0.01,0.08,-0.01,0.00,0.00,-0.00,
5.296,0.01,0.08,-0.01,0.00,-0.00,-0.00,
5.297,0.01,0.08,-0.01,0.00,-0.00,-0.00,
5.297,-0.09,0.15,0.26,0.00,-0.00,-0.00,
5.298,-0.09,0.15,0.26,0.00,-0.00,-0.00,
5.306,-0.09,0.15,0.26,-0.00,-0.00,-0.00,
5.307,-0.09,0.15,0.26,-0.00,-0.00,-0.00,
5.308,-0.15,0.17,0.27,-0.00,-0.00,-0.00,
5.308,-0.15,0.17,0.27,-0.00,-0.00,-0.00,
5.316,-0.15,0.17,0.27,0.00,0.00,0.00,
5.317,-0.15,0.17,0.27,0.00,0.00,0.00,
5.317,-0.17,0.18,0.26,0.00,0.00,0.00,
5.318,-0.17,0.18,0.26,0.00,0.00,0.00,
5.326,-0.17,0.18,0.26,0.00,0.00,0.00,
5.327,-0.17,0.18,0.26,0.00,0.00,0.00,
5.328,-0.17,0.18,0.26,0.00,0.00,0.00,
5.329,-0.17,0.18,0.26,0.00,0.00,0.00,
5.336,-0.17,0.18,0.26,0.00,0.00,0.00,
5.337,-0.17,0.18,0.26,0.00,0.00,0.00,
5.337,-0.21,0.14,0.24,0.00,0.00,0.00,
5.338,-0.21,0.14,0.24,0.00,0.00,0.00,
5.345,-0.21,0.14,0.24,0.00,-0.00,0.00,
5.346,-0.21,0.14,0.24,0.00,-0.00,0.00,
5.347,-0.21,0.15,0.23,0.00,-0.00,0.00,
5.348,-0.21,0.15,0.23,0.00,-0.00,0.00,
5.355,-0.21,0.15,0.23,0.00,-0.00,0.00,
5.356,-0.21,0.15,0.23,0.00,-0.00,0.00,
5.357,-0.25,0.17,0.25,0.00,-0.00,0.00,
5.357,-0.25,0.17,0.25,0.00,-0.00,0.00,
5.364,-0.25,0.17,0.25,0.00,-0.00,-0.00,
5.365,-0.25,0.17,0.25,0.00,-0.00,-0.00,
5.366,-0.30,0.20,0.31,0.00,-0.00,-0.00,
5.367,-0.30,0.20,0.31,0.00,-0.00,-0.00,
5.379,-0.30,0.20,0.31,-0.00,0.00,-0.00,
5.38,-0.30,0.20,0.31,-0.00,0.00,-0.00,
5.38,-0.33,0.20,0.36,-0.00,0.00,-0.00,
5.381,-0.33,0.20,0.36,-0.00,0.00,-0.00,
5.383,-0.33,0.20,0.36,-0.00,0.00,0.00,
5.384,-0.33,0.20,0.36,-0.00,0.00,0.00,
5.384,-0.36,0.18,0.40,-0.00,0.00,0.00,
5.385,-0.36,0.18,0.40,-0.00,0.00,0.00,
5.395,-0.36,0.18,0.40,0.00,0.00,0.00,
5.396,-0.36,0.18,0.40,0.00,0.00,0.00,
5.396,-0.38,0.16,0.40,0.00,0.00,0.00,
5.397,-0.38,0.16,0.40,0.00,0.00,0.00,
5.403,-0.38,0.16,0.40,0.20,-0.33,0.28,
5.404,-0.38,0.16,0.40,0.20,-0.33,0.28,
5.404,-0.38,0.15,0.39,0.20,-0.33,0.28,
5.405,-0.38,0.15,0.39,0.20,-0.33,0.28,
5.411,-0.38,0.15,0.39,0.21,-0.33,0.29,
5.412,-0.38,0.15,0.39,0.21,-0.33,0.29,
5.413,-0.38,0.18,0.36,0.21,-0.33,0.29,
5.413,-0.38,0.18,0.36,0.21,-0.33,0.29,
5.421,-0.38,0.18,0.36,0.21,-0.31,0.30,
5.423,-0.38,0.18,0.36,0.21,-0.31,0.30,
5.424,-0.37,0.21,0.32,0.21,-0.31,0.30,
5.424,-0.37,0.21,0.32,0.21,-0.31,0.30,
5.43,-0.37,0.21,0.32,0.20,-0.28,0.29,
5.432,-0.37,0.21,0.32,0.20,-0.28,0.29,
5.432,-0.37,0.26,0.30,0.20,-0.28,0.29,
5.433,-0.37,0.26,0.30,0.20,-0.28,0.29,
5.44,-0.37,0.26,0.30,0.18,-0.25,0.27,
5.441,-0.37,0.26,0.30,0.18,-0.25,0.27,
5.442,-0.38,0.31,0.27,0.18,-0.25,0.27,
5.443,-0.38,0.31,0.27,0.18,-0.25,0.27,
5.45,-0.38,0.31,0.27,0.15,-0.21,0.25,
5.45,-0.38,0.31,0.27,0.15,-0.21,0.25,
5.451,-0.42,0.33,0.22,0.15,-0.21,0.25,
5.452,-0.42,0.33,0.22,0.15,-0.21,0.25,
5.459,-0.42,0.33,0.22,0.12,-0.16,0.23,
5.46,-0.42,0.33,0.22,0.12,-0.16,0.23,
5.461,-0.45,0.31,0.16,0.12,-0.16,0.23,
5.462,-0.45,0.31,0.16,0.12,-0.16,0.23,
5.475,-0.45,0.31,0.16,0.09,-0.13,0.22,
5.476,-0.45,0.31,0.16,0.09,-0.13,0.22,
5.482,-0.43,0.30,0.10,0.09,-0.13,0.22,
5.483,-0.43,0.30,0.10,0.09,-0.13,0.22,
5.483,-0.43,0.30,0.10,0.05,-0.10,0.21,
5.484,-0.43,0.30,0.10,0.05,-0.10,0.21,
5.484,-0.41,0.34,0.03,0.05,-0.10,0.21,
5.485,-0.41,0.34,0.03,0.05,-0.10,0.21,
5.495,-0.41,0.34,0.03,0.00,-0.07,0.21,
5.496,-0.41,0.34,0.03,0.00,-0.07,0.21,
5.496,-0.35,0.36,-0.02,0.00,-0.07,0.21,
5.496,-0.35,0.36,-0.02,0.00,-0.07,0.21,
5.496,-0.35,0.36,-0.02,-0.05,-0.04,0.19,
5.497,-0.35,0.36,-0.02,-0.05,-0.04,0.19,
5.497,-0.30,0.39,-0.01,-0.05,-0.04,0.19,
5.497,-0.30,0.39,-0.01,-0.05,-0.04,0.19,
5.508,-0.30,0.39,-0.01,-0.09,-0.00,0.17,
5.509,-0.30,0.39,-0.01,-0.09,-0.00,0.17,
5.509,-0.26,0.40,-0.02,-0.09,-0.00,0.17,
5.509,-0.26,0.40,-0.02,-0.09,-0.00,0.17,
5.517,-0.26,0.40,-0.02,-0.12,0.04,0.14,
5.518,-0.26,0.40,-0.02,-0.12,0.04,0.14,
5.519,-0.23,0.34,-0.06,-0.12,0.04,0.14,
5.519,-0.23,0.34,-0.06,-0.12,0.04,0.14,
5.525,-0.23,0.34,-0.06,-0.12,0.04,0.14,
5.527,-0.23,0.34,-0.06,-0.12,0.04,0.14,
5.527,-0.23,0.34,-0.06,-0.12,0.04,0.14,
5.528,-0.23,0.34,-0.06,-0.12,0.04,0.14,
5.536,-0.23,0.34,-0.06,-0.14,0.07,0.10,
5.537,-0.23,0.34,-0.06,-0.14,0.07,0.10,
5.537,-0.15,0.25,-0.12,-0.14,0.07,0.10,
5.538,-0.15,0.25,-0.12,-0.14,0.07,0.10,
5.545,-0.15,0.25,-0.12,-0.15,0.10,0.05,
5.546,-0.15,0.25,-0.12,-0.15,0.10,0.05,
5.547,-0.05,0.21,-0.19,-0.15,0.10,0.05,
5.548,-0.05,0.21,-0.19,-0.15,0.10,0.05,
5.554,-0.05,0.21,-0.19,-0.17,0.12,0.00,
5.556,-0.05,0.21,-0.19,-0.17,0.12,0.00,
5.556,0.06,0.22,-0.24,-0.17,0.12,0.00,
5.558,0.06,0.22,-0.24,-0.17,0.12,0.00,
5.567,0.06,0.22,-0.24,-0.19,0.12,-0.05,
5.567,0.06,0.22,-0.24,-0.19,0.12,-0.05,
5.568,0.17,0.27,-0.28,-0.19,0.12,-0.05,
5.568,0.17,0.27,-0.28,-0.19,0.12,-0.05,
5.576,0.17,0.27,-0.28,-0.22,0.08,-0.11,
5.577,0.17,0.27,-0.28,-0.22,0.08,-0.11,
5.577,0.30,0.30,-0.34,-0.22,0.08,-0.11,
5.577,0.30,0.30,-0.34,-0.22,0.08,-0.11,
5.583,0.30,0.30,-0.34,-0.25,0.02,-0.18,
5.583,0.30,0.30,-0.34,-0.25,0.02,-0.18,
5.584,0.34,0.33,-0.38,-0.25,0.02,-0.18,
5.584,0.34,0.33,-0.38,-0.25,0.02,-0.18,
5.594,0.34,0.33,-0.38,-0.28,-0.02,-0.26,
5.595,0.34,0.33,-0.38,-0.28,-0.02,-0.26,
5.595,0.36,0.32,-0.42,-0.28,-0.02,-0.26,
5.595,0.36,0.32,-0.42,-0.28,-0.02,-0.26,
5.602,0.36,0.32,-0.42,-0.30,-0.06,-0.32,
5.603,0.36,0.32,-0.42,-0.30,-0.06,-0.32,
5.603,0.33,0.25,-0.45,-0.30,-0.06,-0.32,
5.603,0.33,0.25,-0.45,-0.30,-0.06,-0.32,
5.612,0.33,0.25,-0.45,-0.32,-0.09,-0.37,
5.613,0.33,0.25,-0.45,-0.32,-0.09,-0.37,
5.613,0.23,0.15,-0.47,-0.32,-0.09,-0.37,
5.614,0.23,0.15,-0.47,-0.32,-0.09,-0.37,
5.621,0.23,0.15,-0.47,-0.33,-0.10,-0.39,
5.622,0.23,0.15,-0.47,-0.33,-0.10,-0.39,
5.623,0.12,0.04,-0.50,-0.33,-0.10,-0.39,
5.623,0.12,0.04,-0.50,-0.33,-0.10,-0.39,
5.631,0.12,0.04,-0.50,-0.34,-0.09,-0.38,
5.632,0.12,0.04,-0.50,-0.34,-0.09,-0.38,
5.632,0.05,-0.05,-0.54,-0.34,-0.09,-0.38,
5.633,0.05,-0.05,-0.54,-0.34,-0.09,-0.38,
5.64,0.05,-0.05,-0.54,-0.34,-0.03,-0.33,
5.641,0.05,-0.05,-0.54,-0.34,-0.03,-0.33,
5.642,-0.05,-0.10,-0.63,-0.34,-0.03,-0.33,
5.643,-0.05,-0.10,-0.63,-0.34,-0.03,-0.33,
5.649,-0.05,-0.10,-0.63,-0.33,0.06,-0.26,
5.65,-0.05,-0.10,-0.63,-0.33,0.06,-0.26,
5.65,-0.12,-0.15,-0.77,-0.33,0.06,-0.26,
5.651,-0.12,-0.15,-0.77,-0.33,0.06,-0.26,
5.659,-0.12,-0.15,-0.77,-0.34,0.17,-0.17,
5.66,-0.12,-0.15,-0.77,-0.34,0.17,-0.17,
5.66,-0.15,-0.21,-0.93,-0.34,0.17,-0.17,
5.661,-0.15,-0.21,-0.93,-0.34,0.17,-0.17,
5.681,-0.15,-0.21,-0.93,-0.36,0.28,-0.08,
5.682,-0.15,-0.21,-0.93,-0.36,0.28,-0.08,
5.683,-0.15,-0.26,-1.11,-0.36,0.28,-0.08,
5.683,-0.15,-0.26,-1.11,-0.36,0.28,-0.08,
5.684,-0.15,-0.26,-1.11,-0.40,0.41,0.00,
5.684,-0.15,-0.26,-1.11,-0.40,0.41,0.00,
5.685,-0.07,-0.29,-1.26,-0.40,0.41,0.00,
5.685,-0.07,-0.29,-1.26,-0.40,0.41,0.00,
5.69,-0.07,-0.29,-1.26,-0.46,0.55,0.07,
5.69,-0.07,-0.29,-1.26,-0.46,0.55,0.07,
5.691,0.08,-0.34,-1.37,-0.46,0.55,0.07,
5.691,0.08,-0.34,-1.37,-0.46,0.55,0.07,
5.697,0.08,-0.34,-1.37,-0.53,0.69,0.10,
5.697,0.08,-0.34,-1.37,-0.53,0.69,0.10,
5.698,0.23,-0.37,-1.45,-0.53,0.69,0.10,
5.698,0.23,-0.37,-1.45,-0.53,0.69,0.10,
5.707,0.23,-0.37,-1.45,-0.53,0.69,0.10,
5.708,0.23,-0.37,-1.45,-0.53,0.69,0.10,
5.715,0.23,-0.37,-1.45,-0.53,0.69,0.10,
5.715,0.23,-0.37,-1.45,-0.53,0.69,0.10,
5.716,0.23,-0.37,-1.45,-0.61,0.82,0.09,
5.716,0.23,-0.37,-1.45,-0.61,0.82,0.09,
5.716,0.48,-0.44,-1.56,-0.61,0.82,0.09,
5.717,0.48,-0.44,-1.56,-0.61,0.82,0.09,
5.725,0.48,-0.44,-1.56,-0.67,0.93,0.03,
5.726,0.48,-0.44,-1.56,-0.67,0.93,0.03,
5.727,0.54,-0.44,-1.59,-0.67,0.93,0.03,
5.727,0.54,-0.44,-1.59,-0.67,0.93,0.03,
5.735,0.54,-0.44,-1.59,-0.72,1.02,-0.06,
5.736,0.54,-0.44,-1.59,-0.72,1.02,-0.06,
5.736,0.59,-0.44,-1.63,-0.72,1.02,-0.06,
5.736,0.59,-0.44,-1.63,-0.72,1.02,-0.06,
5.745,0.59,-0.44,-1.63,-0.75,1.08,-0.17,
5.745,0.59,-0.44,-1.63,-0.75,1.08,-0.17,
5.746,0.60,-0.41,-1.63,-0.75,1.08,-0.17,
5.746,0.60,-0.41,-1.63,-0.75,1.08,-0.17,
5.754,0.60,-0.41,-1.63,-0.77,1.11,-0.27,
5.755,0.60,-0.41,-1.63,-0.77,1.11,-0.27,
5.755,0.58,-0.38,-1.61,-0.77,1.11,-0.27,
5.755,0.58,-0.38,-1.61,-0.77,1.11,-0.27,
5.764,0.58,-0.38,-1.61,-0.76,1.15,-0.34,
5.765,0.58,-0.38,-1.61,-0.76,1.15,-0.34,
5.765,0.55,-0.32,-1.60,-0.76,1.15,-0.34,
5.766,0.55,-0.32,-1.60,-0.76,1.15,-0.34,
5.773,0.55,-0.32,-1.60,-0.72,1.21,-0.37,
5.774,0.55,-0.32,-1.60,-0.72,1.21,-0.37,
5.775,0.54,-0.26,-1.58,-0.72,1.21,-0.37,
5.775,0.54,-0.26,-1.58,-0.72,1.21,-0.37,
5.783,0.54,-0.26,-1.58,-0.68,1.25,-0.37,
5.784,0.54,-0.26,-1.58,-0.68,1.25,-0.37,
5.784,0.55,-0.18,-1.61,-0.68,1.25,-0.37,
5.785,0.55,-0.18,-1.61,-0.68,1.25,-0.37,
5.793,0.55,-0.18,-1.61,-0.63,1.23,-0.36,
5.793,0.55,-0.18,-1.61,-0.63,1.23,-0.36,
5.794,0.61,-0.08,-1.65,-0.63,1.23,-0.36,
5.794,0.61,-0.08,-1.65,-0.63,1.23,-0.36,
5.802,0.61,-0.08,-1.65,-0.58,1.19,-0.33,
5.803,0.61,-0.08,-1.65,-0.58,1.19,-0.33,
5.803,0.72,0.04,-1.73,-0.58,1.19,-0.33,
5.804,0.72,0.04,-1.73,-0.58,1.19,-0.33,
5.812,0.72,0.04,-1.73,-0.54,1.17,-0.30,
5.812,0.72,0.04,-1.73,-0.54,1.17,-0.30,
5.813,0.85,0.15,-1.83,-0.54,1.17,-0.30,
5.813,0.85,0.15,-1.83,-0.54,1.17,-0.30,
5.821,0.85,0.15,-1.83,-0.52,1.19,-0.30,
5.822,0.85,0.15,-1.83,-0.52,1.19,-0.30,
5.822,0.99,0.26,-1.86,-0.52,1.19,-0.30,
5.823,0.99,0.26,-1.86,-0.52,1.19,-0.30,
5.831,0.99,0.26,-1.86,-0.52,1.22,-0.31,
5.831,0.99,0.26,-1.86,-0.52,1.22,-0.31,
5.832,1.13,0.30,-1.86,-0.52,1.22,-0.31,
5.833,1.13,0.30,-1.86,-0.52,1.22,-0.31,
5.84,1.13,0.30,-1.86,-0.54,1.26,-0.36,
5.841,1.13,0.30,-1.86,-0.54,1.26,-0.36,
5.842,1.28,0.30,-1.82,-0.54,1.26,-0.36,
5.842,1.28,0.30,-1.82,-0.54,1.26,-0.36,
5.849,1.28,0.30,-1.82,-0.57,1.29,-0.43,
5.85,1.28,0.30,-1.82,-0.57,1.29,-0.43,
5.85,1.39,0.24,-1.71,-0.57,1.29,-0.43,
5.851,1.39,0.24,-1.71,-0.57,1.29,-0.43,
5.859,1.39,0.24,-1.71,-0.58,1.31,-0.51,
5.86,1.39,0.24,-1.71,-0.58,1.31,-0.51,
5.86,1.49,0.16,-1.60,-0.58,1.31,-0.51,
5.861,1.49,0.16,-1.60,-0.58,1.31,-0.51,
5.871,1.49,0.16,-1.60,-0.57,1.30,-0.61,
5.872,1.49,0.16,-1.60,-0.57,1.30,-0.61,
5.872,1.57,0.06,-1.52,-0.57,1.30,-0.61,
5.873,1.57,0.06,-1.52,-0.57,1.30,-0.61,
5.878,1.57,0.06,-1.52,-0.54,1.26,-0.70,
5.878,1.57,0.06,-1.52,-0.54,1.26,-0.70,
5.879,1.63,-0.04,-1.50,-0.54,1.26,-0.70,
5.879,1.63,-0.04,-1.50,-0.54,1.26,-0.70,
5.889,1.63,-0.04,-1.50,-0.48,1.20,-0.77,
5.89,1.63,-0.04,-1.50,-0.48,1.20,-0.77,
5.89,1.72,-0.17,-1.54,-0.48,1.20,-0.77,
5.891,1.72,-0.17,-1.54,-0.48,1.20,-0.77,
5.896,1.72,-0.17,-1.54,-0.43,1.14,-0.83,
5.897,1.72,-0.17,-1.54,-0.43,1.14,-0.83,
5.897,1.80,-0.33,-1.66,-0.43,1.14,-0.83,
5.898,1.80,-0.33,-1.66,-0.43,1.14,-0.83,
5.908,1.80,-0.33,-1.66,-0.39,1.12,-0.87,
5.909,1.80,-0.33,-1.66,-0.39,1.12,-0.87,
5.91,1.87,-0.44,-1.78,-0.39,1.12,-0.87,
5.91,1.87,-0.44,-1.78,-0.39,1.12,-0.87,
5.916,1.87,-0.44,-1.78,-0.39,1.12,-0.87,
5.917,1.87,-0.44,-1.78,-0.39,1.12,-0.87,
5.917,1.87,-0.44,-1.78,-0.39,1.12,-0.87,
5.918,1.87,-0.44,-1.78,-0.39,1.12,-0.87,
5.925,1.87,-0.44,-1.78,-0.39,1.15,-0.78,
5.926,1.87,-0.44,-1.78,-0.39,1.15,-0.78,
5.927,2.14,-0.38,-2.01,-0.39,1.15,-0.78,
5.927,2.14,-0.38,-2.01,-0.39,1.15,-0.78,
5.935,2.14,-0.38,-2.01,-0.43,1.23,-0.71,
5.935,2.14,-0.38,-2.01,-0.43,1.23,-0.71,
5.936,2.31,-0.14,-1.94,-0.43,1.23,-0.71,
5.936,2.31,-0.14,-1.94,-0.43,1.23,-0.71,
5.945,2.31,-0.14,-1.94,-0.51,1.34,-0.76,
5.946,2.31,-0.14,-1.94,-0.51,1.34,-0.76,
5.951,2.45,0.17,-1.75,-0.51,1.34,-0.76,
5.952,2.45,0.17,-1.75,-0.51,1.34,-0.76,
5.954,2.45,0.17,-1.75,-0.60,1.44,-0.82,
5.955,2.45,0.17,-1.75,-0.60,1.44,-0.82,
5.956,2.52,0.48,-1.43,-0.60,1.44,-0.82,
5.956,2.52,0.48,-1.43,-0.60,1.44,-0.82,
5.964,2.52,0.48,-1.43,-0.66,1.51,-0.90,
5.964,2.52,0.48,-1.43,-0.66,1.51,-0.90,
5.964,2.45,0.77,-0.98,-0.66,1.51,-0.90,
5.965,2.45,0.77,-0.98,-0.66,1.51,-0.90,
5.973,2.45,0.77,-0.98,-0.65,1.53,-0.98,
5.974,2.45,0.77,-0.98,-0.65,1.53,-0.98,
5.974,2.29,1.03,-0.58,-0.65,1.53,-0.98,
5.975,2.29,1.03,-0.58,-0.65,1.53,-0.98,
5.983,2.29,1.03,-0.58,-0.55,1.50,-1.03,
5.984,2.29,1.03,-0.58,-0.55,1.50,-1.03,
5.984,2.04,1.18,-0.29,-0.55,1.50,-1.03,
5.984,2.04,1.18,-0.29,-0.55,1.50,-1.03,
5.993,2.04,1.18,-0.29,-0.36,1.42,-1.03,
5.994,2.04,1.18,-0.29,-0.36,1.42,-1.03,
5.994,1.72,1.27,-0.16,-0.36,1.42,-1.03,
5.995,1.72,1.27,-0.16,-0.36,1.42,-1.03,
6.003,1.72,1.27,-0.16,-0.13,1.30,-0.98,
6.004,1.72,1.27,-0.16,-0.13,1.30,-0.98,
6.005,1.39,1.28,-0.21,-0.13,1.30,-0.98,
6.005,1.39,1.28,-0.21,-0.13,1.30,-0.98,
6.011,1.39,1.28,-0.21,0.11,1.16,-0.85,
6.011,1.39,1.28,-0.21,0.11,1.16,-0.85,
6.012,1.06,1.21,-0.39,0.11,1.16,-0.85,
6.012,1.06,1.21,-0.39,0.11,1.16,-0.85,
6.021,1.06,1.21,-0.39,0.27,1.07,-0.64,
6.022,1.06,1.21,-0.39,0.27,1.07,-0.64,
6.022,0.77,1.16,-0.63,0.27,1.07,-0.64,
6.022,0.77,1.16,-0.63,0.27,1.07,-0.64,
6.03,0.77,1.16,-0.63,0.33,1.08,-0.45,
6.031,0.77,1.16,-0.63,0.33,1.08,-0.45,
6.031,0.52,1.12,-0.81,0.33,1.08,-0.45,
6.032,0.52,1.12,-0.81,0.33,1.08,-0.45,
6.04,0.52,1.12,-0.81,0.27,1.22,-0.31,
6.041,0.52,1.12,-0.81,0.27,1.22,-0.31,
6.041,0.31,1.11,-0.87,0.27,1.22,-0.31,
6.042,0.31,1.11,-0.87,0.27,1.22,-0.31,
6.052,0.31,1.11,-0.87,0.11,1.45,-0.20,
6.053,0.31,1.11,-0.87,0.11,1.45,-0.20,
6.054,0.16,1.15,-0.82,0.11,1.45,-0.20,
6.055,0.16,1.15,-0.82,0.11,1.45,-0.20,
6.058,0.16,1.15,-0.82,-0.08,1.66,0.04,
6.059,0.16,1.15,-0.82,-0.08,1.66,0.04,
6.06,0.06,1.22,-0.68,-0.08,1.66,0.04,
6.061,0.06,1.22,-0.68,-0.08,1.66,0.04,
6.069,0.06,1.22,-0.68,-0.24,1.78,0.17,
6.07,0.06,1.22,-0.68,-0.24,1.78,0.17,
6.071,0.03,1.29,-0.49,-0.24,1.78,0.17,
6.071,0.03,1.29,-0.49,-0.24,1.78,0.17,
6.077,0.03,1.29,-0.49,-0.35,1.78,0.25,
6.078,0.03,1.29,-0.49,-0.35,1.78,0.25,
6.079,0.05,1.27,-0.30,-0.35,1.78,0.25,
6.079,0.05,1.27,-0.30,-0.35,1.78,0.25,
6.087,0.05,1.27,-0.30,-0.37,1.67,0.47,
6.088,0.05,1.27,-0.30,-0.37,1.67,0.47,
6.088,0.10,1.19,-0.10,-0.37,1.67,0.47,
6.089,0.10,1.19,-0.10,-0.37,1.67,0.47,
6.096,0.10,1.19,-0.10,-0.33,1.48,0.60,
6.098,0.10,1.19,-0.10,-0.33,1.48,0.60,
6.099,0.18,1.04,0.07,-0.33,1.48,0.60,
6.1,0.18,1.04,0.07,-0.33,1.48,0.60,
6.106,0.18,1.04,0.07,-0.23,1.27,0.63,
6.107,0.18,1.04,0.07,-0.23,1.27,0.63,
6.107,0.29,0.85,0.14,-0.23,1.27,0.63,
6.107,0.29,0.85,0.14,-0.23,1.27,0.63,
6.115,0.29,0.85,0.14,-0.23,1.27,0.63,
6.116,0.29,0.85,0.14,-0.23,1.27,0.63,
6.116,0.29,0.85,0.14,-0.23,1.27,0.63,
6.116,0.29,0.85,0.14,-0.23,1.27,0.63,
6.125,0.29,0.85,0.14,-0.10,1.08,0.60,
6.126,0.29,0.85,0.14,-0.10,1.08,0.60,
6.126,0.62,0.42,-0.03,-0.10,1.08,0.60,
6.126,0.62,0.42,-0.03,-0.10,1.08,0.60,
6.134,0.62,0.42,-0.03,0.03,0.94,0.49,
6.135,0.62,0.42,-0.03,0.03,0.94,0.49,
6.135,0.81,0.20,-0.28,0.03,0.94,0.49,
6.135,0.81,0.20,-0.28,0.03,0.94,0.49,
6.144,0.81,0.20,-0.28,0.11,0.88,0.33,
6.145,0.81,0.20,-0.28,0.11,0.88,0.33,
6.145,1.01,-0.03,-0.58,0.11,0.88,0.33,
6.145,1.01,-0.03,-0.58,0.11,0.88,0.33,
6.153,1.01,-0.03,-0.58,0.10,0.92,0.13,
6.154,1.01,-0.03,-0.58,0.10,0.92,0.13,
6.155,1.20,-0.15,-0.99,0.10,0.92,0.13,
6.155,1.20,-0.15,-0.99,0.10,0.92,0.13,
6.163,1.20,-0.15,-0.99,-0.00,1.09,-0.10,
6.164,1.20,-0.15,-0.99,-0.00,1.09,-0.10,
6.164,1.40,-0.24,-1.45,-0.00,1.09,-0.10,
6.165,1.40,-0.24,-1.45,-0.00,1.09,-0.10,
6.173,1.40,-0.24,-1.45,-0.21,1.34,-0.31,
6.174,1.40,-0.24,-1.45,-0.21,1.34,-0.31,
6.174,1.60,-0.31,-1.91,-0.21,1.34,-0.31,
6.175,1.60,-0.31,-1.91,-0.21,1.34,-0.31,
6.182,1.60,-0.31,-1.91,-0.49,1.62,-0.50,
6.183,1.60,-0.31,-1.91,-0.49,1.62,-0.50,
6.187,1.81,-0.44,-2.32,-0.49,1.62,-0.50,
6.188,1.81,-0.44,-2.32,-0.49,1.62,-0.50,
6.191,1.81,-0.44,-2.32,-0.84,1.91,-0.66,
6.192,1.81,-0.44,-2.32,-0.84,1.91,-0.66,
6.193,2.03,-0.67,-2.53,-0.84,1.91,-0.66,
6.193,2.03,-0.67,-2.53,-0.84,1.91,-0.66,
6.201,2.03,-0.67,-2.53,-1.20,2.19,-0.79,
6.203,2.03,-0.67,-2.53,-1.20,2.19,-0.79,
6.205,2.13,-0.96,-2.54,-1.20,2.19,-0.79,
6.205,2.13,-0.96,-2.54,-1.20,2.19,-0.79,
6.21,2.13,-0.96,-2.54,-1.53,2.42,-0.88,
6.211,2.13,-0.96,-2.54,-1.53,2.42,-0.88,
6.212,1.97,-1.16,-2.45,-1.53,2.42,-0.88,
6.212,1.97,-1.16,-2.45,-1.53,2.42,-0.88,
6.221,1.97,-1.16,-2.45,-1.76,2.59,-0.92,
6.222,1.97,-1.16,-2.45,-1.76,2.59,-0.92,
6.222,1.52,-1.22,-2.32,-1.76,2.59,-0.92,
6.222,1.52,-1.22,-2.32,-1.76,2.59,-0.92,
6.23,1.52,-1.22,-2.32,-1.86,2.66,-0.89,
6.23,1.52,-1.22,-2.32,-1.86,2.66,-0.89,
6.231,0.89,-1.08,-2.25,-1.86,2.66,-0.89,
6.231,0.89,-1.08,-2.25,-1.86,2.66,-0.89,
6.24,0.89,-1.08,-2.25,-1.83,2.60,-0.78,
6.241,0.89,-1.08,-2.25,-1.83,2.60,-0.78,
6.241,0.23,-0.70,-2.17,-1.83,2.60,-0.78,
6.242,0.23,-0.70,-2.17,-1.83,2.60,-0.78,
6.249,0.23,-0.70,-2.17,-1.71,2.40,-0.59,
6.25,0.23,-0.70,-2.17,-1.71,2.40,-0.59,
6.25,-0.29,-0.17,-1.95,-1.71,2.40,-0.59,
6.251,-0.29,-0.17,-1.95,-1.71,2.40,-0.59,
6.26,-0.29,-0.17,-1.95,-1.54,2.05,-0.31,
6.261,-0.29,-0.17,-1.95,-1.54,2.05,-0.31,
6.262,-0.60,0.45,-1.57,-1.54,2.05,-0.31,
6.262,-0.60,0.45,-1.57,-1.54,2.05,-0.31,
6.273,-0.60,0.45,-1.57,-1.35,1.62,0.00,
6.274,-0.60,0.45,-1.57,-1.35,1.62,0.00,
6.274,-0.74,1.09,-1.10,-1.35,1.62,0.00,
6.275,-0.74,1.09,-1.10,-1.35,1.62,0.00,
6.278,-0.74,1.09,-1.10,-1.14,1.17,0.31,
6.278,-0.74,1.09,-1.10,-1.14,1.17,0.31,
6.279,-0.75,1.62,-0.69,-1.14,1.17,0.31,
6.279,-0.75,1.62,-0.69,-1.14,1.17,0.31,
6.291,-0.75,1.62,-0.69,-0.89,0.73,0.56,
6.292,-0.75,1.62,-0.69,-0.89,0.73,0.56,
6.292,-0.71,1.95,-0.48,-0.89,0.73,0.56,
6.292,-0.71,1.95,-0.48,-0.89,0.73,0.56,
6.297,-0.71,1.95,-0.48,-0.62,0.30,0.71,
6.298,-0.71,1.95,-0.48,-0.62,0.30,0.71,
6.298,-0.68,2.08,-0.54,-0.62,0.30,0.71,
6.298,-0.68,2.08,-0.54,-0.62,0.30,0.71,
6.307,-0.68,2.08,-0.54,-0.34,-0.08,0.78,
6.308,-0.68,2.08,-0.54,-0.34,-0.08,0.78,
6.308,-0.63,2.00,-0.81,-0.34,-0.08,0.78,
6.309,-0.63,2.00,-0.81,-0.34,-0.08,0.78,
6.316,-0.63,2.00,-0.81,-0.34,-0.08,0.78,
6.317,-0.63,2.00,-0.81,-0.34,-0.08,0.78,
6.317,-0.63,2.00,-0.81,-0.34,-0.08,0.78,
6.318,-0.63,2.00,-0.81,-0.34,-0.08,0.78,
6.325,-0.63,2.00,-0.81,-0.12,-0.36,0.80,
6.326,-0.63,2.00,-0.81,-0.12,-0.36,0.80,
6.327,-0.42,1.32,-1.51,-0.12,-0.36,0.80,
6.327,-0.42,1.32,-1.51,-0.12,-0.36,0.80,
6.335,-0.42,1.32,-1.51,-0.00,-0.52,0.77,
6.335,-0.42,1.32,-1.51,-0.00,-0.52,0.77,
6.336,-0.25,0.81,-1.67,-0.00,-0.52,0.77,
6.336,-0.25,0.81,-1.67,-0.00,-0.52,0.77,
6.344,-0.25,0.81,-1.67,-0.03,-0.53,0.72,
6.345,-0.25,0.81,-1.67,-0.03,-0.53,0.72,
6.345,-0.15,0.23,-1.63,-0.03,-0.53,0.72,
6.346,-0.15,0.23,-1.63,-0.03,-0.53,0.72,
6.359,-0.15,0.23,-1.63,-0.28,-0.33,0.52,
6.36,-0.15,0.23,-1.63,-0.28,-0.33,0.52,
6.36,-0.15,-0.29,-1.47,-0.28,-0.33,0.52,
6.361,-0.15,-0.29,-1.47,-0.28,-0.33,0.52,
6.365,-0.15,-0.29,-1.47,-0.28,-0.33,0.52,
6.366,-0.15,-0.29,-1.47,-0.28,-0.33,0.52,
6.366,-0.15,-0.29,-1.47,-0.28,-0.33,0.52,
6.367,-0.15,-0.29,-1.47,-0.28,-0.33,0.52,
6.377,-0.15,-0.29,-1.47,-0.34,-0.24,0.40,
6.378,-0.15,-0.29,-1.47,-0.34,-0.24,0.40,
6.379,-0.19,-0.80,-1.48,-0.34,-0.24,0.40,
6.38,-0.19,-0.80,-1.48,-0.34,-0.24,0.40,
6.382,-0.19,-0.80,-1.48,-0.32,-0.18,0.29,
6.383,-0.19,-0.80,-1.48,-0.32,-0.18,0.29,
6.383,-0.04,-0.69,-1.46,-0.32,-0.18,0.29,
6.384,-0.04,-0.69,-1.46,-0.32,-0.18,0.29,
6.392,-0.04,-0.69,-1.46,-0.27,-0.18,0.20,
6.392,-0.04,-0.69,-1.46,-0.27,-0.18,0.20,
6.393,0.25,-0.41,-1.22,-0.27,-0.18,0.20,
6.393,0.25,-0.41,-1.22,-0.27,-0.18,0.20,
6.401,0.25,-0.41,-1.22,-0.22,-0.21,0.11,
6.402,0.25,-0.41,-1.22,-0.22,-0.21,0.11,
6.403,0.62,0.01,-0.77,-0.22,-0.21,0.11,
6.403,0.62,0.01,-0.77,-0.22,-0.21,0.11,
6.411,0.62,0.01,-0.77,-0.15,-0.25,-0.02,
6.412,0.62,0.01,-0.77,-0.15,-0.25,-0.02,
6.412,0.91,0.42,-0.32,-0.15,-0.25,-0.02,
6.413,0.91,0.42,-0.32,-0.15,-0.25,-0.02,
6.42,0.91,0.42,-0.32,-0.06,-0.28,-0.19,
6.421,0.91,0.42,-0.32,-0.06,-0.28,-0.19,
6.427,0.99,0.82,-0.06,-0.06,-0.28,-0.19,
6.428,0.99,0.82,-0.06,-0.06,-0.28,-0.19,
6.429,0.99,0.82,-0.06,0.06,-0.32,-0.42,
6.43,0.99,0.82,-0.06,0.06,-0.32,-0.42,
6.431,0.85,1.16,-0.14,0.06,-0.32,-0.42,
6.431,0.85,1.16,-0.14,0.06,-0.32,-0.42,
6.439,0.85,1.16,-0.14,0.21,-0.39,-0.66,
6.44,0.85,1.16,-0.14,0.21,-0.39,-0.66,
6.441,0.57,1.40,-0.43,0.21,-0.39,-0.66,
6.441,0.57,1.40,-0.43,0.21,-0.39,-0.66,
6.448,0.57,1.40,-0.43,0.32,-0.47,-0.85,
6.449,0.57,1.40,-0.43,0.32,-0.47,-0.85,
6.45,0.28,1.57,-0.68,0.32,-0.47,-0.85,
6.45,0.28,1.57,-0.68,0.32,-0.47,-0.85,
6.458,0.28,1.57,-0.68,0.33,-0.52,-0.94,
6.459,0.28,1.57,-0.68,0.33,-0.52,-0.94,
6.46,0.09,1.61,-0.73,0.33,-0.52,-0.94,
6.46,0.09,1.61,-0.73,0.33,-0.52,-0.94,
6.473,0.09,1.61,-0.73,0.24,-0.51,-0.89,
6.474,0.09,1.61,-0.73,0.24,-0.51,-0.89,
6.475,0.07,1.56,-0.51,0.24,-0.51,-0.89,
6.475,0.07,1.56,-0.51,0.24,-0.51,-0.89,
6.477,0.07,1.56,-0.51,0.07,-0.46,-0.74,
6.478,0.07,1.56,-0.51,0.07,-0.46,-0.74,
6.478,0.19,1.41,-0.12,0.07,-0.46,-0.74,
6.478,0.19,1.41,-0.12,0.07,-0.46,-0.74,
6.49,0.19,1.41,-0.12,-0.07,-0.42,-0.57,
6.491,0.19,1.41,-0.12,-0.07,-0.42,-0.57,
6.491,0.40,1.23,0.22,-0.07,-0.42,-0.57,
6.491,0.40,1.23,0.22,-0.07,-0.42,-0.57,
6.497,0.40,1.23,0.22,-0.11,-0.42,-0.43,
6.498,0.40,1.23,0.22,-0.11,-0.42,-0.43,
6.498,0.66,1.06,0.30,-0.11,-0.42,-0.43,
6.499,0.66,1.06,0.30,-0.11,-0.42,-0.43,
6.506,0.66,1.06,0.30,-0.11,-0.42,-0.43,
6.508,0.66,1.06,0.30,-0.11,-0.42,-0.43,
6.508,0.66,1.06,0.30,-0.11,-0.42,-0.43,
6.509,0.66,1.06,0.30,-0.11,-0.42,-0.43,
6.516,0.66,1.06,0.30,-0.04,-0.47,-0.37,
6.517,0.66,1.06,0.30,-0.04,-0.47,-0.37,
6.518,1.24,0.77,-0.50,-0.04,-0.47,-0.37,
6.518,1.24,0.77,-0.50,-0.04,-0.47,-0.37,
6.525,1.24,0.77,-0.50,0.07,-0.49,-0.40,
6.526,1.24,0.77,-0.50,0.07,-0.49,-0.40,
6.527,1.54,0.68,-2.12,0.07,-0.49,-0.40,
6.527,1.54,0.68,-2.12,0.07,-0.49,-0.40,
6.535,1.54,0.68,-2.12,0.06,-0.40,-0.50,
6.536,1.54,0.68,-2.12,0.06,-0.40,-0.50,
6.536,1.80,0.68,-2.25,0.06,-0.40,-0.50,
6.536,1.80,0.68,-2.25,0.06,-0.40,-0.50,
6.544,1.80,0.68,-2.25,-0.22,-0.13,-0.63,
6.545,1.80,0.68,-2.25,-0.22,-0.13,-0.63,
6.545,1.94,0.78,-2.46,-0.22,-0.13,-0.63,
6.546,1.94,0.78,-2.46,-0.22,-0.13,-0.63,
6.553,1.94,0.78,-2.46,-0.73,0.25,-0.74,
6.554,1.94,0.78,-2.46,-0.73,0.25,-0.74,
6.555,1.94,0.98,-2.62,-0.73,0.25,-0.74,
6.556,1.94,0.98,-2.62,-0.73,0.25,-0.74,
6.564,1.94,0.98,-2.62,-1.29,0.64,-0.81,
6.565,1.94,0.98,-2.62,-1.29,0.64,-0.81,
6.565,1.83,1.26,-2.60,-1.29,0.64,-0.81,
6.566,1.83,1.26,-2.60,-1.29,0.64,-0.81,
6.572,1.83,1.26,-2.60,-1.74,0.94,-0.83,
6.573,1.83,1.26,-2.60,-1.74,0.94,-0.83,
6.574,1.66,1.58,-2.43,-1.74,0.94,-0.83,
6.575,1.66,1.58,-2.43,-1.74,0.94,-0.83,
6.582,1.66,1.58,-2.43,-2.05,1.12,-0.80,
6.582,1.66,1.58,-2.43,-2.05,1.12,-0.80,
6.583,1.53,1.88,-2.11,-2.05,1.12,-0.80,
6.583,1.53,1.88,-2.11,-2.05,1.12,-0.80,
6.591,1.53,1.88,-2.11,-2.22,1.18,-0.69,
6.592,1.53,1.88,-2.11,-2.22,1.18,-0.69,
6.593,1.49,2.11,-1.74,-2.22,1.18,-0.69,
6.594,1.49,2.11,-1.74,-2.22,1.18,-0.69,
6.607,1.49,2.11,-1.74,-2.26,1.11,-0.60,
6.608,1.49,2.11,-1.74,-2.26,1.11,-0.60,
6.608,1.53,2.24,-1.48,-2.26,1.11,-0.60,
6.608,1.53,2.24,-1.48,-2.26,1.11,-0.60,
6.611,1.53,2.24,-1.48,-2.15,0.95,-0.58,
6.611,1.53,2.24,-1.48,-2.15,0.95,-0.58,
6.611,1.63,2.26,-1.28,-2.15,0.95,-0.58,
6.612,1.63,2.26,-1.28,-2.15,0.95,-0.58,
6.62,1.63,2.26,-1.28,-1.94,0.75,-0.60,
6.621,1.63,2.26,-1.28,-1.94,0.75,-0.60,
6.621,1.68,2.19,-1.15,-1.94,0.75,-0.60,
6.621,1.68,2.19,-1.15,-1.94,0.75,-0.60,
6.629,1.68,2.19,-1.15,-1.67,0.55,-0.66,
6.63,1.68,2.19,-1.15,-1.67,0.55,-0.66,
6.631,1.62,2.12,-1.08,-1.67,0.55,-0.66,
6.631,1.62,2.12,-1.08,-1.67,0.55,-0.66,
6.64,1.62,2.12,-1.08,-1.37,0.38,-0.74,
6.641,1.62,2.12,-1.08,-1.37,0.38,-0.74,
6.642,1.49,2.07,-1.05,-1.37,0.38,-0.74,
6.642,1.49,2.07,-1.05,-1.37,0.38,-0.74,
6.649,1.49,2.07,-1.05,-1.07,0.22,-0.82,
6.649,1.49,2.07,-1.05,-1.07,0.22,-0.82,
6.65,1.31,2.05,-1.13,-1.07,0.22,-0.82,
6.651,1.31,2.05,-1.13,-1.07,0.22,-0.82,
6.658,1.31,2.05,-1.13,-0.80,0.05,-0.86,
6.659,1.31,2.05,-1.13,-0.80,0.05,-0.86,
6.666,1.13,2.06,-1.30,-0.80,0.05,-0.86,
6.667,1.13,2.06,-1.30,-0.80,0.05,-0.86,
6.68,1.13,2.06,-1.30,-0.58,-0.13,-0.87,
6.681,1.13,2.06,-1.30,-0.58,-0.13,-0.87,
6.682,1.03,2.05,-1.51,-0.58,-0.13,-0.87,
6.683,1.03,2.05,-1.51,-0.58,-0.13,-0.87,
6.683,1.03,2.05,-1.51,-0.44,-0.31,-0.82,
6.684,1.03,2.05,-1.51,-0.44,-0.31,-0.82,
6.684,1.00,1.97,-1.68,-0.44,-0.31,-0.82,
6.685,1.00,1.97,-1.68,-0.44,-0.31,-0.82,
6.689,1.00,1.97,-1.68,-0.39,-0.48,-0.75,
6.69,1.00,1.97,-1.68,-0.39,-0.48,-0.75,
6.691,1.02,1.87,-1.80,-0.39,-0.48,-0.75,
6.691,1.02,1.87,-1.80,-0.39,-0.48,-0.75,
6.696,1.02,1.87,-1.80,-0.42,-0.59,-0.65,
6.697,1.02,1.87,-1.80,-0.42,-0.59,-0.65,
6.697,1.13,1.71,-1.84,-0.42,-0.59,-0.65,
6.697,1.13,1.71,-1.84,-0.42,-0.59,-0.65,
6.707,1.13,1.71,-1.84,-0.42,-0.59,-0.65,
6.708,1.13,1.71,-1.84,-0.42,-0.59,-0.65,
6.708,1.13,1.71,-1.84,-0.42,-0.59,-0.65,
6.709,1.13,1.71,-1.84,-0.42,-0.59,-0.65,
6.716,1.13,1.71,-1.84,-0.50,-0.63,-0.56,
6.717,1.13,1.71,-1.84,-0.50,-0.63,-0.56,
6.717,1.51,1.42,-1.99,-0.50,-0.63,-0.56,
6.717,1.51,1.42,-1.99,-0.50,-0.63,-0.56,
6.725,1.51,1.42,-1.99,-0.58,-0.60,-0.48,
6.727,1.51,1.42,-1.99,-0.58,-0.60,-0.48,
6.727,1.66,1.26,-2.13,-0.58,-0.60,-0.48,
6.728,1.66,1.26,-2.13,-0.58,-0.60,-0.48,
6.734,1.66,1.26,-2.13,-0.64,-0.53,-0.47,
6.735,1.66,1.26,-2.13,-0.64,-0.53,-0.47,
6.736,1.75,1.11,-2.33,-0.64,-0.53,-0.47,
6.736,1.75,1.11,-2.33,-0.64,-0.53,-0.47,
6.744,1.75,1.11,-2.33,-0.67,-0.46,-0.52,
6.745,1.75,1.11,-2.33,-0.67,-0.46,-0.52,
6.746,1.79,1.03,-2.52,-0.67,-0.46,-0.52,
6.746,1.79,1.03,-2.52,-0.67,-0.46,-0.52,
6.753,1.79,1.03,-2.52,-0.69,-0.42,-0.63,
6.754,1.79,1.03,-2.52,-0.69,-0.42,-0.63,
6.755,1.77,1.03,-2.60,-0.69,-0.42,-0.63,
6.756,1.77,1.03,-2.60,-0.69,-0.42,-0.63,
6.763,1.77,1.03,-2.60,-0.71,-0.38,-0.74,
6.764,1.77,1.03,-2.60,-0.71,-0.38,-0.74,
6.764,1.72,1.14,-2.54,-0.71,-0.38,-0.74,
6.765,1.72,1.14,-2.54,-0.71,-0.38,-0.74,
6.774,1.72,1.14,-2.54,-0.74,-0.39,-0.83,
6.774,1.72,1.14,-2.54,-0.74,-0.39,-0.83,
6.776,1.62,1.38,-2.37,-0.74,-0.39,-0.83,
6.777,1.62,1.38,-2.37,-0.74,-0.39,-0.83,
6.781,1.62,1.38,-2.37,-0.76,-0.43,-0.89,
6.782,1.62,1.38,-2.37,-0.76,-0.43,-0.89,
6.783,1.48,1.63,-2.13,-0.76,-0.43,-0.89,
6.783,1.48,1.63,-2.13,-0.76,-0.43,-0.89,
6.793,1.48,1.63,-2.13,-0.77,-0.47,-0.93,
6.794,1.48,1.63,-2.13,-0.77,-0.47,-0.93,
6.795,1.29,1.83,-1.94,-0.77,-0.47,-0.93,
6.795,1.29,1.83,-1.94,-0.77,-0.47,-0.93,
6.817,1.29,1.83,-1.94,-0.75,-0.50,-0.95,
6.818,1.29,1.83,-1.94,-0.75,-0.50,-0.95,
6.819,0.99,1.97,-1.82,-0.75,-0.50,-0.95,
6.819,0.99,1.97,-1.82,-0.75,-0.50,-0.95,
6.819,0.99,1.97,-1.82,-0.72,-0.55,-0.96,
6.82,0.99,1.97,-1.82,-0.72,-0.55,-0.96,
6.82,0.66,2.05,-1.70,-0.72,-0.55,-0.96,
6.82,0.66,2.05,-1.70,-0.72,-0.55,-0.96,
6.82,0.66,2.05,-1.70,-0.68,-0.61,-0.94,
6.821,0.66,2.05,-1.70,-0.68,-0.61,-0.94,
6.821,0.32,2.10,-1.58,-0.68,-0.61,-0.94,
6.821,0.32,2.10,-1.58,-0.68,-0.61,-0.94,
6.83,0.32,2.10,-1.58,-0.63,-0.70,-0.88,
6.83,0.32,2.10,-1.58,-0.63,-0.70,-0.88,
6.831,0.02,2.13,-1.46,-0.63,-0.70,-0.88,
6.831,0.02,2.13,-1.46,-0.63,-0.70,-0.88,
6.839,0.02,2.13,-1.46,-0.59,-0.82,-0.79,
6.84,0.02,2.13,-1.46,-0.59,-0.82,-0.79,
6.84,-0.13,2.11,-1.39,-0.59,-0.82,-0.79,
6.841,-0.13,2.11,-1.39,-0.59,-0.82,-0.79,
6.849,-0.13,2.11,-1.39,-0.54,-0.96,-0.66,
6.849,-0.13,2.11,-1.39,-0.54,-0.96,-0.66,
6.85,-0.18,2.04,-1.42,-0.54,-0.96,-0.66,
6.85,-0.18,2.04,-1.42,-0.54,-0.96,-0.66,
6.859,-0.18,2.04,-1.42,-0.49,-1.09,-0.53,
6.86,-0.18,2.04,-1.42,-0.49,-1.09,-0.53,
6.86,-0.14,1.95,-1.52,-0.49,-1.09,-0.53,
6.86,-0.14,1.95,-1.52,-0.49,-1.09,-0.53,
6.871,-0.14,1.95,-1.52,-0.45,-1.20,-0.42,
6.871,-0.14,1.95,-1.52,-0.45,-1.20,-0.42,
6.872,-0.06,1.87,-1.60,-0.45,-1.20,-0.42,
6.872,-0.06,1.87,-1.60,-0.45,-1.20,-0.42,
6.877,-0.06,1.87,-1.60,-0.43,-1.28,-0.36,
6.878,-0.06,1.87,-1.60,-0.43,-1.28,-0.36,
6.878,-0.02,1.86,-1.64,-0.43,-1.28,-0.36,
6.878,-0.02,1.86,-1.64,-0.43,-1.28,-0.36,
6.89,-0.02,1.86,-1.64,-0.44,-1.31,-0.34,
6.89,-0.02,1.86,-1.64,-0.44,-1.31,-0.34,
6.891,-0.01,1.91,-1.68,-0.44,-1.31,-0.34,
6.891,-0.01,1.91,-1.68,-0.44,-1.31,-0.34,
6.896,-0.01,1.91,-1.68,-0.47,-1.28,-0.35,
6.897,-0.01,1.91,-1.68,-0.47,-1.28,-0.35,
6.901,0.01,2.02,-1.75,-0.47,-1.28,-0.35,
6.901,0.01,2.02,-1.75,-0.47,-1.28,-0.35,
6.906,0.01,2.02,-1.75,-0.47,-1.28,-0.35,
6.907,0.01,2.02,-1.75,-0.47,-1.28,-0.35,
6.908,0.01,2.02,-1.75,-0.47,-1.28,-0.35,
6.908,0.01,2.02,-1.75,-0.47,-1.28,-0.35,
6.916,0.01,2.02,-1.75,-0.54,-1.20,-0.36,
6.917,0.01,2.02,-1.75,-0.54,-1.20,-0.36,
6.917,0.34,2.53,-1.98,-0.54,-1.20,-0.36,
6.917,0.34,2.53,-1.98,-0.54,-1.20,-0.36,
6.925,0.34,2.53,-1.98,-0.66,-1.05,-0.36,
6.926,0.34,2.53,-1.98,-0.66,-1.05,-0.36,
6.926,0.69,2.81,-1.87,-0.66,-1.05,-0.36,
6.927,0.69,2.81,-1.87,-0.66,-1.05,-0.36,
6.934,0.69,2.81,-1.87,-0.84,-0.84,-0.38,
6.935,0.69,2.81,-1.87,-0.84,-0.84,-0.38,
6.935,1.09,3.08,-1.71,-0.84,-0.84,-0.38,
6.935,1.09,3.08,-1.71,-0.84,-0.84,-0.38,
6.944,1.09,3.08,-1.71,-1.07,-0.59,-0.31,
6.945,1.09,3.08,-1.71,-1.07,-0.59,-0.31,
6.945,1.52,3.30,-1.54,-1.07,-0.59,-0.31,
6.945,1.52,3.30,-1.54,-1.07,-0.59,-0.31,
6.953,1.52,3.30,-1.54,-1.30,-0.32,-0.14,
6.954,1.52,3.30,-1.54,-1.30,-0.32,-0.14,
6.955,1.87,3.43,-1.39,-1.30,-0.32,-0.14,
6.955,1.87,3.43,-1.39,-1.30,-0.32,-0.14,
6.963,1.87,3.43,-1.39,-1.48,-0.05,-0.29,
6.964,1.87,3.43,-1.39,-1.48,-0.05,-0.29,
6.965,2.11,3.50,-1.38,-1.48,-0.05,-0.29,
6.965,2.11,3.50,-1.38,-1.48,-0.05,-0.29,
6.973,2.11,3.50,-1.38,-1.59,0.23,-0.72,
6.974,2.11,3.50,-1.38,-1.59,0.23,-0.72,
6.975,2.22,3.53,-1.43,-1.59,0.23,-0.72,
6.975,2.22,3.53,-1.43,-1.59,0.23,-0.72,
6.983,2.22,3.53,-1.43,-1.66,0.49,-1.10,
6.984,2.22,3.53,-1.43,-1.66,0.49,-1.10,
6.985,2.20,3.48,-1.57,-1.66,0.49,-1.10,
6.986,2.20,3.48,-1.57,-1.66,0.49,-1.10,
6.997,2.20,3.48,-1.57,-1.68,0.71,-1.40,
6.998,2.20,3.48,-1.57,-1.68,0.71,-1.40,
6.998,2.13,3.41,-1.74,-1.68,0.71,-1.40,
6.999,2.13,3.41,-1.74,-1.68,0.71,-1.40,
7.02,2.13,3.41,-1.74,-1.68,0.83,-1.61,
7.021,2.13,3.41,-1.74,-1.68,0.83,-1.61,
7.021,2.01,3.33,-1.82,-1.68,0.83,-1.61,
7.022,2.01,3.33,-1.82,-1.68,0.83,-1.61,
7.022,2.01,3.33,-1.82,-1.65,0.85,-1.71,
7.022,2.01,3.33,-1.82,-1.65,0.85,-1.71,
7.022,1.89,3.25,-1.87,-1.65,0.85,-1.71,
7.023,1.89,3.25,-1.87,-1.65,0.85,-1.71,
7.023,1.89,3.25,-1.87,-1.60,0.79,-1.72,
7.023,1.89,3.25,-1.87,-1.60,0.79,-1.72,
7.023,1.80,3.19,-1.89,-1.60,0.79,-1.72,
7.024,1.80,3.19,-1.89,-1.60,0.79,-1.72,
7.029,1.80,3.19,-1.89,-1.53,0.67,-1.64,
7.03,1.80,3.19,-1.89,-1.53,0.67,-1.64,
7.03,1.71,3.13,-1.89,-1.53,0.67,-1.64,
7.031,1.71,3.13,-1.89,-1.53,0.67,-1.64,
7.04,1.71,3.13,-1.89,-1.45,0.52,-1.52,
7.041,1.71,3.13,-1.89,-1.45,0.52,-1.52,
7.041,1.64,3.06,-1.91,-1.45,0.52,-1.52,
7.041,1.64,3.06,-1.91,-1.45,0.52,-1.52,
7.049,1.64,3.06,-1.91,-1.34,0.35,-1.38,
7.05,1.64,3.06,-1.91,-1.34,0.35,-1.38,
7.05,1.63,2.99,-1.88,-1.34,0.35,-1.38,
7.051,1.63,2.99,-1.88,-1.34,0.35,-1.38,
7.059,1.63,2.99,-1.88,-1.22,0.19,-1.26,
7.059,1.63,2.99,-1.88,-1.22,0.19,-1.26,
7.06,1.65,2.92,-1.79,-1.22,0.19,-1.26,
7.06,1.65,2.92,-1.79,-1.22,0.19,-1.26,
7.07,1.65,2.92,-1.79,-1.10,0.06,-1.13,
7.071,1.65,2.92,-1.79,-1.10,0.06,-1.13,
7.071,1.67,2.90,-1.75,-1.10,0.06,-1.13,
7.072,1.67,2.90,-1.75,-1.10,0.06,-1.13,
7.077,1.67,2.90,-1.75,-0.98,-0.03,-1.00,
7.077,1.67,2.90,-1.75,-0.98,-0.03,-1.00,
7.078,1.71,2.92,-1.70,-0.98,-0.03,-1.00,
7.078,1.71,2.92,-1.70,-0.98,-0.03,-1.00,
7.091,1.71,2.92,-1.70,-0.88,-0.08,-0.91,
7.092,1.71,2.92,-1.70,-0.88,-0.08,-0.91,
7.092,1.73,2.99,-1.67,-0.88,-0.08,-0.91,
7.092,1.73,2.99,-1.67,-0.88,-0.08,-0.91,
7.096,1.73,2.99,-1.67,-0.78,-0.12,-0.86,
7.097,1.73,2.99,-1.67,-0.78,-0.12,-0.86,
7.097,1.80,3.11,-1.65,-0.78,-0.12,-0.86,
7.097,1.80,3.11,-1.65,-0.78,-0.12,-0.86,
7.106,1.80,3.11,-1.65,-0.78,-0.12,-0.86,
7.107,1.80,3.11,-1.65,-0.78,-0.12,-0.86,
7.107,1.80,3.11,-1.65,-0.78,-0.12,-0.86,
7.108,1.80,3.11,-1.65,-0.78,-0.12,-0.86,
7.115,1.80,3.11,-1.65,-0.73,-0.12,-0.82,
7.116,1.80,3.11,-1.65,-0.73,-0.12,-0.82,
7.117,2.13,3.37,-1.57,-0.73,-0.12,-0.82,
7.117,2.13,3.37,-1.57,-0.73,-0.12,-0.82,
7.125,2.13,3.37,-1.57,-0.74,-0.07,-0.79,
7.126,2.13,3.37,-1.57,-0.74,-0.07,-0.79,
7.126,2.27,3.37,-1.48,-0.74,-0.07,-0.79,
7.127,2.27,3.37,-1.48,-0.74,-0.07,-0.79,
7.135,2.27,3.37,-1.48,-0.81,0.01,-0.71,
7.136,2.27,3.37,-1.48,-0.81,0.01,-0.71,
7.142,2.34,3.33,-1.36,-0.81,0.01,-0.71,
7.143,2.34,3.33,-1.36,-0.81,0.01,-0.71,
7.144,2.34,3.33,-1.36,-0.89,0.06,-0.58,
7.145,2.34,3.33,-1.36,-0.89,0.06,-0.58,
7.146,2.35,3.30,-1.23,-0.89,0.06,-0.58,
7.146,2.35,3.30,-1.23,-0.89,0.06,-0.58,
7.153,2.35,3.30,-1.23,-0.93,0.11,-0.61,
