
time,ax,ay,az,wx,wy,wz,
0.003,0.08,0.03,0.68,-0.00,-0.00,-0.00,
0.003,0.08,0.03,0.68,-0.00,-0.00,-0.00,
0.004,-0.01,-0.00,0.43,-0.00,-0.00,-0.00,
0.004,-0.01,-0.00,0.43,-0.00,-0.00,-0.00,
0.005,-0.01,-0.00,0.43,0.00,-0.00,-0.00,
0.005,-0.01,-0.00,0.43,0.00,-0.00,-0.00,
0.005,-0.13,-0.00,0.16,0.00,-0.00,-0.00,
0.006,-0.13,-0.00,0.16,0.00,-0.00,-0.00,
0.006,-0.13,-0.00,0.16,-0.00,-0.00,-0.00,
0.006,-0.13,-0.00,0.16,-0.00,-0.00,-0.00,
0.006,-0.21,-0.03,-0.09,-0.00,-0.00,-0.00,
0.007,-0.21,-0.03,-0.09,-0.00,-0.00,-0.00,
0.014,-0.21,-0.03,-0.09,0.00,-0.00,-0.00,
0.015,-0.21,-0.03,-0.09,0.00,-0.00,-0.00,
0.015,-0.27,-0.06,-0.26,0.00,-0.00,-0.00,
0.016,-0.27,-0.06,-0.26,0.00,-0.00,-0.00,
0.024,-0.27,-0.06,-0.26,-0.00,-0.00,0.00,
0.025,-0.27,-0.06,-0.26,-0.00,-0.00,0.00,
0.025,-0.30,-0.09,-0.29,-0.00,-0.00,0.00,
0.025,-0.30,-0.09,-0.29,-0.00,-0.00,0.00,
0.034,-0.30,-0.09,-0.29,-0.00,-0.00,0.00,
0.035,-0.30,-0.09,-0.29,-0.00,-0.00,0.00,
0.035,-0.30,-0.09,-0.29,-0.00,-0.00,0.00,
0.035,-0.30,-0.09,-0.29,-0.00,-0.00,0.00,
0.044,-0.30,-0.09,-0.29,-0.00,0.00,0.00,
0.044,-0.30,-0.09,-0.29,-0.00,0.00,0.00,
0.045,-0.23,-0.08,-0.03,-0.00,0.00,0.00,
0.045,-0.23,-0.08,-0.03,-0.00,0.00,0.00,
0.052,-0.23,-0.08,-0.03,0.00,-0.00,0.00,
0.053,-0.23,-0.08,-0.03,0.00,-0.00,0.00,
0.054,-0.19,-0.04,0.13,0.00,-0.00,0.00,
0.054,-0.19,-0.04,0.13,0.00,-0.00,0.00,
0.062,-0.19,-0.04,0.13,-0.00,0.00,-0.00,
0.063,-0.19,-0.04,0.13,-0.00,0.00,-0.00,
0.063,-0.15,0.01,0.29,-0.00,0.00,-0.00,
0.063,-0.15,0.01,0.29,-0.00,0.00,-0.00,
0.083,-0.15,0.01,0.29,0.00,0.00,0.00,
0.085,-0.15,0.01,0.29,0.00,0.00,0.00,
0.086,-0.12,0.05,0.42,0.00,0.00,0.00,
0.086,-0.12,0.05,0.42,0.00,0.00,0.00,
0.087,-0.12,0.05,0.42,0.00,-0.00,0.00,
0.088,-0.12,0.05,0.42,0.00,-0.00,0.00,
0.088,-0.12,0.05,0.42,0.00,-0.00,0.00,
0.089,-0.10,0.09,0.55,0.00,-0.00,0.00,
0.09,-0.10,0.09,0.55,0.00,-0.00,0.00,
0.09,-0.10,0.09,0.55,0.00,-0.00,0.00,
0.101,-0.10,0.09,0.55,0.00,-0.00,-0.00,
0.102,-0.10,0.09,0.55,0.00,-0.00,-0.00,
0.103,-0.01,0.11,0.64,0.00,-0.00,-0.00,
0.103,-0.01,0.11,0.64,0.00,-0.00,-0.00,
0.105,-0.01,0.11,0.64,0.00,-0.00,-0.00,
0.106,-0.01,0.11,0.64,0.00,-0.00,-0.00,
0.106,-0.01,0.11,0.64,0.00,-0.00,-0.00,
0.107,-0.01,0.11,0.64,0.00,-0.00,-0.00,
0.115,-0.01,0.11,0.64,0.00,0.00,-0.00,
0.116,-0.01,0.11,0.64,0.00,0.00,-0.00,
0.116,0.02,0.08,0.51,0.00,0.00,-0.00,
0.117,0.02,0.08,0.51,0.00,0.00,-0.00,
0.124,0.02,0.08,0.51,0.00,0.00,-0.00,
0.125,0.02,0.08,0.51,0.00,0.00,-0.00,
0.125,0.02,0.08,0.51,0.00,0.00,-0.00,
0.126,0.02,0.08,0.51,0.00,0.00,-0.00,
0.133,0.02,0.08,0.51,0.00,-0.00,-0.00,
0.135,0.02,0.08,0.51,0.00,-0.00,-0.00,
0.136,-0.06,0.04,0.30,0.00,-0.00,-0.00,
0.137,-0.06,0.04,0.30,0.00,-0.00,-0.00,
0.142,-0.06,0.04,0.30,-0.00,-0.00,-0.00,
0.143,-0.06,0.04,0.30,-0.00,-0.00,-0.00,
0.143,-0.10,-0.01,0.22,-0.00,-0.00,-0.00,
0.144,-0.10,-0.01,0.22,-0.00,-0.00,-0.00,
0.152,-0.10,-0.01,0.22,0.00,0.00,0.00,
0.153,-0.10,-0.01,0.22,0.00,0.00,0.00,
0.154,-0.13,-0.06,0.15,0.00,0.00,0.00,
0.155,-0.13,-0.06,0.15,0.00,0.00,0.00,
0.162,-0.13,-0.06,0.15,0.00,0.00,-0.00,
0.163,-0.13,-0.06,0.15,0.00,0.00,-0.00,
0.164,-0.17,-0.10,0.08,0.00,0.00,-0.00,
0.165,-0.17,-0.10,0.08,0.00,0.00,-0.00,
0.171,-0.17,-0.10,0.08,0.00,-0.00,0.00,
0.172,-0.17,-0.10,0.08,0.00,-0.00,0.00,
0.173,-0.21,-0.13,0.04,0.00,-0.00,0.00,
0.174,-0.21,-0.13,0.04,0.00,-0.00,0.00,
0.181,-0.21,-0.13,0.04,0.00,0.00,0.00,
0.182,-0.21,-0.13,0.04,0.00,0.00,0.00,
0.183,-0.23,-0.10,0.04,0.00,0.00,0.00,
0.184,-0.23,-0.10,0.04,0.00,0.00,0.00,
0.19,-0.23,-0.10,0.04,-0.00,0.00,-0.00,
0.19,-0.23,-0.10,0.04,-0.00,0.00,-0.00,
0.191,-0.21,-0.10,0.08,-0.00,0.00,-0.00,
0.191,-0.21,-0.10,0.08,-0.00,0.00,-0.00,
0.202,-0.21,-0.10,0.08,-0.00,-0.00,0.00,
0.203,-0.21,-0.10,0.08,-0.00,-0.00,0.00,
0.203,-0.15,-0.10,0.14,-0.00,-0.00,0.00,
0.204,-0.15,-0.10,0.14,-0.00,-0.00,0.00,
0.21,-0.15,-0.10,0.14,0.00,-0.00,0.00,
0.211,-0.15,-0.10,0.14,0.00,-0.00,0.00,
0.212,-0.09,-0.08,0.18,0.00,-0.00,0.00,
0.212,-0.09,-0.08,0.18,0.00,-0.00,0.00,
0.218,-0.09,-0.08,0.18,-0.00,0.00,0.00,
0.219,-0.09,-0.08,0.18,-0.00,0.00,0.00,
0.226,-0.05,-0.07,0.22,-0.00,0.00,0.00,
0.228,-0.05,-0.07,0.22,-0.00,0.00,0.00,
0.239,-0.05,-0.07,0.22,0.00,-0.00,-0.00,
0.241,-0.05,-0.07,0.22,0.00,-0.00,-0.00,
0.243,-0.03,-0.03,0.26,0.00,-0.00,-0.00,
0.244,-0.03,-0.03,0.26,0.00,-0.00,-0.00,
0.245,-0.03,-0.03,0.26,0.00,-0.00,0.00,
0.247,-0.03,-0.03,0.26,0.00,-0.00,0.00,
0.248,-0.04,-0.02,0.31,0.00,-0.00,0.00,
0.25,-0.04,-0.02,0.31,0.00,-0.00,0.00,
0.252,-0.04,-0.02,0.31,0.00,0.00,0.00,
0.253,-0.04,-0.02,0.31,0.00,0.00,0.00,
0.255,-0.04,-0.04,0.34,0.00,0.00,0.00,
0.257,-0.04,-0.04,0.34,0.00,0.00,0.00,
0.259,-0.04,-0.04,0.34,0.00,0.00,0.00,
0.26,-0.04,-0.04,0.34,0.00,0.00,0.00,
0.261,-0.04,-0.09,0.34,0.00,0.00,0.00,
0.261,-0.04,-0.09,0.34,0.00,0.00,0.00,
0.273,-0.04,-0.09,0.34,0.00,-0.00,0.00,
0.273,-0.04,-0.09,0.34,0.00,-0.00,0.00,
0.274,-0.04,-0.12,0.32,0.00,-0.00,0.00,
0.275,-0.04,-0.12,0.32,0.00,-0.00,0.00,
0.275,-0.04,-0.12,0.32,-0.00,0.00,-0.00,
0.276,-0.04,-0.12,0.32,-0.00,0.00,-0.00,
0.276,-0.05,-0.13,0.28,-0.00,0.00,-0.00,
0.277,-0.05,-0.13,0.28,-0.00,0.00,-0.00,
0.289,-0.05,-0.13,0.28,0.00,-0.00,-0.00,
0.29,-0.05,-0.13,0.28,0.00,-0.00,-0.00,
0.29,-0.06,-0.12,0.27,0.00,-0.00,-0.00,
0.291,-0.06,-0.12,0.27,0.00,-0.00,-0.00,
0.294,-0.06,-0.12,0.27,0.00,-0.00,0.00,
0.295,-0.06,-0.12,0.27,0.00,-0.00,0.00,
0.296,-0.06,-0.09,0.26,0.00,-0.00,0.00,
0.296,-0.06,-0.09,0.26,0.00,-0.00,0.00,
0.304,-0.06,-0.09,0.26,0.00,0.00,0.00,
0.305,-0.06,-0.09,0.26,0.00,0.00,0.00,
0.306,-0.06,-0.07,0.25,0.00,0.00,0.00,
0.306,-0.06,-0.07,0.25,0.00,0.00,0.00,
0.322,-0.06,-0.07,0.25,0.00,0.00,0.00,
0.323,-0.06,-0.07,0.25,0.00,0.00,0.00,
0.325,-0.05,-0.06,0.24,0.00,0.00,0.00,
0.325,-0.05,-0.06,0.24,0.00,0.00,0.00,
0.326,-0.05,-0.06,0.24,-0.00,-0.00,-0.00,
0.327,-0.05,-0.06,0.24,-0.00,-0.00,-0.00,
0.328,-0.00,-0.06,0.27,-0.00,-0.00,-0.00,
0.33,-0.00,-0.06,0.27,-0.00,-0.00,-0.00,
0.337,-0.00,-0.06,0.27,-0.00,-0.00,-0.00,
0.338,-0.00,-0.06,0.27,-0.00,-0.00,-0.00,
0.339,-0.00,-0.06,0.27,-0.00,-0.00,-0.00,
0.339,-0.00,-0.06,0.27,-0.00,-0.00,-0.00,
0.343,-0.00,-0.06,0.27,-0.00,0.00,0.00,
0.344,-0.00,-0.06,0.27,-0.00,0.00,0.00,
0.345,0.12,-0.03,0.31,-0.00,0.00,0.00,
0.345,0.12,-0.03,0.31,-0.00,0.00,0.00,
0.352,0.12,-0.03,0.31,-0.00,0.00,0.00,
0.353,0.12,-0.03,0.31,-0.00,0.00,0.00,
0.354,0.17,-0.01,0.33,-0.00,0.00,0.00,
0.354,0.17,-0.01,0.33,-0.00,0.00,0.00,
0.362,0.17,-0.01,0.33,-0.00,0.00,0.00,
0.363,0.17,-0.01,0.33,-0.00,0.00,0.00,
0.364,0.16,0.03,0.32,-0.00,0.00,0.00,
0.364,0.16,0.03,0.32,-0.00,0.00,0.00,
0.371,0.16,0.03,0.32,-0.00,0.00,-0.00,
0.372,0.16,0.03,0.32,-0.00,0.00,-0.00,
0.373,0.09,0.05,0.34,-0.00,0.00,-0.00,
0.373,0.09,0.05,0.34,-0.00,0.00,-0.00,
0.381,0.09,0.05,0.34,-0.00,-0.00,-0.00,
0.383,0.09,0.05,0.34,-0.00,-0.00,-0.00,
0.384,0.01,0.03,0.31,-0.00,-0.00,-0.00,
0.385,0.01,0.03,0.31,-0.00,-0.00,-0.00,
0.39,0.01,0.03,0.31,0.00,0.00,0.00,
0.391,0.01,0.03,0.31,0.00,0.00,0.00,
0.393,-0.02,0.00,0.26,0.00,0.00,0.00,
0.394,-0.02,0.00,0.26,0.00,0.00,0.00,
0.408,-0.02,0.00,0.26,-0.00,-0.00,-0.00,
0.408,-0.02,0.00,0.26,-0.00,-0.00,-0.00,
0.409,-0.01,-0.01,0.22,-0.00,-0.00,-0.00,
0.409,-0.01,-0.01,0.22,-0.00,-0.00,-0.00,
0.41,-0.01,-0.01,0.22,-0.00,-0.00,0.00,
0.411,-0.01,-0.01,0.22,-0.00,-0.00,0.00,
0.411,0.05,-0.01,0.21,-0.00,-0.00,0.00,
0.412,0.05,-0.01,0.21,-0.00,-0.00,0.00,
0.419,0.05,-0.01,0.21,-0.00,0.00,-0.00,
0.42,0.05,-0.01,0.21,-0.00,0.00,-0.00,
0.42,0.08,0.00,0.24,-0.00,0.00,-0.00,
0.421,0.08,0.00,0.24,-0.00,0.00,-0.00,
0.428,0.08,0.00,0.24,-0.00,0.00,-0.00,
0.429,0.08,0.00,0.24,-0.00,0.00,-0.00,
0.429,0.08,0.01,0.24,-0.00,0.00,-0.00,
0.429,0.08,0.01,0.24,-0.00,0.00,-0.00,
0.438,0.08,0.01,0.24,0.00,-0.00,0.00,
0.439,0.08,0.01,0.24,0.00,-0.00,0.00,
0.441,0.08,0.01,0.24,0.00,-0.00,0.00,
0.442,0.08,0.01,0.24,0.00,-0.00,0.00,
0.455,0.08,0.01,0.24,-0.00,0.00,0.00,
0.457,0.08,0.01,0.24,-0.00,0.00,0.00,
0.458,0.08,0.02,0.24,-0.00,0.00,0.00,
0.459,0.08,0.02,0.24,-0.00,0.00,0.00,
0.46,0.08,0.02,0.24,-0.00,-0.00,-0.00,
0.461,0.08,0.02,0.24,-0.00,-0.00,-0.00,
0.468,0.08,0.02,0.24,-0.00,-0.00,-0.00,
0.469,0.08,0.02,0.24,-0.00,-0.00,-0.00,
0.47,0.08,0.02,0.24,0.00,0.00,0.00,
0.471,0.08,0.02,0.24,0.00,0.00,0.00,
0.472,0.08,0.02,0.24,0.00,0.00,0.00,
0.473,0.08,0.02,0.24,0.00,0.00,0.00,
0.477,0.08,0.02,0.24,-0.00,-0.00,0.00,
0.478,0.08,0.02,0.24,-0.00,-0.00,0.00,
0.479,0.08,0.03,0.24,-0.00,-0.00,0.00,
0.48,0.08,0.03,0.24,-0.00,-0.00,0.00,
0.485,0.08,0.03,0.24,0.00,-0.00,-0.00,
0.486,0.08,0.03,0.24,0.00,-0.00,-0.00,
0.487,0.08,0.03,0.24,0.00,-0.00,-0.00,
0.487,0.08,0.03,0.24,0.00,-0.00,-0.00,
0.495,0.08,0.03,0.24,0.00,0.00,0.00,
0.496,0.08,0.03,0.24,0.00,0.00,0.00,
0.496,0.08,0.03,0.23,0.00,0.00,0.00,
0.497,0.08,0.03,0.23,0.00,0.00,0.00,
0.504,0.08,0.03,0.23,-0.00,-0.00,-0.00,
0.505,0.08,0.03,0.23,-0.00,-0.00,-0.00,
0.506,0.08,0.03,0.23,-0.00,-0.00,-0.00,
0.506,0.08,0.03,0.23,-0.00,-0.00,-0.00,
0.514,0.08,0.03,0.23,0.00,0.00,-0.00,
0.515,0.08,0.03,0.23,0.00,0.00,-0.00,
0.516,0.07,0.04,0.23,0.00,0.00,-0.00,
0.517,0.07,0.04,0.23,0.00,0.00,-0.00,
0.524,0.07,0.04,0.23,-0.00,-0.00,0.00,
0.525,0.07,0.04,0.23,-0.00,-0.00,0.00,
0.525,0.07,0.04,0.23,-0.00,-0.00,0.00,
0.526,0.07,0.04,0.23,-0.00,-0.00,0.00,
0.534,0.07,0.04,0.23,-0.00,-0.00,0.00,
0.536,0.07,0.04,0.23,-0.00,-0.00,0.00,
0.537,0.07,0.04,0.23,-0.00,-0.00,0.00,
0.537,0.07,0.04,0.23,-0.00,-0.00,0.00,
0.542,0.07,0.04,0.23,0.00,-0.00,0.00,
0.543,0.07,0.04,0.23,0.00,-0.00,0.00,
0.544,0.06,0.04,0.23,0.00,-0.00,0.00,
0.544,0.06,0.04,0.23,0.00,-0.00,0.00,
0.552,0.06,0.04,0.23,0.00,-0.00,0.00,
0.553,0.06,0.04,0.23,0.00,-0.00,0.00,
0.554,0.06,0.04,0.23,0.00,-0.00,0.00,
0.554,0.06,0.04,0.23,0.00,-0.00,0.00,
0.562,0.06,0.04,0.23,0.00,-0.00,0.00,
0.563,0.06,0.04,0.23,0.00,-0.00,0.00,
0.563,0.06,0.04,0.23,0.00,-0.00,0.00,
0.564,0.06,0.04,0.23,0.00,-0.00,0.00,
0.572,0.06,0.04,0.23,0.00,0.00,-0.00,
0.573,0.06,0.04,0.23,0.00,0.00,-0.00,
0.573,0.05,0.04,0.23,0.00,0.00,-0.00,
0.574,0.05,0.04,0.23,0.00,0.00,-0.00,
0.581,0.05,0.04,0.23,0.00,-0.00,0.00,
0.583,0.05,0.04,0.23,0.00,-0.00,0.00,
0.584,0.05,0.04,0.23,0.00,-0.00,0.00,
0.585,0.05,0.04,0.23,0.00,-0.00,0.00,
0.59,0.05,0.04,0.23,-0.00,-0.00,-0.00,
0.591,0.05,0.04,0.23,-0.00,-0.00,-0.00,
0.591,0.04,0.04,0.23,-0.00,-0.00,-0.00,
0.592,0.04,0.04,0.23,-0.00,-0.00,-0.00,
0.599,0.04,0.04,0.23,-0.00,0.00,0.00,
0.6,0.04,0.04,0.23,-0.00,0.00,0.00,
0.601,0.04,0.04,0.23,-0.00,0.00,0.00,
0.601,0.04,0.04,0.23,-0.00,0.00,0.00,
0.609,0.04,0.04,0.23,0.00,-0.00,-0.00,
0.61,0.04,0.04,0.23,0.00,-0.00,-0.00,
0.61,0.04,0.04,0.23,0.00,-0.00,-0.00,
0.611,0.04,0.04,0.23,0.00,-0.00,-0.00,
0.619,0.04,0.04,0.23,0.00,-0.00,0.00,
0.62,0.04,0.04,0.23,0.00,-0.00,0.00,
0.62,0.03,0.04,0.23,0.00,-0.00,0.00,
0.621,0.03,0.04,0.23,0.00,-0.00,0.00,
0.629,0.03,0.04,0.23,-0.00,-0.00,-0.00,
0.63,0.03,0.04,0.23,-0.00,-0.00,-0.00,
0.63,0.08,-0.02,0.41,-0.00,-0.00,-0.00,
0.631,0.08,-0.02,0.41,-0.00,-0.00,-0.00,
0.638,0.08,-0.02,0.41,0.00,-0.00,0.00,
0.638,0.08,-0.02,0.41,0.00,-0.00,0.00,
0.639,0.09,0.00,0.38,0.00,-0.00,0.00,
0.64,0.09,0.00,0.38,0.00,-0.00,0.00,
0.647,0.09,0.00,0.38,-0.00,0.00,-0.00,
0.649,0.09,0.00,0.38,-0.00,0.00,-0.00,
0.649,0.15,0.03,0.36,-0.00,0.00,-0.00,
0.65,0.15,0.03,0.36,-0.00,0.00,-0.00,
0.657,0.15,0.03,0.36,-0.00,-0.00,-0.00,
0.658,0.15,0.03,0.36,-0.00,-0.00,-0.00,
0.659,0.17,0.02,0.33,-0.00,-0.00,-0.00,
0.659,0.17,0.02,0.33,-0.00,-0.00,-0.00,
0.666,0.17,0.02,0.33,0.00,0.00,0.00,
0.668,0.17,0.02,0.33,0.00,0.00,0.00,
0.669,0.16,-0.01,0.29,0.00,0.00,0.00,
0.669,0.16,-0.01,0.29,0.00,0.00,0.00,
0.676,0.16,-0.01,0.29,-0.00,-0.00,0.00,
0.677,0.16,-0.01,0.29,-0.00,-0.00,0.00,
0.678,0.13,-0.04,0.27,-0.00,-0.00,0.00,
0.678,0.13,-0.04,0.27,-0.00,-0.00,0.00,
0.685,0.13,-0.04,0.27,0.00,0.00,0.00,
0.686,0.13,-0.04,0.27,0.00,0.00,0.00,
0.687,0.09,-0.09,0.23,0.00,0.00,0.00,
0.688,0.09,-0.09,0.23,0.00,0.00,0.00,
0.695,0.09,-0.09,0.23,0.00,0.00,0.00,
0.696,0.09,-0.09,0.23,0.00,0.00,0.00,
0.704,0.07,-0.11,0.22,0.00,0.00,0.00,
0.705,0.07,-0.11,0.22,0.00,0.00,0.00,
0.706,0.07,-0.11,0.22,0.00,-0.00,0.00,
0.707,0.07,-0.11,0.22,0.00,-0.00,0.00,
0.708,0.08,-0.07,0.23,0.00,-0.00,0.00,
0.709,0.08,-0.07,0.23,0.00,-0.00,0.00,
0.721,0.08,-0.07,0.23,-0.00,0.00,0.00,
0.722,0.08,-0.07,0.23,-0.00,0.00,0.00,
0.722,0.16,-0.01,0.22,-0.00,0.00,0.00,
0.722,0.16,-0.01,0.22,-0.00,0.00,0.00,
0.726,0.16,-0.01,0.22,0.00,0.00,0.00,
0.727,0.16,-0.01,0.22,0.00,0.00,0.00,
0.727,0.24,0.09,0.22,0.00,0.00,0.00,
0.728,0.24,0.09,0.22,0.00,0.00,0.00,
0.733,0.24,0.09,0.22,0.00,0.00,0.00,
0.734,0.24,0.09,0.22,0.00,0.00,0.00,
0.734,0.24,0.09,0.22,0.00,0.00,0.00,
0.736,0.24,0.09,0.22,0.00,0.00,0.00,
0.743,0.24,0.09,0.22,-0.00,-0.00,-0.00,
0.744,0.24,0.09,0.22,-0.00,-0.00,-0.00,
0.745,0.45,0.32,0.11,-0.00,-0.00,-0.00,
0.746,0.45,0.32,0.11,-0.00,-0.00,-0.00,
0.753,0.45,0.32,0.11,-0.04,-0.05,0.15,
0.755,0.45,0.32,0.11,-0.04,-0.05,0.15,
0.756,0.49,0.44,0.03,-0.04,-0.05,0.15,
0.757,0.49,0.44,0.03,-0.04,-0.05,0.15,
0.761,0.49,0.44,0.03,0.02,-0.10,0.16,
0.764,0.49,0.44,0.03,0.02,-0.10,0.16,
0.765,0.49,0.54,0.02,0.02,-0.10,0.16,
0.766,0.49,0.54,0.02,0.02,-0.10,0.16,
0.771,0.49,0.54,0.02,0.12,-0.16,0.18,
0.771,0.49,0.54,0.02,0.12,-0.16,0.18,
0.772,0.39,0.60,0.13,0.12,-0.16,0.18,
0.772,0.39,0.60,0.13,0.12,-0.16,0.18,
0.78,0.39,0.60,0.13,0.23,-0.21,0.22,
0.781,0.39,0.60,0.13,0.23,-0.21,0.22,
0.782,0.27,0.65,0.26,0.23,-0.21,0.22,
0.782,0.27,0.65,0.26,0.23,-0.21,0.22,
0.79,0.27,0.65,0.26,0.33,-0.24,0.25,
0.791,0.27,0.65,0.26,0.33,-0.24,0.25,
0.791,0.11,0.69,0.41,0.33,-0.24,0.25,
0.792,0.11,0.69,0.41,0.33,-0.24,0.25,
0.8,0.11,0.69,0.41,0.40,-0.22,0.28,
0.801,0.11,0.69,0.41,0.40,-0.22,0.28,
0.801,-0.02,0.73,0.52,0.40,-0.22,0.28,
0.802,-0.02,0.73,0.52,0.40,-0.22,0.28,
0.809,-0.02,0.73,0.52,0.44,-0.15,0.31,
0.81,-0.02,0.73,0.52,0.44,-0.15,0.31,
0.81,-0.07,0.82,0.49,0.44,-0.15,0.31,
0.811,-0.07,0.82,0.49,0.44,-0.15,0.31,
0.819,-0.07,0.82,0.49,0.46,-0.06,0.33,
0.82,-0.07,0.82,0.49,0.46,-0.06,0.33,
0.82,-0.07,0.90,0.42,0.46,-0.06,0.33,
0.821,-0.07,0.90,0.42,0.46,-0.06,0.33,
0.828,-0.07,0.90,0.42,0.47,0.04,0.34,
0.83,-0.07,0.90,0.42,0.47,0.04,0.34,
0.831,-0.06,0.94,0.30,0.47,0.04,0.34,
0.831,-0.06,0.94,0.30,0.47,0.04,0.34,
0.838,-0.06,0.94,0.30,0.47,0.12,0.35,
0.839,-0.06,0.94,0.30,0.47,0.12,0.35,
0.839,-0.12,0.91,0.19,0.47,0.12,0.35,
0.84,-0.12,0.91,0.19,0.47,0.12,0.35,
0.848,-0.12,0.91,0.19,0.48,0.19,0.35,
0.849,-0.12,0.91,0.19,0.48,0.19,0.35,
0.85,-0.29,0.80,0.14,0.48,0.19,0.35,
0.85,-0.29,0.80,0.14,0.48,0.19,0.35,
0.857,-0.29,0.80,0.14,0.49,0.24,0.34,
0.858,-0.29,0.80,0.14,0.49,0.24,0.34,
0.859,-0.55,0.61,0.12,0.49,0.24,0.34,
0.86,-0.55,0.61,0.12,0.49,0.24,0.34,
0.866,-0.55,0.61,0.12,0.46,0.29,0.32,
0.868,-0.55,0.61,0.12,0.46,0.29,0.32,
0.869,-0.81,0.39,0.13,0.46,0.29,0.32,
0.87,-0.81,0.39,0.13,0.46,0.29,0.32,
0.876,-0.81,0.39,0.13,0.40,0.38,0.30,
0.877,-0.81,0.39,0.13,0.40,0.38,0.30,
0.878,-1.01,0.19,0.15,0.40,0.38,0.30,
0.878,-1.01,0.19,0.15,0.40,0.38,0.30,
0.885,-1.01,0.19,0.15,0.29,0.50,0.27,
0.886,-1.01,0.19,0.15,0.29,0.50,0.27,
0.887,-1.11,0.01,0.16,0.29,0.50,0.27,
0.887,-1.11,0.01,0.16,0.29,0.50,0.27,
0.897,-1.11,0.01,0.16,0.13,0.64,0.23,
0.898,-1.11,0.01,0.16,0.13,0.64,0.23,
0.899,-1.12,-0.06,0.20,0.13,0.64,0.23,
0.899,-1.12,-0.06,0.20,0.13,0.64,0.23,
0.905,-1.12,-0.06,0.20,-0.04,0.77,0.20,
0.906,-1.12,-0.06,0.20,-0.04,0.77,0.20,
0.906,-1.05,-0.01,0.24,-0.04,0.77,0.20,
0.907,-1.05,-0.01,0.24,-0.04,0.77,0.20,
0.915,-1.05,-0.01,0.24,-0.20,0.87,0.18,
0.916,-1.05,-0.01,0.24,-0.20,0.87,0.18,
0.916,-0.95,0.11,0.24,-0.20,0.87,0.18,
0.917,-0.95,0.11,0.24,-0.20,0.87,0.18,
0.925,-0.95,0.11,0.24,-0.32,0.91,0.17,
0.926,-0.95,0.11,0.24,-0.32,0.91,0.17,
0.927,-0.83,0.25,0.17,-0.32,0.91,0.17,
0.927,-0.83,0.25,0.17,-0.32,0.91,0.17,
0.933,-0.83,0.25,0.17,-0.32,0.91,0.17,
0.934,-0.83,0.25,0.17,-0.32,0.91,0.17,
0.94,-0.83,0.25,0.17,-0.32,0.91,0.17,
0.94,-0.83,0.25,0.17,-0.32,0.91,0.17,
0.943,-0.83,0.25,0.17,-0.39,0.89,0.16,
0.944,-0.83,0.25,0.17,-0.39,0.89,0.16,
0.944,-0.60,0.40,-0.21,-0.39,0.89,0.16,
0.945,-0.60,0.40,-0.21,-0.39,0.89,0.16,
0.952,-0.60,0.40,-0.21,-0.38,0.80,0.15,
0.953,-0.60,0.40,-0.21,-0.38,0.80,0.15,
0.953,-0.52,0.42,-0.42,-0.38,0.80,0.15,
0.954,-0.52,0.42,-0.42,-0.38,0.80,0.15,
0.961,-0.52,0.42,-0.42,-0.31,0.68,0.16,
0.962,-0.52,0.42,-0.42,-0.31,0.68,0.16,
0.963,-0.46,0.46,-0.55,-0.31,0.68,0.16,
0.964,-0.46,0.46,-0.55,-0.31,0.68,0.16,
0.971,-0.46,0.46,-0.55,-0.20,0.54,0.19,
0.973,-0.46,0.46,-0.55,-0.20,0.54,0.19,
0.974,-0.38,0.51,-0.57,-0.20,0.54,0.19,
0.975,-0.38,0.51,-0.57,-0.20,0.54,0.19,
0.981,-0.38,0.51,-0.57,-0.08,0.41,0.23,
0.982,-0.38,0.51,-0.57,-0.08,0.41,0.23,
0.984,-0.25,0.54,-0.52,-0.08,0.41,0.23,
0.985,-0.25,0.54,-0.52,-0.08,0.41,0.23,
0.998,-0.25,0.54,-0.52,0.03,0.28,0.25,
1.0,-0.25,0.54,-0.52,0.03,0.28,0.25,
1.0,-0.13,0.51,-0.40,0.03,0.28,0.25,
1.001,-0.13,0.51,-0.40,0.03,0.28,0.25,
1.002,-0.13,0.51,-0.40,0.12,0.15,0.26,
1.002,-0.13,0.51,-0.40,0.12,0.15,0.26,
1.003,-0.02,0.46,-0.27,0.12,0.15,0.26,
1.004,-0.02,0.46,-0.27,0.12,0.15,0.26,
1.009,-0.02,0.46,-0.27,0.19,0.02,0.26,
1.01,-0.02,0.46,-0.27,0.19,0.02,0.26,
1.011,-0.01,0.38,-0.18,0.19,0.02,0.26,
1.011,-0.01,0.38,-0.18,0.19,0.02,0.26,
1.019,-0.01,0.38,-0.18,0.22,-0.11,0.24,
1.02,-0.01,0.38,-0.18,0.22,-0.11,0.24,
1.02,-0.10,0.29,-0.07,0.22,-0.11,0.24,
1.021,-0.10,0.29,-0.07,0.22,-0.11,0.24,
1.029,-0.10,0.29,-0.07,0.22,-0.23,0.22,
1.031,-0.10,0.29,-0.07,0.22,-0.23,0.22,
1.031,-0.21,0.23,0.02,0.22,-0.23,0.22,
1.032,-0.21,0.23,0.02,0.22,-0.23,0.22,
1.039,-0.21,0.23,0.02,0.17,-0.30,0.21,
1.04,-0.21,0.23,0.02,0.17,-0.30,0.21,
1.04,-0.30,0.20,0.13,0.17,-0.30,0.21,
1.041,-0.30,0.20,0.13,0.17,-0.30,0.21,
1.047,-0.30,0.20,0.13,0.11,-0.31,0.21,
1.049,-0.30,0.20,0.13,0.11,-0.31,0.21,
1.051,-0.32,0.20,0.22,0.11,-0.31,0.21,
1.052,-0.32,0.20,0.22,0.11,-0.31,0.21,
1.057,-0.32,0.20,0.22,0.04,-0.28,0.22,
1.057,-0.32,0.20,0.22,0.04,-0.28,0.22,
1.058,-0.26,0.24,0.25,0.04,-0.28,0.22,
1.058,-0.26,0.24,0.25,0.04,-0.28,0.22,
1.066,-0.26,0.24,0.25,-0.02,-0.23,0.21,
1.067,-0.26,0.24,0.25,-0.02,-0.23,0.21,
1.068,-0.20,0.26,0.25,-0.02,-0.23,0.21,
1.068,-0.20,0.26,0.25,-0.02,-0.23,0.21,
1.089,-0.20,0.26,0.25,-0.06,-0.19,0.19,
1.09,-0.20,0.26,0.25,-0.06,-0.19,0.19,
1.091,-0.18,0.25,0.16,-0.06,-0.19,0.19,
1.091,-0.18,0.25,0.16,-0.06,-0.19,0.19,
1.092,-0.18,0.25,0.16,-0.06,-0.19,0.19,
1.093,-0.18,0.25,0.16,-0.06,-0.19,0.19,
1.093,-0.18,0.25,0.16,-0.06,-0.19,0.19,
1.094,-0.18,0.25,0.16,-0.06,-0.19,0.19,
1.094,-0.18,0.25,0.16,-0.06,-0.19,0.19,
1.095,-0.18,0.25,0.16,-0.06,-0.19,0.19,
1.103,-0.18,0.25,0.16,-0.07,-0.12,0.19,
1.104,-0.18,0.25,0.16,-0.07,-0.12,0.19,
1.104,-0.36,0.08,-0.35,-0.07,-0.12,0.19,
1.105,-0.36,0.08,-0.35,-0.07,-0.12,0.19,
1.111,-0.36,0.08,-0.35,-0.07,-0.07,0.22,
1.112,-0.36,0.08,-0.35,-0.07,-0.07,0.22,
1.112,-0.48,-0.00,-0.66,-0.07,-0.07,0.22,
1.113,-0.48,-0.00,-0.66,-0.07,-0.07,0.22,
1.119,-0.48,-0.00,-0.66,-0.08,0.01,0.28,
1.119,-0.48,-0.00,-0.66,-0.08,0.01,0.28,
1.119,-0.70,-0.12,-0.87,-0.08,0.01,0.28,
1.12,-0.70,-0.12,-0.87,-0.08,0.01,0.28,
1.129,-0.70,-0.12,-0.87,-0.08,0.12,0.34,
1.13,-0.70,-0.12,-0.87,-0.08,0.12,0.34,
1.131,-0.99,-0.23,-0.97,-0.08,0.12,0.34,
1.131,-0.99,-0.23,-0.97,-0.08,0.12,0.34,
1.138,-0.99,-0.23,-0.97,-0.10,0.26,0.40,
1.139,-0.99,-0.23,-0.97,-0.10,0.26,0.40,
1.14,-1.38,-0.31,-0.86,-0.10,0.26,0.40,
1.14,-1.38,-0.31,-0.86,-0.10,0.26,0.40,
1.148,-1.38,-0.31,-0.86,-0.14,0.45,0.47,
1.15,-1.38,-0.31,-0.86,-0.14,0.45,0.47,
1.151,-1.81,-0.39,-0.53,-0.14,0.45,0.47,
1.153,-1.81,-0.39,-0.53,-0.14,0.45,0.47,
1.159,-1.81,-0.39,-0.53,-0.21,0.70,0.55,
1.16,-1.81,-0.39,-0.53,-0.21,0.70,0.55,
1.161,-2.11,-0.42,-0.04,-0.21,0.70,0.55,
1.162,-2.11,-0.42,-0.04,-0.21,0.70,0.55,
1.166,-2.11,-0.42,-0.04,-0.30,0.99,0.65,
1.167,-2.11,-0.42,-0.04,-0.30,0.99,0.65,
1.168,-2.22,-0.41,0.56,-0.30,0.99,0.65,
1.169,-2.22,-0.41,0.56,-0.30,0.99,0.65,
1.178,-2.22,-0.41,0.56,-0.40,1.26,0.74,
1.18,-2.22,-0.41,0.56,-0.40,1.26,0.74,
1.181,-1.97,-0.34,1.08,-0.40,1.26,0.74,
1.181,-1.97,-0.34,1.08,-0.40,1.26,0.74,
1.186,-1.97,-0.34,1.08,-0.49,1.45,0.80,
1.187,-1.97,-0.34,1.08,-0.49,1.45,0.80,
1.187,-0.19,-0.20,1.37,-0.49,1.45,0.80,
1.188,-0.19,-0.20,1.37,-0.49,1.45,0.80,
1.195,-0.19,-0.20,1.37,-0.55,1.45,0.80,
1.195,-0.19,-0.20,1.37,-0.55,1.45,0.80,
1.196,0.29,-0.00,1.52,-0.55,1.45,0.80,
1.196,0.29,-0.00,1.52,-0.55,1.45,0.80,
1.204,0.29,-0.00,1.52,-0.56,1.17,0.72,
1.205,0.29,-0.00,1.52,-0.56,1.17,0.72,
1.206,1.89,0.09,1.62,-0.56,1.17,0.72,
1.206,1.89,0.09,1.62,-0.56,1.17,0.72,
1.215,1.89,0.09,1.62,-0.49,0.61,0.58,
1.216,1.89,0.09,1.62,-0.49,0.61,0.58,
1.217,2.16,-0.06,1.60,-0.49,0.61,0.58,
1.217,2.16,-0.06,1.60,-0.49,0.61,0.58,
1.224,2.16,-0.06,1.60,-0.37,-0.16,0.35,
1.225,2.16,-0.06,1.60,-0.37,-0.16,0.35,
1.226,2.10,-0.43,1.47,-0.37,-0.16,0.35,
1.226,2.10,-0.43,1.47,-0.37,-0.16,0.35,
1.233,2.10,-0.43,1.47,-0.37,-0.16,0.35,
1.234,2.10,-0.43,1.47,-0.37,-0.16,0.35,
1.234,2.10,-0.43,1.47,-0.37,-0.16,0.35,
1.235,2.10,-0.43,1.47,-0.37,-0.16,0.35,
1.242,2.10,-0.43,1.47,-0.24,-0.97,0.03,
1.243,2.10,-0.43,1.47,-0.24,-0.97,0.03,
1.244,-1.40,-1.33,-0.57,-0.24,-0.97,0.03,
1.244,-1.40,-1.33,-0.57,-0.24,-0.97,0.03,
1.253,-1.40,-1.33,-0.57,-0.17,-1.53,-0.03,
1.255,-1.40,-1.33,-0.57,-0.17,-1.53,-0.03,
1.256,-3.00,-1.64,-0.80,-0.17,-1.53,-0.03,
1.257,-3.00,-1.64,-0.80,-0.17,-1.53,-0.03,
1.262,-3.00,-1.64,-0.80,-0.23,-1.51,0.06,
1.264,-3.00,-1.64,-0.80,-0.23,-1.51,0.06,
1.265,-3.46,-1.92,-1.01,-0.23,-1.51,0.06,
1.266,-3.46,-1.92,-1.01,-0.23,-1.51,0.06,
1.271,-3.46,-1.92,-1.01,-0.44,-0.82,0.17,
1.272,-3.46,-1.92,-1.01,-0.44,-0.82,0.17,
1.273,-4.00,-2.19,-0.94,-0.44,-0.82,0.17,
1.273,-4.00,-2.19,-0.94,-0.44,-0.82,0.17,
1.282,-4.00,-2.19,-0.94,-0.45,0.29,0.38,
1.283,-4.00,-2.19,-0.94,-0.45,0.29,0.38,
1.283,-4.29,-2.43,-0.64,-0.45,0.29,0.38,
1.284,-4.29,-2.43,-0.64,-0.45,0.29,0.38,
1.29,-4.29,-2.43,-0.64,-0.26,1.41,0.50,
1.291,-4.29,-2.43,-0.64,-0.26,1.41,0.50,
1.291,-4.26,-2.54,-0.19,-0.26,1.41,0.50,
1.292,-4.26,-2.54,-0.19,-0.26,1.41,0.50,
1.3,-4.26,-2.54,-0.19,-0.12,2.27,0.51,
1.301,-4.26,-2.54,-0.19,-0.12,2.27,0.51,
1.301,-3.91,-2.46,0.34,-0.12,2.27,0.51,
1.302,-3.91,-2.46,0.34,-0.12,2.27,0.51,
1.309,-3.91,-2.46,0.34,-0.00,2.81,0.45,
1.31,-3.91,-2.46,0.34,-0.00,2.81,0.45,
1.311,-3.44,-2.26,0.82,-0.00,2.81,0.45,
1.311,-3.44,-2.26,0.82,-0.00,2.81,0.45,
1.319,-3.44,-2.26,0.82,0.08,3.00,0.36,
1.32,-3.44,-2.26,0.82,0.08,3.00,0.36,
1.32,-2.98,-2.04,1.25,0.08,3.00,0.36,
1.321,-2.98,-2.04,1.25,0.08,3.00,0.36,
1.328,-2.98,-2.04,1.25,-0.02,2.85,0.27,
1.33,-2.98,-2.04,1.25,-0.02,2.85,0.27,
1.331,-2.54,-1.89,1.58,-0.02,2.85,0.27,
1.332,-2.54,-1.89,1.58,-0.02,2.85,0.27,
1.338,-2.54,-1.89,1.58,-0.20,2.46,0.20,
1.339,-2.54,-1.89,1.58,-0.20,2.46,0.20,
1.339,-2.13,-1.88,1.74,-0.20,2.46,0.20,
1.34,-2.13,-1.88,1.74,-0.20,2.46,0.20,
1.348,-2.13,-1.88,1.74,-0.25,1.93,0.12,
1.35,-2.13,-1.88,1.74,-0.25,1.93,0.12,
1.35,-1.64,-2.00,1.94,-0.25,1.93,0.12,
1.351,-1.64,-2.00,1.94,-0.25,1.93,0.12,
1.359,-1.64,-2.00,1.94,-0.22,1.35,0.04,
1.36,-1.64,-2.00,1.94,-0.22,1.35,0.04,
1.36,-1.08,-2.17,2.31,-0.22,1.35,0.04,
1.361,-1.08,-2.17,2.31,-0.22,1.35,0.04,
1.366,-1.08,-2.17,2.31,-0.17,0.77,-0.08,
1.367,-1.08,-2.17,2.31,-0.17,0.77,-0.08,
1.368,-0.49,-2.45,2.66,-0.17,0.77,-0.08,
1.368,-0.49,-2.45,2.66,-0.17,0.77,-0.08,
1.377,-0.49,-2.45,2.66,-0.15,0.21,-0.23,
1.378,-0.49,-2.45,2.66,-0.15,0.21,-0.23,
1.378,0.11,-2.77,3.13,-0.15,0.21,-0.23,
1.378,0.11,-2.77,3.13,-0.15,0.21,-0.23,
1.386,0.11,-2.77,3.13,-0.16,-0.34,-0.41,
1.387,0.11,-2.77,3.13,-0.16,-0.34,-0.41,
1.389,0.68,-3.07,3.42,-0.16,-0.34,-0.41,
1.39,0.68,-3.07,3.42,-0.16,-0.34,-0.41,
1.395,0.68,-3.07,3.42,-0.22,-0.86,-0.62,
1.396,0.68,-3.07,3.42,-0.22,-0.86,-0.62,
1.397,1.27,-3.30,3.36,-0.22,-0.86,-0.62,
1.398,1.27,-3.30,3.36,-0.22,-0.86,-0.62,
1.405,1.27,-3.30,3.36,-0.33,-1.34,-0.84,
1.405,1.27,-3.30,3.36,-0.33,-1.34,-0.84,
1.406,1.86,-3.29,3.21,-0.33,-1.34,-0.84,
1.407,1.86,-3.29,3.21,-0.33,-1.34,-0.84,
1.42,1.86,-3.29,3.21,-0.47,-1.76,-1.04,
1.421,1.86,-3.29,3.21,-0.47,-1.76,-1.04,
1.421,2.31,-3.08,2.84,-0.47,-1.76,-1.04,
1.422,2.31,-3.08,2.84,-0.47,-1.76,-1.04,
1.427,2.31,-3.08,2.84,-0.60,-2.11,-1.21,
1.428,2.31,-3.08,2.84,-0.60,-2.11,-1.21,
1.429,2.54,-2.83,2.32,-0.60,-2.11,-1.21,
1.429,2.54,-2.83,2.32,-0.60,-2.11,-1.21,
1.433,2.54,-2.83,2.32,-0.60,-2.11,-1.21,
1.434,2.54,-2.83,2.32,-0.60,-2.11,-1.21,
1.434,2.54,-2.83,2.32,-0.60,-2.11,-1.21,
1.434,2.54,-2.83,2.32,-0.60,-2.11,-1.21,
1.442,2.54,-2.83,2.32,-0.68,-2.38,-1.31,
1.443,2.54,-2.83,2.32,-0.68,-2.38,-1.31,
1.444,2.96,-2.05,1.86,-0.68,-2.38,-1.31,
1.445,2.96,-2.05,1.86,-0.68,-2.38,-1.31,
1.453,2.96,-2.05,1.86,-0.69,-2.57,-1.33,
1.454,2.96,-2.05,1.86,-0.69,-2.57,-1.33,
1.454,3.53,-1.68,2.06,-0.69,-2.57,-1.33,
1.455,3.53,-1.68,2.06,-0.69,-2.57,-1.33,
1.462,3.53,-1.68,2.06,-0.60,-2.70,-1.26,
1.463,3.53,-1.68,2.06,-0.60,-2.70,-1.26,
1.464,5.27,-1.47,2.61,-0.60,-2.70,-1.26,
1.465,5.27,-1.47,2.61,-0.60,-2.70,-1.26,
1.471,5.27,-1.47,2.61,-0.43,-2.84,-1.17,
1.472,5.27,-1.47,2.61,-0.43,-2.84,-1.17,
1.473,5.85,-1.59,4.13,-0.43,-2.84,-1.17,
1.473,5.85,-1.59,4.13,-0.43,-2.84,-1.17,
1.482,5.85,-1.59,4.13,-0.21,-3.06,-1.10,
1.483,5.85,-1.59,4.13,-0.21,-3.06,-1.10,
1.483,7.34,-2.01,5.73,-0.21,-3.06,-1.10,
1.484,7.34,-2.01,5.73,-0.21,-3.06,-1.10,
1.492,7.34,-2.01,5.73,-0.03,-3.38,-1.12,
1.493,7.34,-2.01,5.73,-0.03,-3.38,-1.12,
1.493,7.54,-2.50,6.08,-0.03,-3.38,-1.12,
1.494,7.54,-2.50,6.08,-0.03,-3.38,-1.12,
1.5,7.54,-2.50,6.08,0.04,-3.72,-1.20,
1.501,7.54,-2.50,6.08,0.04,-3.72,-1.20,
1.501,7.63,-2.84,6.62,0.04,-3.72,-1.20,
1.502,7.63,-2.84,6.62,0.04,-3.72,-1.20,
1.512,7.63,-2.84,6.62,-0.02,-3.95,-1.25,
1.513,7.63,-2.84,6.62,-0.02,-3.95,-1.25,
1.514,7.43,-2.98,7.08,-0.02,-3.95,-1.25,
1.514,7.43,-2.98,7.08,-0.02,-3.95,-1.25,
1.519,7.43,-2.98,7.08,-0.16,-3.99,-1.20,
1.52,7.43,-2.98,7.08,-0.16,-3.99,-1.20,
1.52,6.90,-3.00,7.13,-0.16,-3.99,-1.20,
1.521,6.90,-3.00,7.13,-0.16,-3.99,-1.20,
1.529,6.90,-3.00,7.13,-0.31,-3.82,-1.01,
1.53,6.90,-3.00,7.13,-0.31,-3.82,-1.01,
1.531,6.25,-2.92,6.68,-0.31,-3.82,-1.01,
1.532,6.25,-2.92,6.68,-0.31,-3.82,-1.01,
1.538,6.25,-2.92,6.68,-0.41,-3.49,-0.71,
1.539,6.25,-2.92,6.68,-0.41,-3.49,-0.71,
1.54,5.68,-2.83,4.93,-0.41,-3.49,-0.71,
1.541,5.68,-2.83,4.93,-0.41,-3.49,-0.71,
1.549,5.68,-2.83,4.93,-0.45,-3.05,-0.36,
1.55,5.68,-2.83,4.93,-0.45,-3.05,-0.36,
1.551,5.27,-2.82,3.34,-0.45,-3.05,-0.36,
1.552,5.27,-2.82,3.34,-0.45,-3.05,-0.36,
1.558,5.27,-2.82,3.34,-0.45,-2.58,-0.02,
1.559,5.27,-2.82,3.34,-0.45,-2.58,-0.02,
1.56,5.09,-2.89,1.36,-0.45,-2.58,-0.02,
1.56,5.09,-2.89,1.36,-0.45,-2.58,-0.02,
1.567,5.09,-2.89,1.36,-0.46,-2.15,0.26,
1.568,5.09,-2.89,1.36,-0.46,-2.15,0.26,
1.569,5.08,-2.97,0.88,-0.46,-2.15,0.26,
1.57,5.08,-2.97,0.88,-0.46,-2.15,0.26,
1.576,5.08,-2.97,0.88,-0.51,-1.82,0.47,
1.577,5.08,-2.97,0.88,-0.51,-1.82,0.47,
1.577,4.94,-3.03,-0.83,-0.51,-1.82,0.47,
1.578,4.94,-3.03,-0.83,-0.51,-1.82,0.47,
1.585,4.94,-3.03,-0.83,-0.60,-1.60,0.61,
1.586,4.94,-3.03,-0.83,-0.60,-1.60,0.61,
1.587,4.48,-3.01,-1.34,-0.60,-1.60,0.61,
1.588,4.48,-3.01,-1.34,-0.60,-1.60,0.61,
1.595,4.48,-3.01,-1.34,-0.72,-1.47,0.73,
1.597,4.48,-3.01,-1.34,-0.72,-1.47,0.73,
1.598,3.91,-2.74,-1.86,-0.72,-1.47,0.73,
1.599,3.91,-2.74,-1.86,-0.72,-1.47,0.73,
1.605,3.91,-2.74,-1.86,-0.85,-1.39,0.86,
1.606,3.91,-2.74,-1.86,-0.85,-1.39,0.86,
1.606,3.54,-2.13,-2.25,-0.85,-1.39,0.86,
1.607,3.54,-2.13,-2.25,-0.85,-1.39,0.86,
1.615,3.54,-2.13,-2.25,-0.93,-1.33,1.04,
1.616,3.54,-2.13,-2.25,-0.93,-1.33,1.04,
1.617,3.79,-0.34,-2.53,-0.93,-1.33,1.04,
1.617,3.79,-0.34,-2.53,-0.93,-1.33,1.04,
1.625,3.79,-0.34,-2.53,-0.88,-1.26,1.25,
1.625,3.79,-0.34,-2.53,-0.88,-1.26,1.25,
1.626,5.92,0.26,-2.66,-0.88,-1.26,1.25,
1.626,5.92,0.26,-2.66,-0.88,-1.26,1.25,
1.633,5.92,0.26,-2.66,-0.88,-1.26,1.25,
1.634,5.92,0.26,-2.66,-0.88,-1.26,1.25,
1.635,5.92,0.26,-2.66,-0.88,-1.26,1.25,
1.636,5.92,0.26,-2.66,-0.88,-1.26,1.25,
1.642,5.92,0.26,-2.66,-0.62,-1.27,1.38,
1.643,5.92,0.26,-2.66,-0.62,-1.27,1.38,
1.644,7.70,0.92,-0.65,-0.62,-1.27,1.38,
1.645,7.70,0.92,-0.65,-0.62,-1.27,1.38,
1.653,7.70,0.92,-0.65,-0.13,-1.50,1.34,
1.653,7.70,0.92,-0.65,-0.13,-1.50,1.34,
1.654,7.68,0.79,-0.16,-0.13,-1.50,1.34,
1.656,7.68,0.79,-0.16,-0.13,-1.50,1.34,
1.662,7.68,0.79,-0.16,0.49,-1.99,1.10,
1.664,7.68,0.79,-0.16,0.49,-1.99,1.10,
1.665,7.35,0.54,1.47,0.49,-1.99,1.10,
1.666,7.35,0.54,1.47,0.49,-1.99,1.10,
1.671,7.35,0.54,1.47,1.05,-2.53,0.78,
1.672,7.35,0.54,1.47,1.05,-2.53,0.78,
1.673,6.86,0.25,1.57,1.05,-2.53,0.78,
1.674,6.86,0.25,1.57,1.05,-2.53,0.78,
1.681,6.86,0.25,1.57,1.45,-2.83,0.57,
1.682,6.86,0.25,1.57,1.45,-2.83,0.57,
1.683,6.23,-0.06,1.43,1.45,-2.83,0.57,
1.683,6.23,-0.06,1.43,1.45,-2.83,0.57,
1.691,6.23,-0.06,1.43,1.64,-2.78,0.51,
1.692,6.23,-0.06,1.43,1.64,-2.78,0.51,
1.693,5.42,-0.39,1.03,1.64,-2.78,0.51,
1.693,5.42,-0.39,1.03,1.64,-2.78,0.51,
1.7,5.42,-0.39,1.03,1.63,-2.48,0.57,
1.701,5.42,-0.39,1.03,1.63,-2.48,0.57,
1.701,3.66,-0.76,-0.90,1.63,-2.48,0.57,
1.702,3.66,-0.76,-0.90,1.63,-2.48,0.57,
1.709,3.66,-0.76,-0.90,1.46,-2.07,0.68,
1.71,3.66,-0.76,-0.90,1.46,-2.07,0.68,
1.71,3.04,-1.12,-1.29,1.46,-2.07,0.68,
1.711,3.04,-1.12,-1.29,1.46,-2.07,0.68,
1.719,3.04,-1.12,-1.29,1.19,-1.61,0.81,
1.72,3.04,-1.12,-1.29,1.19,-1.61,0.81,
1.72,2.41,-1.37,-1.91,1.19,-1.61,0.81,
1.721,2.41,-1.37,-1.91,1.19,-1.61,0.81,
1.729,2.41,-1.37,-1.91,0.85,-1.15,0.97,
1.73,2.41,-1.37,-1.91,0.85,-1.15,0.97,
1.731,1.96,-1.40,-2.51,0.85,-1.15,0.97,
1.731,1.96,-1.40,-2.51,0.85,-1.15,0.97,
1.738,1.96,-1.40,-2.51,0.49,-0.72,1.15,
1.739,1.96,-1.40,-2.51,0.49,-0.72,1.15,
1.74,1.76,-1.16,-2.89,0.49,-0.72,1.15,
1.74,1.76,-1.16,-2.89,0.49,-0.72,1.15,
1.748,1.76,-1.16,-2.89,0.14,-0.37,1.32,
1.749,1.76,-1.16,-2.89,0.14,-0.37,1.32,
1.749,1.82,-0.76,-3.06,0.14,-0.37,1.32,
1.75,1.82,-0.76,-3.06,0.14,-0.37,1.32,
1.758,1.82,-0.76,-3.06,-0.14,-0.13,1.46,
1.759,1.82,-0.76,-3.06,-0.14,-0.13,1.46,
1.76,2.11,-0.26,-2.99,-0.14,-0.13,1.46,
1.761,2.11,-0.26,-2.99,-0.14,-0.13,1.46,
1.766,2.11,-0.26,-2.99,-0.30,-0.02,1.52,
1.768,2.11,-0.26,-2.99,-0.30,-0.02,1.52,
1.769,2.51,0.24,-2.79,-0.30,-0.02,1.52,
1.77,2.51,0.24,-2.79,-0.30,-0.02,1.52,
1.776,2.51,0.24,-2.79,-0.30,-0.05,1.50,
1.777,2.51,0.24,-2.79,-0.30,-0.05,1.50,
1.777,2.90,0.70,-2.56,-0.30,-0.05,1.50,
1.778,2.90,0.70,-2.56,-0.30,-0.05,1.50,
1.786,2.90,0.70,-2.56,-0.13,-0.23,1.38,
1.786,2.90,0.70,-2.56,-0.13,-0.23,1.38,
1.787,3.19,1.10,-2.29,-0.13,-0.23,1.38,
1.788,3.19,1.10,-2.29,-0.13,-0.23,1.38,
1.795,3.19,1.10,-2.29,0.17,-0.51,1.20,
1.797,3.19,1.10,-2.29,0.17,-0.51,1.20,
1.798,3.20,1.38,-2.11,0.17,-0.51,1.20,
1.799,3.20,1.38,-2.11,0.17,-0.51,1.20,
1.805,3.20,1.38,-2.11,0.56,-0.83,0.99,
1.806,3.20,1.38,-2.11,0.56,-0.83,0.99,
1.806,2.93,1.54,-2.07,0.56,-0.83,0.99,
1.807,2.93,1.54,-2.07,0.56,-0.83,0.99,
1.814,2.93,1.54,-2.07,0.97,-1.10,0.79,
1.816,2.93,1.54,-2.07,0.97,-1.10,0.79,
1.816,2.42,1.58,-2.12,0.97,-1.10,0.79,
1.817,2.42,1.58,-2.12,0.97,-1.10,0.79,
1.825,2.42,1.58,-2.12,1.31,-1.27,0.61,
1.826,2.42,1.58,-2.12,1.31,-1.27,0.61,
1.826,1.83,1.61,-2.26,1.31,-1.27,0.61,
1.826,1.83,1.61,-2.26,1.31,-1.27,0.61,
1.833,1.83,1.61,-2.26,1.31,-1.27,0.61,
1.834,1.83,1.61,-2.26,1.31,-1.27,0.61,
1.835,1.83,1.61,-2.26,1.31,-1.27,0.61,
1.835,1.83,1.61,-2.26,1.31,-1.27,0.61,
1.842,1.83,1.61,-2.26,1.54,-1.30,0.46,
1.843,1.83,1.61,-2.26,1.54,-1.30,0.46,
1.844,0.95,1.68,-2.58,1.54,-1.30,0.46,
1.844,0.95,1.68,-2.58,1.54,-1.30,0.46,
1.853,0.95,1.68,-2.58,1.67,-1.18,0.35,
1.854,0.95,1.68,-2.58,1.67,-1.18,0.35,
1.855,0.73,1.78,-2.62,1.67,-1.18,0.35,
1.856,0.73,1.78,-2.62,1.67,-1.18,0.35,
1.862,0.73,1.78,-2.62,1.72,-0.96,0.30,
1.863,0.73,1.78,-2.62,1.72,-0.96,0.30,
1.865,0.77,1.84,-2.62,1.72,-0.96,0.30,
1.866,0.77,1.84,-2.62,1.72,-0.96,0.30,
1.872,0.77,1.84,-2.62,1.73,-0.68,0.27,
1.873,0.77,1.84,-2.62,1.73,-0.68,0.27,
1.873,1.02,1.92,-2.60,1.73,-0.68,0.27,
1.873,1.02,1.92,-2.60,1.73,-0.68,0.27,
1.882,1.02,1.92,-2.60,1.71,-0.44,0.23,
1.883,1.02,1.92,-2.60,1.71,-0.44,0.23,
1.883,1.48,2.12,-2.47,1.71,-0.44,0.23,
1.884,1.48,2.12,-2.47,1.71,-0.44,0.23,
1.891,1.48,2.12,-2.47,1.67,-0.32,0.18,
1.892,1.48,2.12,-2.47,1.67,-0.32,0.18,
1.893,2.77,2.42,-2.21,1.67,-0.32,0.18,
1.893,2.77,2.42,-2.21,1.67,-0.32,0.18,
1.9,2.77,2.42,-2.21,1.62,-0.39,0.10,
1.9,2.77,2.42,-2.21,1.62,-0.39,0.10,
1.901,2.96,2.78,-1.86,1.62,-0.39,0.10,
1.901,2.96,2.78,-1.86,1.62,-0.39,0.10,
1.91,2.96,2.78,-1.86,1.60,-0.65,-0.02,
1.91,2.96,2.78,-1.86,1.60,-0.65,-0.02,
1.911,3.22,3.09,-1.48,1.60,-0.65,-0.02,
1.911,3.22,3.09,-1.48,1.60,-0.65,-0.02,
1.919,3.22,3.09,-1.48,1.60,-1.02,-0.18,
1.919,3.22,3.09,-1.48,1.60,-1.02,-0.18,
1.92,3.37,3.25,-1.22,1.60,-1.02,-0.18,
1.921,3.37,3.25,-1.22,1.60,-1.02,-0.18,
1.929,3.37,3.25,-1.22,1.63,-1.36,-0.33,
1.93,3.37,3.25,-1.22,1.63,-1.36,-0.33,
1.931,3.38,3.21,-1.12,1.63,-1.36,-0.33,
1.931,3.38,3.21,-1.12,1.63,-1.36,-0.33,
1.938,3.38,3.21,-1.12,1.66,-1.58,-0.47,
1.938,3.38,3.21,-1.12,1.66,-1.58,-0.47,
1.939,3.25,3.00,-1.21,1.66,-1.58,-0.47,
1.939,3.25,3.00,-1.21,1.66,-1.58,-0.47,
1.949,3.25,3.00,-1.21,1.62,-1.68,-0.59,
1.95,3.25,3.00,-1.21,1.62,-1.68,-0.59,
1.95,2.98,2.65,-1.42,1.62,-1.68,-0.59,
1.951,2.98,2.65,-1.42,1.62,-1.68,-0.59,
1.958,2.98,2.65,-1.42,1.47,-1.69,-0.70,
1.958,2.98,2.65,-1.42,1.47,-1.69,-0.70,
1.959,2.57,2.18,-1.72,1.47,-1.69,-0.70,
1.959,2.57,2.18,-1.72,1.47,-1.69,-0.70,
1.967,2.57,2.18,-1.72,1.21,-1.66,-0.79,
1.968,2.57,2.18,-1.72,1.21,-1.66,-0.79,
1.968,2.05,1.69,-2.12,1.21,-1.66,-0.79,
1.969,2.05,1.69,-2.12,1.21,-1.66,-0.79,
1.977,2.05,1.69,-2.12,0.85,-1.60,-0.85,
1.978,2.05,1.69,-2.12,0.85,-1.60,-0.85,
1.978,1.41,1.24,-2.54,0.85,-1.60,-0.85,
1.979,1.41,1.24,-2.54,0.85,-1.60,-0.85,
1.986,1.41,1.24,-2.54,0.42,-1.51,-0.82,
1.988,1.41,1.24,-2.54,0.42,-1.51,-0.82,
1.989,0.72,0.83,-2.96,0.42,-1.51,-0.82,
1.99,0.72,0.83,-2.96,0.42,-1.51,-0.82,
1.996,0.72,0.83,-2.96,-0.05,-1.40,-0.74,
1.997,0.72,0.83,-2.96,-0.05,-1.40,-0.74,
1.998,0.02,0.45,-3.36,-0.05,-1.40,-0.74,
1.998,0.02,0.45,-3.36,-0.05,-1.40,-0.74,
2.006,0.02,0.45,-3.36,-0.53,-1.26,-0.69,
2.006,0.02,0.45,-3.36,-0.53,-1.26,-0.69,
2.007,-0.64,0.09,-3.73,-0.53,-1.26,-0.69,
2.007,-0.64,0.09,-3.73,-0.53,-1.26,-0.69,
2.014,-0.64,0.09,-3.73,-1.00,-1.07,-0.68,
2.015,-0.64,0.09,-3.73,-1.00,-1.07,-0.68,
2.016,-1.20,-0.25,-4.04,-1.00,-1.07,-0.68,
2.017,-1.20,-0.25,-4.04,-1.00,-1.07,-0.68,
2.025,-1.20,-0.25,-4.04,-1.44,-0.85,-0.65,
2.026,-1.20,-0.25,-4.04,-1.44,-0.85,-0.65,
2.026,-1.60,-0.51,-4.28,-1.44,-0.85,-0.65,
2.026,-1.60,-0.51,-4.28,-1.44,-0.85,-0.65,
2.033,-1.60,-0.51,-4.28,-1.44,-0.85,-0.65,
2.034,-1.60,-0.51,-4.28,-1.44,-0.85,-0.65,
2.035,-1.60,-0.51,-4.28,-1.44,-0.85,-0.65,
2.035,-1.60,-0.51,-4.28,-1.44,-0.85,-0.65,
2.042,-1.60,-0.51,-4.28,-1.85,-0.60,-0.60,
2.043,-1.60,-0.51,-4.28,-1.85,-0.60,-0.60,
2.044,-1.76,-0.55,-4.55,-1.85,-0.60,-0.60,
2.044,-1.76,-0.55,-4.55,-1.85,-0.60,-0.60,
2.052,-1.76,-0.55,-4.55,-2.22,-0.35,-0.53,
2.053,-1.76,-0.55,-4.55,-2.22,-0.35,-0.53,
2.054,-1.74,-0.50,-4.50,-2.22,-0.35,-0.53,
2.054,-1.74,-0.50,-4.50,-2.22,-0.35,-0.53,
2.063,-1.74,-0.50,-4.50,-2.51,-0.14,-0.44,
2.065,-1.74,-0.50,-4.50,-2.51,-0.14,-0.44,
2.066,-1.74,-0.48,-4.36,-2.51,-0.14,-0.44,
2.067,-1.74,-0.48,-4.36,-2.51,-0.14,-0.44,
2.084,-1.74,-0.48,-4.36,-2.68,0.00,-0.36,
2.086,-1.74,-0.48,-4.36,-2.68,0.00,-0.36,
2.087,-1.83,-0.58,-4.11,-2.68,0.00,-0.36,
2.087,-1.83,-0.58,-4.11,-2.68,0.00,-0.36,
2.088,-1.83,-0.58,-4.11,-2.68,0.00,-0.36,
2.088,-1.83,-0.58,-4.11,-2.68,0.00,-0.36,
2.089,-1.83,-0.58,-4.11,-2.68,0.00,-0.36,
2.09,-1.83,-0.58,-4.11,-2.68,0.00,-0.36,
2.09,-1.83,-0.58,-4.11,-2.68,0.00,-0.36,
2.091,-1.83,-0.58,-4.11,-2.68,0.00,-0.36,
2.094,-1.83,-0.58,-4.11,-2.57,1.01,-0.10,
2.095,-1.83,-0.58,-4.11,-2.57,1.01,-0.10,
2.096,-2.53,-1.59,-3.12,-2.57,1.01,-0.10,
2.097,-2.53,-1.59,-3.12,-2.57,1.01,-0.10,
2.104,-2.53,-1.59,-3.12,-2.57,1.01,-0.10,
2.105,-2.53,-1.59,-3.12,-2.57,1.01,-0.10,
2.106,-2.53,-1.59,-3.12,-2.57,1.01,-0.10,
2.106,-2.53,-1.59,-3.12,-2.57,1.01,-0.10,
2.117,-2.53,-1.59,-3.12,-2.10,1.86,-0.01,
2.118,-2.53,-1.59,-3.12,-2.10,1.86,-0.01,
2.119,-3.15,-2.29,-2.52,-2.10,1.86,-0.01,
2.12,-3.15,-2.29,-2.52,-2.10,1.86,-0.01,
2.124,-3.15,-2.29,-2.52,-1.42,2.10,0.13,
2.125,-3.15,-2.29,-2.52,-1.42,2.10,0.13,
2.13,-3.36,-2.51,-2.43,-1.42,2.10,0.13,
2.13,-3.36,-2.51,-2.43,-1.42,2.10,0.13,
2.133,-3.36,-2.51,-2.43,-1.42,2.10,0.13,
2.134,-3.36,-2.51,-2.43,-1.42,2.10,0.13,
2.135,-3.36,-2.51,-2.43,-1.42,2.10,0.13,
2.135,-3.36,-2.51,-2.43,-1.42,2.10,0.13,
2.143,-3.36,-2.51,-2.43,-1.20,2.26,0.19,
2.144,-3.36,-2.51,-2.43,-1.20,2.26,0.19,
2.145,-3.27,-2.69,-2.67,-1.20,2.26,0.19,
2.145,-3.27,-2.69,-2.67,-1.20,2.26,0.19,
2.152,-3.27,-2.69,-2.67,-1.28,2.38,0.17,
2.153,-3.27,-2.69,-2.67,-1.28,2.38,0.17,
2.154,-2.91,-2.65,-2.82,-1.28,2.38,0.17,
2.155,-2.91,-2.65,-2.82,-1.28,2.38,0.17,
2.162,-2.91,-2.65,-2.82,-1.35,2.33,0.33,
2.164,-2.91,-2.65,-2.82,-1.35,2.33,0.33,
2.165,-2.34,-2.51,-2.88,-1.35,2.33,0.33,
2.165,-2.34,-2.51,-2.88,-1.35,2.33,0.33,
2.171,-2.34,-2.51,-2.88,-1.36,2.09,0.65,
2.172,-2.34,-2.51,-2.88,-1.36,2.09,0.65,
2.173,-0.87,-2.34,-2.83,-1.36,2.09,0.65,
2.173,-0.87,-2.34,-2.83,-1.36,2.09,0.65,
2.181,-0.87,-2.34,-2.83,-1.28,1.62,0.89,
2.183,-0.87,-2.34,-2.83,-1.28,1.62,0.89,
2.184,-0.42,-2.15,-2.63,-1.28,1.62,0.89,
2.184,-0.42,-2.15,-2.63,-1.28,1.62,0.89,
2.191,-0.42,-2.15,-2.63,-1.05,0.83,0.89,
2.192,-0.42,-2.15,-2.63,-1.05,0.83,0.89,
2.193,0.19,-2.06,-2.28,-1.05,0.83,0.89,
2.194,0.19,-2.06,-2.28,-1.05,0.83,0.89,
2.2,0.19,-2.06,-2.28,-0.64,-0.18,0.71,
2.201,0.19,-2.06,-2.28,-0.64,-0.18,0.71,
2.202,1.76,-2.06,-1.80,-0.64,-0.18,0.71,
2.203,1.76,-2.06,-1.80,-0.64,-0.18,0.71,
2.209,1.76,-2.06,-1.80,-0.13,-1.21,0.72,
2.21,1.76,-2.06,-1.80,-0.13,-1.21,0.72,
2.21,2.25,-2.07,-0.13,-0.13,-1.21,0.72,
2.211,2.25,-2.07,-0.13,-0.13,-1.21,0.72,
2.219,2.25,-2.07,-0.13,0.42,-2.08,0.87,
2.22,2.25,-2.07,-0.13,0.42,-2.08,0.87,
2.221,4.03,-2.05,0.11,0.42,-2.08,0.87,
2.222,4.03,-2.05,0.11,0.42,-2.08,0.87,
2.229,4.03,-2.05,0.11,0.94,-2.70,0.94,
2.23,4.03,-2.05,0.11,0.94,-2.70,0.94,
2.231,4.32,-1.98,0.33,0.94,-2.70,0.94,
2.231,4.32,-1.98,0.33,0.94,-2.70,0.94,
2.239,4.32,-1.98,0.33,1.41,-3.09,0.96,
2.239,4.32,-1.98,0.33,1.41,-3.09,0.96,
2.24,4.71,-1.80,0.25,1.41,-3.09,0.96,
2.24,4.71,-1.80,0.25,1.41,-3.09,0.96,
2.247,4.71,-1.80,0.25,1.78,-3.30,0.98,
2.249,4.71,-1.80,0.25,1.78,-3.30,0.98,
2.249,5.08,-1.51,-1.39,1.78,-3.30,0.98,
2.25,5.08,-1.51,-1.39,1.78,-3.30,0.98,
2.258,5.08,-1.51,-1.39,2.05,-3.42,1.02,
2.259,5.08,-1.51,-1.39,2.05,-3.42,1.02,
2.259,5.31,-1.18,-2.98,2.05,-3.42,1.02,
2.26,5.31,-1.18,-2.98,2.05,-3.42,1.02,
2.266,5.31,-1.18,-2.98,2.21,-3.56,1.02,
2.267,5.31,-1.18,-2.98,2.21,-3.56,1.02,
2.268,5.49,-0.77,-4.52,2.21,-3.56,1.02,
2.268,5.49,-0.77,-4.52,2.21,-3.56,1.02,
2.276,5.49,-0.77,-4.52,2.25,-3.80,0.97,
2.278,5.49,-0.77,-4.52,2.25,-3.80,0.97,
2.278,5.72,-0.35,-4.96,2.25,-3.80,0.97,
2.279,5.72,-0.35,-4.96,2.25,-3.80,0.97,
2.286,5.72,-0.35,-4.96,2.23,-4.18,0.86,
2.287,5.72,-0.35,-4.96,2.23,-4.18,0.86,
2.288,6.06,0.02,-6.69,2.23,-4.18,0.86,
2.289,6.06,0.02,-6.69,2.23,-4.18,0.86,
2.297,6.06,0.02,-6.69,2.18,-4.65,0.69,
2.299,6.06,0.02,-6.69,2.18,-4.65,0.69,
2.3,6.51,0.38,-6.89,2.18,-4.65,0.69,
2.301,6.51,0.38,-6.89,2.18,-4.65,0.69,
2.304,6.51,0.38,-6.89,2.12,-5.13,0.47,
2.305,6.51,0.38,-6.89,2.12,-5.13,0.47,
2.306,7.04,0.71,-7.24,2.12,-5.13,0.47,
2.306,7.04,0.71,-7.24,2.12,-5.13,0.47,
2.314,7.04,0.71,-7.24,2.03,-5.56,0.19,
2.315,7.04,0.71,-7.24,2.03,-5.56,0.19,
2.315,7.54,0.98,-7.53,2.03,-5.56,0.19,
2.316,7.54,0.98,-7.53,2.03,-5.56,0.19,
2.324,7.54,0.98,-7.53,1.92,-5.88,-0.10,
2.325,7.54,0.98,-7.53,1.92,-5.88,-0.10,
2.325,8.00,1.22,-7.65,1.92,-5.88,-0.10,
2.326,8.00,1.22,-7.65,1.92,-5.88,-0.10,
2.334,8.00,1.22,-7.65,1.92,-5.88,-0.10,
2.335,8.00,1.22,-7.65,1.92,-5.88,-0.10,
2.336,8.00,1.22,-7.65,1.92,-5.88,-0.10,
2.336,8.00,1.22,-7.65,1.92,-5.88,-0.10,
2.343,8.00,1.22,-7.65,1.83,-6.03,-0.36,
2.344,8.00,1.22,-7.65,1.83,-6.03,-0.36,
2.344,8.52,1.31,-7.17,1.83,-6.03,-0.36,
2.345,8.52,1.31,-7.17,1.83,-6.03,-0.36,
2.353,8.52,1.31,-7.17,1.76,-5.99,-0.57,
2.354,8.52,1.31,-7.17,1.76,-5.99,-0.57,
2.354,8.45,1.26,-6.62,1.76,-5.99,-0.57,
2.355,8.45,1.26,-6.62,1.76,-5.99,-0.57,
2.362,8.45,1.26,-6.62,1.71,-5.74,-0.71,
2.364,8.45,1.26,-6.62,1.71,-5.74,-0.71,
2.371,8.13,1.08,-6.04,1.71,-5.74,-0.71,
2.371,8.13,1.08,-6.04,1.71,-5.74,-0.71,
2.372,8.13,1.08,-6.04,1.66,-5.30,-0.77,
2.373,8.13,1.08,-6.04,1.66,-5.30,-0.77,
2.373,7.61,0.87,-5.56,1.66,-5.30,-0.77,
2.374,7.61,0.87,-5.56,1.66,-5.30,-0.77,
2.381,7.61,0.87,-5.56,1.57,-4.69,-0.73,
2.383,7.61,0.87,-5.56,1.57,-4.69,-0.73,
2.383,6.95,0.67,-5.23,1.57,-4.69,-0.73,
2.384,6.95,0.67,-5.23,1.57,-4.69,-0.73,
2.391,6.95,0.67,-5.23,1.45,-3.99,-0.62,
2.392,6.95,0.67,-5.23,1.45,-3.99,-0.62,
2.393,6.14,0.50,-5.06,1.45,-3.99,-0.62,
2.393,6.14,0.50,-5.06,1.45,-3.99,-0.62,
2.4,6.14,0.50,-5.06,1.28,-3.29,-0.45,
2.401,6.14,0.50,-5.06,1.28,-3.29,-0.45,
2.401,4.47,0.38,-5.06,1.28,-3.29,-0.45,
2.402,4.47,0.38,-5.06,1.28,-3.29,-0.45,
2.409,4.47,0.38,-5.06,1.07,-2.64,-0.25,
2.41,4.47,0.38,-5.06,1.07,-2.64,-0.25,
2.41,3.88,0.25,-5.12,1.07,-2.64,-0.25,
2.411,3.88,0.25,-5.12,1.07,-2.64,-0.25,
2.419,3.88,0.25,-5.12,0.81,-2.07,-0.05,
2.42,3.88,0.25,-5.12,0.81,-2.07,-0.05,
2.42,3.18,0.19,-5.11,0.81,-2.07,-0.05,
2.421,3.18,0.19,-5.11,0.81,-2.07,-0.05,
2.429,3.18,0.19,-5.11,0.54,-1.62,0.14,
2.43,3.18,0.19,-5.11,0.54,-1.62,0.14,
2.431,2.51,0.15,-4.94,0.54,-1.62,0.14,
2.431,2.51,0.15,-4.94,0.54,-1.62,0.14,
2.438,2.51,0.15,-4.94,0.27,-1.27,0.32,
2.439,2.51,0.15,-4.94,0.27,-1.27,0.32,
2.439,1.98,0.13,-4.54,0.27,-1.27,0.32,
2.44,1.98,0.13,-4.54,0.27,-1.27,0.32,
2.448,1.98,0.13,-4.54,0.03,-1.00,0.48,
2.449,1.98,0.13,-4.54,0.03,-1.00,0.48,
2.45,1.60,0.12,-4.00,0.03,-1.00,0.48,
2.45,1.60,0.12,-4.00,0.03,-1.00,0.48,
2.458,1.60,0.12,-4.00,-0.14,-0.76,0.62,
2.459,1.60,0.12,-4.00,-0.14,-0.76,0.62,
2.46,1.34,0.16,-3.48,-0.14,-0.76,0.62,
2.46,1.34,0.16,-3.48,-0.14,-0.76,0.62,
2.468,1.34,0.16,-3.48,-0.24,-0.52,0.72,
2.469,1.34,0.16,-3.48,-0.24,-0.52,0.72,
2.469,1.22,0.29,-3.39,-0.24,-0.52,0.72,
2.47,1.22,0.29,-3.39,-0.24,-0.52,0.72,
2.476,1.22,0.29,-3.39,-0.24,-0.27,0.79,
2.477,1.22,0.29,-3.39,-0.24,-0.27,0.79,
2.478,1.24,0.55,-5.11,-0.24,-0.27,0.79,
2.478,1.24,0.55,-5.11,-0.24,-0.27,0.79,
2.486,1.24,0.55,-5.11,-0.19,-0.10,0.81,
2.487,1.24,0.55,-5.11,-0.19,-0.10,0.81,
2.489,1.32,0.95,-6.48,-0.19,-0.10,0.81,
2.49,1.32,0.95,-6.48,-0.19,-0.10,0.81,
2.497,1.32,0.95,-6.48,-0.15,-0.18,0.75,
2.499,1.32,0.95,-6.48,-0.15,-0.18,0.75,
2.5,1.44,1.34,-6.80,-0.15,-0.18,0.75,
2.501,1.44,1.34,-6.80,-0.15,-0.18,0.75,
2.504,1.44,1.34,-6.80,-0.16,-0.61,0.58,
2.505,1.44,1.34,-6.80,-0.16,-0.61,0.58,
2.506,1.57,1.67,-8.06,-0.16,-0.61,0.58,
2.506,1.57,1.67,-8.06,-0.16,-0.61,0.58,
2.514,1.57,1.67,-8.06,-0.25,-1.34,0.31,
2.515,1.57,1.67,-8.06,-0.25,-1.34,0.31,
2.515,1.56,1.86,-7.86,-0.25,-1.34,0.31,
2.516,1.56,1.86,-7.86,-0.25,-1.34,0.31,
2.525,1.56,1.86,-7.86,-0.39,-2.20,-0.03,
2.525,1.56,1.86,-7.86,-0.39,-2.20,-0.03,
2.526,1.44,1.90,-7.54,-0.39,-2.20,-0.03,
2.526,1.44,1.90,-7.54,-0.39,-2.20,-0.03,
2.534,1.44,1.90,-7.54,-0.39,-2.20,-0.03,
2.535,1.44,1.90,-7.54,-0.39,-2.20,-0.03,
2.535,1.44,1.90,-7.54,-0.39,-2.20,-0.03,
2.536,1.44,1.90,-7.54,-0.39,-2.20,-0.03,
2.543,1.44,1.90,-7.54,-0.54,-2.96,-0.11,
2.544,1.44,1.90,-7.54,-0.54,-2.96,-0.11,
2.545,1.09,1.73,-6.72,-0.54,-2.96,-0.11,
2.545,1.09,1.73,-6.72,-0.54,-2.96,-0.11,
2.552,1.09,1.73,-6.72,-0.66,-3.48,-0.18,
2.554,1.09,1.73,-6.72,-0.66,-3.48,-0.18,
2.555,0.82,1.57,-6.09,-0.66,-3.48,-0.18,
2.556,0.82,1.57,-6.09,-0.66,-3.48,-0.18,
2.562,0.82,1.57,-6.09,-0.74,-3.65,-0.45,
2.564,0.82,1.57,-6.09,-0.74,-3.65,-0.45,
2.565,0.60,1.39,-5.36,-0.74,-3.65,-0.45,
2.566,0.60,1.39,-5.36,-0.74,-3.65,-0.45,
2.571,0.60,1.39,-5.36,-0.77,-3.50,-0.58,
2.572,0.60,1.39,-5.36,-0.77,-3.50,-0.58,
2.572,0.48,1.22,-4.53,-0.77,-3.50,-0.58,
2.573,0.48,1.22,-4.53,-0.77,-3.50,-0.58,
2.581,0.48,1.22,-4.53,-0.79,-3.10,-0.62,
2.582,0.48,1.22,-4.53,-0.79,-3.10,-0.62,
2.582,0.46,1.02,-2.94,-0.79,-3.10,-0.62,
2.583,0.46,1.02,-2.94,-0.79,-3.10,-0.62,
2.59,0.46,1.02,-2.94,-0.75,-2.51,-0.58,
2.591,0.46,1.02,-2.94,-0.75,-2.51,-0.58,
2.592,0.48,0.86,-2.60,-0.75,-2.51,-0.58,
2.592,0.48,0.86,-2.60,-0.75,-2.51,-0.58,
2.6,0.48,0.86,-2.60,-0.62,-1.77,-0.50,
2.601,0.48,0.86,-2.60,-0.62,-1.77,-0.50,
2.608,0.59,0.80,-2.26,-0.62,-1.77,-0.50,
2.609,0.59,0.80,-2.26,-0.62,-1.77,-0.50,
2.609,0.59,0.80,-2.26,-0.41,-0.95,-0.40,
2.61,0.59,0.80,-2.26,-0.41,-0.95,-0.40,
2.61,0.74,0.74,-1.84,-0.41,-0.95,-0.40,
2.611,0.74,0.74,-1.84,-0.41,-0.95,-0.40,
2.619,0.74,0.74,-1.84,-0.20,-0.19,-0.30,
2.62,0.74,0.74,-1.84,-0.20,-0.19,-0.30,
2.621,0.86,0.59,-1.34,-0.20,-0.19,-0.30,
2.621,0.86,0.59,-1.34,-0.20,-0.19,-0.30,
2.629,0.86,0.59,-1.34,-0.03,0.42,-0.21,
2.63,0.86,0.59,-1.34,-0.03,0.42,-0.21,
2.63,0.92,0.34,-0.83,-0.03,0.42,-0.21,
2.631,0.92,0.34,-0.83,-0.03,0.42,-0.21,
2.637,0.92,0.34,-0.83,0.09,0.90,-0.12,
2.638,0.92,0.34,-0.83,0.09,0.90,-0.12,
2.638,0.87,-0.06,-0.47,0.09,0.90,-0.12,
2.639,0.87,-0.06,-0.47,0.09,0.90,-0.12,
2.647,0.87,-0.06,-0.47,0.15,1.28,-0.01,
2.649,0.87,-0.06,-0.47,0.15,1.28,-0.01,
2.649,0.64,-0.50,-0.27,0.15,1.28,-0.01,
2.65,0.64,-0.50,-0.27,0.15,1.28,-0.01,
2.657,0.64,-0.50,-0.27,0.13,1.58,0.13,
2.658,0.64,-0.50,-0.27,0.13,1.58,0.13,
2.659,0.31,-0.91,-0.11,0.13,1.58,0.13,
2.66,0.31,-0.91,-0.11,0.13,1.58,0.13,
2.667,0.31,-0.91,-0.11,0.03,1.79,0.33,
2.669,0.09,-1.27,0.17,0.03,1.79,0.33,
2.67,0.09,-1.27,0.17,0.03,1.79,0.33,
2.671,0.09,-1.27,0.17,0.03,1.79,0.33,
2.676,0.09,-1.27,0.17,-0.10,1.92,0.57,
2.679,0.09,-1.27,0.17,-0.10,1.92,0.57,
2.68,0.04,-1.54,0.54,-0.10,1.92,0.57,
2.681,0.04,-1.54,0.54,-0.10,1.92,0.57,
2.685,0.04,-1.54,0.54,-0.22,1.98,0.83,
2.686,0.04,-1.54,0.54,-0.22,1.98,0.83,
2.686,0.20,-1.76,0.86,-0.22,1.98,0.83,
2.687,0.20,-1.76,0.86,-0.22,1.98,0.83,
2.695,0.20,-1.76,0.86,-0.31,2.02,1.09,
2.696,0.20,-1.76,0.86,-0.31,2.02,1.09,
2.697,0.48,-1.92,0.99,-0.31,2.02,1.09,
2.697,0.48,-1.92,0.99,-0.31,2.02,1.09,
2.705,0.48,-1.92,0.99,-0.35,1.90,1.31,
2.705,0.48,-1.92,0.99,-0.35,1.90,1.31,
2.706,0.68,-2.02,0.86,-0.35,1.90,1.31,
2.706,0.68,-2.02,0.86,-0.35,1.90,1.31,
2.714,0.68,-2.02,0.86,-0.34,1.68,1.47,
2.715,0.68,-2.02,0.86,-0.34,1.68,1.47,
2.716,0.67,-2.14,0.52,-0.34,1.68,1.47,
2.716,0.67,-2.14,0.52,-0.34,1.68,1.47,
2.728,0.67,-2.14,0.52,-0.30,1.52,1.56,
2.729,0.67,-2.14,0.52,-0.30,1.52,1.56,
2.729,0.49,-2.30,-0.00,-0.30,1.52,1.56,
2.73,0.49,-2.30,-0.00,-0.30,1.52,1.56,
2.734,0.49,-2.30,-0.00,-0.30,1.52,1.56,
2.734,0.49,-2.30,-0.00,-0.30,1.52,1.56,
2.735,0.49,-2.30,-0.00,-0.30,1.52,1.56,
2.735,0.49,-2.30,-0.00,-0.30,1.52,1.56,
2.743,0.49,-2.30,-0.00,-0.26,1.34,1.60,
2.744,0.49,-2.30,-0.00,-0.26,1.34,1.60,
2.745,0.10,-2.77,-0.91,-0.26,1.34,1.60,
2.745,0.10,-2.77,-0.91,-0.26,1.34,1.60,
2.752,0.10,-2.77,-0.91,-0.24,1.05,1.61,
2.753,0.10,-2.77,-0.91,-0.24,1.05,1.61,
2.754,0.09,-3.05,-1.01,-0.24,1.05,1.61,
2.754,0.09,-3.05,-1.01,-0.24,1.05,1.61,
2.763,0.09,-3.05,-1.01,-0.27,0.66,1.64,
2.764,0.09,-3.05,-1.01,-0.27,0.66,1.64,
2.765,0.27,-3.31,-0.81,-0.27,0.66,1.64,
2.766,0.27,-3.31,-0.81,-0.27,0.66,1.64,
2.771,0.27,-3.31,-0.81,-0.33,0.22,1.70,
2.772,0.27,-3.31,-0.81,-0.33,0.22,1.70,
2.773,0.66,-3.52,-0.49,-0.33,0.22,1.70,
2.774,0.66,-3.52,-0.49,-0.33,0.22,1.70,
2.781,0.66,-3.52,-0.49,-0.39,0.12,1.78,
2.782,0.66,-3.52,-0.49,-0.39,0.12,1.78,
2.783,1.22,-3.63,-0.08,-0.39,0.12,1.78,
2.784,1.22,-3.63,-0.08,-0.39,0.12,1.78,
2.79,1.22,-3.63,-0.08,-0.40,0.09,1.83,
2.791,1.22,-3.63,-0.08,-0.40,0.09,1.83,
2.792,1.82,-3.68,0.38,-0.40,0.09,1.83,
2.792,1.82,-3.68,0.38,-0.40,0.09,1.83,
2.8,1.82,-3.68,0.38,-0.35,-0.10,1.82,
2.801,1.82,-3.68,0.38,-0.35,-0.10,1.82,
2.801,2.36,-3.66,0.76,-0.35,-0.10,1.82,
2.802,2.36,-3.66,0.76,-0.35,-0.10,1.82,
2.809,2.36,-3.66,0.76,-0.22,-0.15,1.73,
2.81,2.36,-3.66,0.76,-0.22,-0.15,1.73,
2.811,2.78,-3.61,1.11,-0.22,-0.15,1.73,
2.811,2.78,-3.61,1.11,-0.22,-0.15,1.73,
2.819,2.78,-3.61,1.11,-0.04,-0.11,1.56,
2.82,2.78,-3.61,1.11,-0.04,-0.11,1.56,
2.821,2.99,-3.53,1.30,-0.04,-0.11,1.56,
2.821,2.99,-3.53,1.30,-0.04,-0.11,1.56,
2.829,2.99,-3.53,1.30,0.16,-0.01,1.35,
2.83,2.99,-3.53,1.30,0.16,-0.01,1.35,
2.83,2.94,-3.40,1.17,0.16,-0.01,1.35,
2.831,2.94,-3.40,1.17,0.16,-0.01,1.35,
2.839,2.94,-3.40,1.17,0.36,0.08,1.13,
2.84,2.94,-3.40,1.17,0.36,0.08,1.13,
2.845,2.59,-3.21,0.75,0.36,0.08,1.13,
2.846,2.59,-3.21,0.75,0.36,0.08,1.13,
2.848,2.59,-3.21,0.75,0.53,0.14,0.92,
2.849,2.59,-3.21,0.75,0.53,0.14,0.92,
2.85,0.82,-2.97,0.11,0.53,0.14,0.92,
2.85,0.82,-2.97,0.11,0.53,0.14,0.92,
2.857,0.82,-2.97,0.11,0.66,0.12,0.75,
2.858,0.82,-2.97,0.11,0.66,0.12,0.75,
2.858,0.45,-2.76,-1.35,0.66,0.12,0.75,
2.859,0.45,-2.76,-1.35,0.66,0.12,0.75,
2.867,0.45,-2.76,-1.35,0.73,0.00,0.65,
2.868,0.45,-2.76,-1.35,0.73,0.00,0.65,
2.869,-0.14,-2.61,-1.59,0.73,0.00,0.65,
2.869,-0.14,-2.61,-1.59,0.73,0.00,0.65,
2.876,-0.14,-2.61,-1.59,0.73,-0.24,0.61,
2.877,-0.14,-2.61,-1.59,0.73,-0.24,0.61,
2.878,-0.70,-2.55,-1.78,0.73,-0.24,0.61,
2.878,-0.70,-2.55,-1.78,0.73,-0.24,0.61,
2.885,-0.70,-2.55,-1.78,0.65,-0.59,0.61,
2.886,-0.70,-2.55,-1.78,0.65,-0.59,0.61,
2.887,-1.19,-2.53,-1.83,0.65,-0.59,0.61,
2.887,-1.19,-2.53,-1.83,0.65,-0.59,0.61,
2.896,-1.19,-2.53,-1.83,0.54,-0.95,0.64,
2.897,-1.19,-2.53,-1.83,0.54,-0.95,0.64,
2.897,-1.55,-2.48,-1.74,0.54,-0.95,0.64,
2.898,-1.55,-2.48,-1.74,0.54,-0.95,0.64,
2.905,-1.55,-2.48,-1.74,0.42,-1.23,0.70,
2.906,-1.55,-2.48,-1.74,0.42,-1.23,0.70,
2.906,-1.87,-2.39,-1.48,0.42,-1.23,0.70,
2.907,-1.87,-2.39,-1.48,0.42,-1.23,0.70,
2.914,-1.87,-2.39,-1.48,0.33,-1.40,0.80,
2.915,-1.87,-2.39,-1.48,0.33,-1.40,0.80,
2.916,-2.16,-2.17,-1.28,0.33,-1.40,0.80,
2.916,-2.16,-2.17,-1.28,0.33,-1.40,0.80,
2.928,-2.16,-2.17,-1.28,0.30,-1.46,0.91,
2.929,-2.16,-2.17,-1.28,0.30,-1.46,0.91,
2.929,-2.25,-1.78,-1.61,0.30,-1.46,0.91,
2.93,-2.25,-1.78,-1.61,0.30,-1.46,0.91,
2.933,-2.25,-1.78,-1.61,0.30,-1.46,0.91,
2.934,-2.25,-1.78,-1.61,0.30,-1.46,0.91,
2.934,-2.25,-1.78,-1.61,0.30,-1.46,0.91,
2.934,-2.25,-1.78,-1.61,0.30,-1.46,0.91,
2.943,-2.25,-1.78,-1.61,0.33,-1.43,0.99,
2.944,-2.25,-1.78,-1.61,0.33,-1.43,0.99,
2.945,-2.18,0.32,-6.02,0.33,-1.43,0.99,
2.945,-2.18,0.32,-6.02,0.33,-1.43,0.99,
2.953,-2.18,0.32,-6.02,0.36,-1.52,0.97,
2.954,-2.18,0.32,-6.02,0.36,-1.52,0.97,
2.955,-2.19,0.78,-7.98,0.36,-1.52,0.97,
2.957,-2.19,0.78,-7.98,0.36,-1.52,0.97,
2.962,-2.19,0.78,-7.98,0.21,-2.00,0.72,
2.963,-2.19,0.78,-7.98,0.21,-2.00,0.72,
2.965,-2.23,1.20,-7.73,0.21,-2.00,0.72,
2.966,-2.23,1.20,-7.73,0.21,-2.00,0.72,
2.971,-2.23,1.20,-7.73,-0.23,-2.99,0.21,
2.972,-2.23,1.20,-7.73,-0.23,-2.99,0.21,
2.973,-2.22,1.34,-5.54,-0.23,-2.99,0.21,
2.973,-2.22,1.34,-5.54,-0.23,-2.99,0.21,
2.981,-2.22,1.34,-5.54,-0.68,-4.16,-0.44,
2.982,-2.22,1.34,-5.54,-0.68,-4.16,-0.44,
2.983,-1.91,1.15,-3.06,-0.68,-4.16,-0.44,
2.983,-1.91,1.15,-3.06,-0.68,-4.16,-0.44,
2.991,-1.91,1.15,-3.06,-0.79,-4.91,-1.07,
2.992,-1.91,1.15,-3.06,-0.79,-4.91,-1.07,
2.992,-1.39,0.80,-0.68,-0.79,-4.91,-1.07,
2.993,-1.39,0.80,-0.68,-0.79,-4.91,-1.07,
3.0,-1.39,0.80,-0.68,-0.27,-4.85,-1.65,
3.001,-1.39,0.80,-0.68,-0.27,-4.85,-1.65,
3.002,-0.97,0.41,-0.32,-0.27,-4.85,-1.65,
3.002,-0.97,0.41,-0.32,-0.27,-4.85,-1.65,
3.011,-0.97,0.41,-0.32,0.86,-3.98,-2.13,
3.012,-0.97,0.41,-0.32,0.86,-3.98,-2.13,
3.013,-0.74,0.11,-0.25,0.86,-3.98,-2.13,
3.013,-0.74,0.11,-0.25,0.86,-3.98,-2.13,
3.019,-0.74,0.11,-0.25,2.05,-3.26,-2.32,
3.02,-0.74,0.11,-0.25,2.05,-3.26,-2.32,
3.02,-0.70,0.02,-0.63,2.05,-3.26,-2.32,
3.021,-0.70,0.02,-0.63,2.05,-3.26,-2.32,
3.029,-0.70,0.02,-0.63,2.87,-2.39,-2.17,
3.03,-0.70,0.02,-0.63,2.87,-2.39,-2.17,
3.031,-0.79,0.01,-2.37,2.87,-2.39,-2.17,
3.031,-0.79,0.01,-2.37,2.87,-2.39,-2.17,
3.04,-0.79,0.01,-2.37,3.23,-1.16,-1.82,
3.042,-0.79,0.01,-2.37,3.23,-1.16,-1.82,
3.042,-0.87,-0.03,-2.62,3.23,-1.16,-1.82,
3.043,-0.87,-0.03,-2.62,3.23,-1.16,-1.82,
3.048,-0.87,-0.03,-2.62,3.26,-0.54,-1.40,
3.048,-0.87,-0.03,-2.62,3.26,-0.54,-1.40,
3.049,-0.89,-0.14,-2.87,3.26,-0.54,-1.40,
3.05,-0.89,-0.14,-2.87,3.26,-0.54,-1.40,
3.059,-0.89,-0.14,-2.87,3.07,-0.44,-1.00,
3.06,-0.89,-0.14,-2.87,3.07,-0.44,-1.00,
3.061,-0.89,-0.39,-2.86,3.07,-0.44,-1.00,
3.061,-0.89,-0.39,-2.86,3.07,-0.44,-1.00,
3.067,-0.89,-0.39,-2.86,2.76,-0.61,-0.63,
3.068,-0.89,-0.39,-2.86,2.76,-0.61,-0.63,
3.068,-0.87,-0.63,-2.61,2.76,-0.61,-0.63,
3.069,-0.87,-0.63,-2.61,2.76,-0.61,-0.63,
3.096,-0.87,-0.63,-2.61,2.40,-0.81,-0.27,
3.098,-0.87,-0.63,-2.61,2.40,-0.81,-0.27,
3.108,-0.82,-0.81,-2.27,2.40,-0.81,-0.27,
3.108,-0.82,-0.81,-2.27,2.40,-0.81,-0.27,
3.109,-0.82,-0.81,-2.27,2.04,-0.90,0.09,
3.11,-0.82,-0.81,-2.27,2.04,-0.90,0.09,
3.111,-0.82,-0.81,-2.27,2.04,-0.90,0.09,
3.111,-0.75,-0.91,-2.01,2.04,-0.90,0.09,
3.112,-0.75,-0.91,-2.01,2.04,-0.90,0.09,
3.113,-0.75,-0.91,-2.01,2.04,-0.90,0.09,
3.113,-0.75,-0.91,-2.01,1.71,-0.86,0.44,
3.114,-0.75,-0.91,-2.01,1.71,-0.86,0.44,
3.115,-0.69,-0.99,-1.96,1.71,-0.86,0.44,
3.116,-0.69,-0.99,-1.96,1.71,-0.86,0.44,
3.117,-0.69,-0.99,-1.96,1.44,-0.70,0.75,
3.117,-0.69,-0.99,-1.96,1.44,-0.70,0.75,
3.118,-0.72,-0.98,-1.99,1.44,-0.70,0.75,
3.119,-0.72,-0.98,-1.99,1.44,-0.70,0.75,
3.119,-0.72,-0.98,-1.99,1.23,-0.51,1.00,
3.12,-0.72,-0.98,-1.99,1.23,-0.51,1.00,
3.121,-0.77,-0.94,-1.97,1.23,-0.51,1.00,
3.122,-0.77,-0.94,-1.97,1.23,-0.51,1.00,
3.128,-0.77,-0.94,-1.97,1.06,-0.35,1.16,
3.13,-0.77,-0.94,-1.97,1.06,-0.35,1.16,
3.131,-0.87,-0.87,-1.89,1.06,-0.35,1.16,
3.132,-0.87,-0.87,-1.89,1.06,-0.35,1.16,
3.138,-0.87,-0.87,-1.89,0.91,-0.24,1.26,
3.138,-0.87,-0.87,-1.89,0.91,-0.24,1.26,
3.139,-0.97,-0.84,-1.75,0.91,-0.24,1.26,
3.139,-0.97,-0.84,-1.75,0.91,-0.24,1.26,
3.148,-0.97,-0.84,-1.75,0.80,-0.18,1.29,
3.149,-0.97,-0.84,-1.75,0.80,-0.18,1.29,
3.149,-1.09,-0.84,-1.61,0.80,-0.18,1.29,
3.149,-1.09,-0.84,-1.61,0.80,-0.18,1.29,
3.157,-1.09,-0.84,-1.61,0.74,-0.17,1.28,
3.158,-1.09,-0.84,-1.61,0.74,-0.17,1.28,
3.158,-1.24,-0.86,-1.50,0.74,-0.17,1.28,
3.159,-1.24,-0.86,-1.50,0.74,-0.17,1.28,
3.167,-1.24,-0.86,-1.50,0.71,-0.16,1.25,
3.168,-1.24,-0.86,-1.50,0.71,-0.16,1.25,
3.168,-1.39,-0.91,-1.39,0.71,-0.16,1.25,
3.169,-1.39,-0.91,-1.39,0.71,-0.16,1.25,
3.176,-1.39,-0.91,-1.39,0.67,-0.14,1.22,
3.177,-1.39,-0.91,-1.39,0.67,-0.14,1.22,
3.177,-1.60,-0.91,-1.21,0.67,-0.14,1.22,
3.178,-1.60,-0.91,-1.21,0.67,-0.14,1.22,
3.186,-1.60,-0.91,-1.21,0.61,-0.11,1.22,
3.187,-1.60,-0.91,-1.21,0.61,-0.11,1.22,
3.188,-1.94,-0.92,-1.00,0.61,-0.11,1.22,
3.188,-1.94,-0.92,-1.00,0.61,-0.11,1.22,
3.195,-1.94,-0.92,-1.00,0.52,-0.06,1.23,
3.196,-1.94,-0.92,-1.00,0.52,-0.06,1.23,
3.197,-2.44,-1.00,-0.81,0.52,-0.06,1.23,
3.197,-2.44,-1.00,-0.81,0.52,-0.06,1.23,
3.204,-2.44,-1.00,-0.81,0.43,0.00,1.27,
3.205,-2.44,-1.00,-0.81,0.43,0.00,1.27,
3.206,-3.03,-1.17,-0.64,0.43,0.00,1.27,
3.207,-3.03,-1.17,-0.64,0.43,0.00,1.27,
3.215,-3.03,-1.17,-0.64,0.33,0.09,1.36,
3.215,-3.03,-1.17,-0.64,0.33,0.09,1.36,
3.216,-4.40,-1.44,-0.53,0.33,0.09,1.36,
3.217,-4.40,-1.44,-0.53,0.33,0.09,1.36,
3.228,-4.40,-1.44,-0.53,0.20,0.20,1.54,
3.229,-4.40,-1.44,-0.53,0.20,0.20,1.54,
3.229,-4.35,-1.75,-0.40,0.20,0.20,1.54,
3.229,-4.35,-1.75,-0.40,0.20,0.20,1.54,
3.233,-4.35,-1.75,-0.40,0.20,0.20,1.54,
3.234,-4.35,-1.75,-0.40,0.20,0.20,1.54,
3.234,-4.35,-1.75,-0.40,0.20,0.20,1.54,
3.235,-4.35,-1.75,-0.40,0.20,0.20,1.54,
3.243,-4.35,-1.75,-0.40,0.03,0.33,1.85,
3.244,-4.35,-1.75,-0.40,0.03,0.33,1.85,
3.244,-3.95,-2.03,-0.14,0.03,0.33,1.85,
3.245,-3.95,-2.03,-0.14,0.03,0.33,1.85,
3.253,-3.95,-2.03,-0.14,-0.17,0.48,2.27,
3.254,-3.95,-2.03,-0.14,-0.17,0.48,2.27,
3.254,-3.62,-1.99,0.03,-0.17,0.48,2.27,
3.255,-3.62,-1.99,0.03,-0.17,0.48,2.27,
3.262,-3.62,-1.99,0.03,-0.33,0.64,2.67,
3.263,-3.62,-1.99,0.03,-0.33,0.64,2.67,
3.264,-3.29,-1.88,0.25,-0.33,0.64,2.67,
3.264,-3.29,-1.88,0.25,-0.33,0.64,2.67,
3.271,-3.29,-1.88,0.25,-0.39,0.78,2.91,
3.272,-3.29,-1.88,0.25,-0.39,0.78,2.91,
3.273,-3.02,-1.83,0.41,-0.39,0.78,2.91,
3.274,-3.02,-1.83,0.41,-0.39,0.78,2.91,
3.281,-3.02,-1.83,0.41,-0.32,0.87,2.90,
3.283,-3.02,-1.83,0.41,-0.32,0.87,2.90,
3.284,-2.53,-1.83,0.63,-0.32,0.87,2.90,
3.285,-2.53,-1.83,0.63,-0.32,0.87,2.90,
3.291,-2.53,-1.83,0.63,-0.17,0.90,2.69,
3.292,-2.53,-1.83,0.63,-0.17,0.90,2.69,
3.292,-0.48,-1.68,0.73,-0.17,0.90,2.69,
3.293,-0.48,-1.68,0.73,-0.17,0.90,2.69,
3.3,-0.48,-1.68,0.73,0.06,0.85,2.29,
3.301,-0.48,-1.68,0.73,0.06,0.85,2.29,
3.302,-0.01,-1.40,0.61,0.06,0.85,2.29,
3.302,-0.01,-1.40,0.61,0.06,0.85,2.29,
3.31,-0.01,-1.40,0.61,0.37,0.71,1.69,
3.311,-0.01,-1.40,0.61,0.37,0.71,1.69,
3.312,0.21,-1.14,0.56,0.37,0.71,1.69,
3.312,0.21,-1.14,0.56,0.37,0.71,1.69,
3.321,0.21,-1.14,0.56,0.44,0.53,0.94,
3.321,0.21,-1.14,0.56,0.44,0.53,0.94,
3.322,0.19,-1.02,0.55,0.44,0.53,0.94,
3.322,0.19,-1.02,0.55,0.44,0.53,0.94,
3.329,0.19,-1.02,0.55,0.54,0.30,0.19,
3.33,0.19,-1.02,0.55,0.54,0.30,0.19,
3.33,-0.22,-1.14,0.64,0.54,0.30,0.19,
3.331,-0.22,-1.14,0.64,0.54,0.30,0.19,
3.341,-0.22,-1.14,0.64,0.67,0.09,-0.40,
3.342,-0.22,-1.14,0.64,0.67,0.09,-0.40,
3.343,-0.65,-1.37,0.86,0.67,0.09,-0.40,
3.343,-0.65,-1.37,0.86,0.67,0.09,-0.40,
3.348,-0.65,-1.37,0.86,0.71,-0.04,-0.75,
3.348,-0.65,-1.37,0.86,0.71,-0.04,-0.75,
3.349,-0.64,-1.48,1.02,0.71,-0.04,-0.75,
3.35,-0.64,-1.48,1.02,0.71,-0.04,-0.75,
3.357,-0.64,-1.48,1.02,0.84,-0.18,-0.85,
3.358,-0.64,-1.48,1.02,0.84,-0.18,-0.85,
3.359,-0.44,-1.44,0.92,0.84,-0.18,-0.85,
3.359,-0.44,-1.44,0.92,0.84,-0.18,-0.85,
3.367,-0.44,-1.44,0.92,0.87,-0.21,-0.78,
3.368,-0.44,-1.44,0.92,0.87,-0.21,-0.78,
3.368,-0.34,-1.40,0.70,0.87,-0.21,-0.78,
3.369,-0.34,-1.40,0.70,0.87,-0.21,-0.78,
3.377,-0.34,-1.40,0.70,0.84,-0.20,-0.65,
3.379,-0.34,-1.40,0.70,0.84,-0.20,-0.65,
3.38,-0.27,-1.47,0.39,0.84,-0.20,-0.65,
3.381,-0.27,-1.47,0.39,0.84,-0.20,-0.65,
3.386,-0.27,-1.47,0.39,0.75,-0.19,-0.53,
3.386,-0.27,-1.47,0.39,0.75,-0.19,-0.53,
3.387,-0.34,-1.69,0.04,0.75,-0.19,-0.53,
3.387,-0.34,-1.69,0.04,0.75,-0.19,-0.53,
3.395,-0.34,-1.69,0.04,0.62,-0.22,-0.42,
3.396,-0.34,-1.69,0.04,0.62,-0.22,-0.42,
3.397,-0.45,-2.01,-0.09,0.62,-0.22,-0.42,
3.398,-0.45,-2.01,-0.09,0.62,-0.22,-0.42,
3.411,-0.45,-2.01,-0.09,0.42,-0.29,-0.29,
3.412,-0.45,-2.01,-0.09,0.42,-0.29,-0.29,
3.412,-0.70,-2.29,-0.03,0.42,-0.29,-0.29,
3.413,-0.70,-2.29,-0.03,0.42,-0.29,-0.29,
3.414,-0.70,-2.29,-0.03,0.19,-0.36,-0.11,
3.415,-0.70,-2.29,-0.03,0.19,-0.36,-0.11,
3.415,-1.02,-2.53,0.10,0.19,-0.36,-0.11,
3.416,-1.02,-2.53,0.10,0.19,-0.36,-0.11,
3.426,-1.02,-2.53,0.10,-0.05,-0.39,0.13,
3.427,-1.02,-2.53,0.10,-0.05,-0.39,0.13,
3.427,-1.29,-2.70,0.35,-0.05,-0.39,0.13,
3.428,-1.29,-2.70,0.35,-0.05,-0.39,0.13,
3.434,-1.29,-2.70,0.35,-0.26,-0.34,0.43,
3.435,-1.29,-2.70,0.35,-0.26,-0.34,0.43,
3.435,-1.55,-2.76,0.48,-0.26,-0.34,0.43,
3.436,-1.55,-2.76,0.48,-0.26,-0.34,0.43,
3.443,-1.55,-2.76,0.48,-0.26,-0.34,0.43,
3.444,-1.55,-2.76,0.48,-0.26,-0.34,0.43,
3.444,-1.55,-2.76,0.48,-0.26,-0.34,0.43,
3.444,-1.55,-2.76,0.48,-0.26,-0.34,0.43,
3.453,-1.55,-2.76,0.48,-0.42,-0.22,0.76,
3.453,-1.55,-2.76,0.48,-0.42,-0.22,0.76,
3.454,-1.82,-2.99,0.66,-0.42,-0.22,0.76,
3.454,-1.82,-2.99,0.66,-0.42,-0.22,0.76,
3.462,-1.82,-2.99,0.66,-0.50,-0.06,1.09,
3.463,-1.82,-2.99,0.66,-0.50,-0.06,1.09,
3.464,-1.92,-3.27,0.59,-0.50,-0.06,1.09,
3.464,-1.92,-3.27,0.59,-0.50,-0.06,1.09,
3.471,-1.92,-3.27,0.59,-0.51,0.12,1.39,
3.472,-1.92,-3.27,0.59,-0.51,0.12,1.39,
3.473,-2.01,-3.72,0.60,-0.51,0.12,1.39,
3.473,-2.01,-3.72,0.60,-0.51,0.12,1.39,
3.481,-2.01,-3.72,0.60,-0.49,0.28,1.66,
3.483,-2.01,-3.72,0.60,-0.49,0.28,1.66,
3.484,-2.07,-5.35,0.64,-0.49,0.28,1.66,
3.486,-2.07,-5.35,0.64,-0.49,0.28,1.66,
3.49,-2.07,-5.35,0.64,-0.48,0.44,1.95,
3.491,-2.07,-5.35,0.64,-0.48,0.44,1.95,
3.492,-2.24,-5.50,0.84,-0.48,0.44,1.95,
3.493,-2.24,-5.50,0.84,-0.48,0.44,1.95,
3.501,-2.24,-5.50,0.84,-0.49,0.62,2.27,
3.502,-2.24,-5.50,0.84,-0.49,0.62,2.27,
3.502,-2.40,-5.71,1.00,-0.49,0.62,2.27,
3.503,-2.40,-5.71,1.00,-0.49,0.62,2.27,
3.512,-2.40,-5.71,1.00,-0.50,0.81,2.61,
3.513,-2.40,-5.71,1.00,-0.50,0.81,2.61,
3.514,-2.69,-5.84,1.05,-0.50,0.81,2.61,
3.514,-2.69,-5.84,1.05,-0.50,0.81,2.61,
3.519,-2.69,-5.84,1.05,-0.48,0.98,2.89,
3.52,-2.69,-5.84,1.05,-0.48,0.98,2.89,
3.521,-3.03,-5.72,0.88,-0.48,0.98,2.89,
3.521,-3.03,-5.72,0.88,-0.48,0.98,2.89,
3.529,-3.03,-5.72,0.88,-0.42,1.10,3.07,
3.53,-3.03,-5.72,0.88,-0.42,1.10,3.07,
3.53,-3.16,-5.20,0.62,-0.42,1.10,3.07,
3.531,-3.16,-5.20,0.62,-0.42,1.10,3.07,
3.538,-3.16,-5.20,0.62,-0.36,1.15,3.15,
3.54,-3.16,-5.20,0.62,-0.36,1.15,3.15,
3.541,-3.15,-3.66,0.44,-0.36,1.15,3.15,
3.542,-3.15,-3.66,0.44,-0.36,1.15,3.15,
3.548,-3.15,-3.66,0.44,-0.32,1.11,3.11,
3.549,-3.15,-3.66,0.44,-0.32,1.11,3.11,
3.55,-3.14,-3.13,0.25,-0.32,1.11,3.11,
3.551,-3.14,-3.13,0.25,-0.32,1.11,3.11,
3.558,-3.14,-3.13,0.25,-0.29,0.98,2.93,
3.559,-3.14,-3.13,0.25,-0.29,0.98,2.93,
3.559,-3.18,-2.58,0.13,-0.29,0.98,2.93,
3.56,-3.18,-2.58,0.13,-0.29,0.98,2.93,
3.567,-3.18,-2.58,0.13,-0.26,0.76,2.61,
3.568,-3.18,-2.58,0.13,-0.26,0.76,2.61,
3.568,-3.36,-2.26,0.02,-0.26,0.76,2.61,
3.569,-3.36,-2.26,0.02,-0.26,0.76,2.61,
3.577,-3.36,-2.26,0.02,-0.23,0.50,2.22,
3.578,-3.36,-2.26,0.02,-0.23,0.50,2.22,
3.579,-3.56,-2.13,0.07,-0.23,0.50,2.22,
3.579,-3.56,-2.13,0.07,-0.23,0.50,2.22,
3.586,-3.56,-2.13,0.07,-0.21,0.24,1.85,
3.587,-3.56,-2.13,0.07,-0.21,0.24,1.85,
3.587,-3.56,-2.05,0.24,-0.21,0.24,1.85,
3.588,-3.56,-2.05,0.24,-0.21,0.24,1.85,
3.595,-3.56,-2.05,0.24,-0.18,0.02,1.55,
3.596,-3.56,-2.05,0.24,-0.18,0.02,1.55,
3.597,-3.30,-2.05,0.52,-0.18,0.02,1.55,
3.598,-3.30,-2.05,0.52,-0.18,0.02,1.55,
3.615,-3.30,-2.05,0.52,-0.12,-0.13,1.32,
3.616,-3.30,-2.05,0.52,-0.12,-0.13,1.32,
3.617,-2.90,-2.13,0.78,-0.12,-0.13,1.32,
3.619,-2.90,-2.13,0.78,-0.12,-0.13,1.32,
3.619,-2.90,-2.13,0.78,-0.02,-0.22,1.14,
3.62,-2.90,-2.13,0.78,-0.02,-0.22,1.14,
3.621,-2.56,-2.32,0.82,-0.02,-0.22,1.14,
3.621,-2.56,-2.32,0.82,-0.02,-0.22,1.14,
3.626,-2.56,-2.32,0.82,0.14,-0.26,0.96,
3.627,-2.56,-2.32,0.82,0.14,-0.26,0.96,
3.627,-2.38,-2.58,0.53,0.14,-0.26,0.96,
3.628,-2.38,-2.58,0.53,0.14,-0.26,0.96,
3.634,-2.38,-2.58,0.53,0.32,-0.29,0.78,
3.635,-2.38,-2.58,0.53,0.32,-0.29,0.78,
3.635,-2.41,-2.82,0.09,0.32,-0.29,0.78,
3.636,-2.41,-2.82,0.09,0.32,-0.29,0.78,
3.643,-2.41,-2.82,0.09,0.32,-0.29,0.78,
3.645,-2.41,-2.82,0.09,0.32,-0.29,0.78,
3.645,-2.41,-2.82,0.09,0.32,-0.29,0.78,
3.646,-2.41,-2.82,0.09,0.32,-0.29,0.78,
3.653,-2.41,-2.82,0.09,0.44,-0.32,0.62,
3.655,-2.41,-2.82,0.09,0.44,-0.32,0.62,
3.655,-3.02,-2.75,-0.48,0.44,-0.32,0.62,
3.656,-3.02,-2.75,-0.48,0.44,-0.32,0.62,
3.662,-3.02,-2.75,-0.48,0.46,-0.37,0.54,
3.663,-3.02,-2.75,-0.48,0.46,-0.37,0.54,
3.664,-3.23,-2.44,-0.48,0.46,-0.37,0.54,
3.665,-3.23,-2.44,-0.48,0.46,-0.37,0.54,
3.673,-3.23,-2.44,-0.48,0.34,-0.44,0.56,
3.674,-3.23,-2.44,-0.48,0.34,-0.44,0.56,
3.674,-3.37,-2.12,-0.33,0.34,-0.44,0.56,
3.675,-3.37,-2.12,-0.33,0.34,-0.44,0.56,
3.681,-3.37,-2.12,-0.33,0.15,-0.50,0.67,
3.682,-3.37,-2.12,-0.33,0.15,-0.50,0.67,
3.683,-3.42,-1.95,-0.34,0.15,-0.50,0.67,
3.683,-3.42,-1.95,-0.34,0.15,-0.50,0.67,
3.691,-3.42,-1.95,-0.34,-0.03,-0.54,0.82,
3.692,-3.42,-1.95,-0.34,-0.03,-0.54,0.82,
3.693,-3.51,-1.88,-0.30,-0.03,-0.54,0.82,
3.693,-3.51,-1.88,-0.30,-0.03,-0.54,0.82,
3.7,-3.51,-1.88,-0.30,-0.15,-0.55,0.95,
3.701,-3.51,-1.88,-0.30,-0.15,-0.55,0.95,
3.702,-3.64,-1.84,-0.27,-0.15,-0.55,0.95,
3.703,-3.64,-1.84,-0.27,-0.15,-0.55,0.95,
3.711,-3.64,-1.84,-0.27,-0.20,-0.54,1.06,
3.713,-3.64,-1.84,-0.27,-0.20,-0.54,1.06,
3.713,-3.76,-1.88,-0.29,-0.20,-0.54,1.06,
3.714,-3.76,-1.88,-0.29,-0.20,-0.54,1.06,
3.719,-3.76,-1.88,-0.29,-0.21,-0.51,1.17,
3.72,-3.76,-1.88,-0.29,-0.21,-0.51,1.17,
3.721,-3.86,-1.91,-0.27,-0.21,-0.51,1.17,
3.722,-3.86,-1.91,-0.27,-0.21,-0.51,1.17,
3.729,-3.86,-1.91,-0.27,-0.20,-0.47,1.29,
3.73,-3.86,-1.91,-0.27,-0.20,-0.47,1.29,
3.73,-3.89,-2.03,-0.28,-0.20,-0.47,1.29,
3.731,-3.89,-2.03,-0.28,-0.20,-0.47,1.29,
3.739,-3.89,-2.03,-0.28,-0.20,-0.40,1.41,
3.74,-3.89,-2.03,-0.28,-0.20,-0.40,1.41,
3.741,-3.87,-2.16,-0.20,-0.20,-0.40,1.41,
3.742,-3.87,-2.16,-0.20,-0.20,-0.40,1.41,
3.748,-3.87,-2.16,-0.20,-0.19,-0.31,1.53,
3.749,-3.87,-2.16,-0.20,-0.19,-0.31,1.53,
3.749,-3.82,-2.24,-0.07,-0.19,-0.31,1.53,
3.75,-3.82,-2.24,-0.07,-0.19,-0.31,1.53,
3.757,-3.82,-2.24,-0.07,-0.17,-0.21,1.63,
3.759,-3.82,-2.24,-0.07,-0.17,-0.21,1.63,
3.759,-3.76,-2.24,0.03,-0.17,-0.21,1.63,
3.76,-3.76,-2.24,0.03,-0.17,-0.21,1.63,
3.767,-3.76,-2.24,0.03,-0.12,-0.13,1.70,
3.768,-3.76,-2.24,0.03,-0.12,-0.13,1.70,
3.769,-3.72,-2.07,0.11,-0.12,-0.13,1.70,
3.769,-3.72,-2.07,0.11,-0.12,-0.13,1.70,
3.777,-3.72,-2.07,0.11,-0.05,-0.05,1.72,
3.778,-3.72,-2.07,0.11,-0.05,-0.05,1.72,
3.779,-3.67,-1.79,0.07,-0.05,-0.05,1.72,
3.78,-3.67,-1.79,0.07,-0.05,-0.05,1.72,
3.786,-3.67,-1.79,0.07,0.03,0.00,1.70,
3.787,-3.67,-1.79,0.07,0.03,0.00,1.70,
3.787,-3.64,-1.44,-0.12,0.03,0.00,1.70,
3.788,-3.64,-1.44,-0.12,0.03,0.00,1.70,
3.797,-3.64,-1.44,-0.12,0.09,0.05,1.64,
3.798,-3.64,-1.44,-0.12,0.09,0.05,1.64,
3.799,-3.67,-0.90,-0.33,0.09,0.05,1.64,
3.799,-3.67,-0.90,-0.33,0.09,0.05,1.64,
3.806,-3.67,-0.90,-0.33,0.11,0.07,1.55,
3.807,-3.67,-0.90,-0.33,0.11,0.07,1.55,
3.807,-3.65,-0.30,-0.51,0.11,0.07,1.55,
3.808,-3.65,-0.30,-0.51,0.11,0.07,1.55,
3.815,-3.65,-0.30,-0.51,0.07,0.08,1.44,
3.816,-3.65,-0.30,-0.51,0.07,0.08,1.44,
3.817,-3.64,0.33,-0.53,0.07,0.08,1.44,
3.817,-3.64,0.33,-0.53,0.07,0.08,1.44,
3.827,-3.64,0.33,-0.53,-0.04,0.08,1.32,
3.829,-3.64,0.33,-0.53,-0.04,0.08,1.32,
3.829,-3.60,1.93,-0.44,-0.04,0.08,1.32,
3.83,-3.60,1.93,-0.44,-0.04,0.08,1.32,
3.834,-3.60,1.93,-0.44,-0.16,0.08,1.18,
3.835,-3.60,1.93,-0.44,-0.16,0.08,1.18,
3.835,-3.44,2.33,-0.28,-0.16,0.08,1.18,
3.835,-3.44,2.33,-0.28,-0.16,0.08,1.18,
3.843,-3.44,2.33,-0.28,-0.16,0.08,1.18,
3.844,-3.44,2.33,-0.28,-0.16,0.08,1.18,
3.845,-3.44,2.33,-0.28,-0.16,0.08,1.18,
3.846,-3.44,2.33,-0.28,-0.16,0.08,1.18,
3.853,-3.44,2.33,-0.28,-0.28,0.06,1.01,
3.854,-3.44,2.33,-0.28,-0.28,0.06,1.01,
3.854,-3.24,3.22,-0.05,-0.28,0.06,1.01,
3.855,-3.24,3.22,-0.05,-0.28,0.06,1.01,
3.863,-3.24,3.22,-0.05,-0.35,0.03,0.80,
3.864,-3.24,3.22,-0.05,-0.35,0.03,0.80,
3.865,-3.11,3.67,0.11,-0.35,0.03,0.80,
3.866,-3.11,3.67,0.11,-0.35,0.03,0.80,
3.872,-3.11,3.67,0.11,-0.35,-0.02,0.55,
3.873,-3.11,3.67,0.11,-0.35,-0.02,0.55,
3.874,-3.04,4.07,0.33,-0.35,-0.02,0.55,
3.874,-3.04,4.07,0.33,-0.35,-0.02,0.55,
3.881,-3.04,4.07,0.33,-0.27,-0.06,0.27,
3.882,-3.04,4.07,0.33,-0.27,-0.06,0.27,
3.883,-2.95,4.39,0.48,-0.27,-0.06,0.27,
3.884,-2.95,4.39,0.48,-0.27,-0.06,0.27,
3.891,-2.95,4.39,0.48,-0.14,-0.10,0.00,
3.893,-2.95,4.39,0.48,-0.14,-0.10,0.00,
3.893,-2.88,4.56,0.60,-0.14,-0.10,0.00,
3.894,-2.88,4.56,0.60,-0.14,-0.10,0.00,
3.9,-2.88,4.56,0.60,0.05,-0.13,-0.23,
3.901,-2.88,4.56,0.60,0.05,-0.13,-0.23,
3.902,-2.86,4.40,0.72,0.05,-0.13,-0.23,
3.903,-2.86,4.40,0.72,0.05,-0.13,-0.23,
3.911,-2.86,4.40,0.72,0.28,-0.15,-0.41,
3.913,-2.86,4.40,0.72,0.28,-0.15,-0.41,
3.913,-2.89,4.00,0.86,0.28,-0.15,-0.41,
3.914,-2.89,4.00,0.86,0.28,-0.15,-0.41,
3.92,-2.89,4.00,0.86,0.52,-0.14,-0.49,
3.921,-2.89,4.00,0.86,0.52,-0.14,-0.49,
3.921,-2.97,3.51,0.99,0.52,-0.14,-0.49,
3.922,-2.97,3.51,0.99,0.52,-0.14,-0.49,
3.929,-2.97,3.51,0.99,0.75,-0.11,-0.43,
3.93,-2.97,3.51,0.99,0.75,-0.11,-0.43,
3.931,-3.03,2.95,0.96,0.75,-0.11,-0.43,
3.931,-3.03,2.95,0.96,0.75,-0.11,-0.43,
3.939,-3.03,2.95,0.96,0.96,-0.05,-0.22,
3.94,-3.03,2.95,0.96,0.96,-0.05,-0.22,
3.941,-2.97,1.34,0.76,0.96,-0.05,-0.22,
3.941,-2.97,1.34,0.76,0.96,-0.05,-0.22,
3.948,-2.97,1.34,0.76,1.04,0.04,0.14,
3.949,-2.97,1.34,0.76,1.04,0.04,0.14,
3.95,-2.80,1.09,0.50,1.04,0.04,0.14,
3.951,-2.80,1.09,0.50,1.04,0.04,0.14,
3.958,-2.80,1.09,0.50,1.01,0.11,0.58,
3.959,-2.80,1.09,0.50,1.01,0.11,0.58,
3.959,-2.68,0.58,0.37,1.01,0.11,0.58,
3.96,-2.68,0.58,0.37,1.01,0.11,0.58,
3.968,-2.68,0.58,0.37,0.87,0.13,0.99,
3.969,-2.68,0.58,0.37,0.87,0.13,0.99,
3.97,-2.53,0.01,0.26,0.87,0.13,0.99,
3.971,-2.53,0.01,0.26,0.87,0.13,0.99,
3.977,-2.53,0.01,0.26,0.64,0.10,1.29,
3.979,-2.53,0.01,0.26,0.64,0.10,1.29,
3.98,-2.46,-1.40,0.32,0.64,0.10,1.29,
3.981,-2.46,-1.40,0.32,0.64,0.10,1.29,
3.985,-2.46,-1.40,0.32,0.40,0.04,1.45,
3.986,-2.46,-1.40,0.32,0.40,0.04,1.45,
3.987,-2.51,-1.69,0.49,0.40,0.04,1.45,
3.987,-2.51,-1.69,0.49,0.40,0.04,1.45,
3.995,-2.51,-1.69,0.49,0.20,-0.03,1.53,
3.996,-2.51,-1.69,0.49,0.20,-0.03,1.53,
3.996,-2.57,-1.95,0.53,0.20,-0.03,1.53,
3.997,-2.57,-1.95,0.53,0.20,-0.03,1.53,
4.011,-2.57,-1.95,0.53,0.08,-0.09,1.57,
4.012,-2.57,-1.95,0.53,0.08,-0.09,1.57,
4.013,-2.60,-2.16,0.48,0.08,-0.09,1.57,
4.013,-2.60,-2.16,0.48,0.08,-0.09,1.57,
4.014,-2.60,-2.16,0.48,0.03,-0.13,1.58,
4.015,-2.60,-2.16,0.48,0.03,-0.13,1.58,
4.016,-2.60,-2.17,0.44,0.03,-0.13,1.58,
4.016,-2.60,-2.17,0.44,0.03,-0.13,1.58,
4.025,-2.60,-2.17,0.44,0.02,-0.15,1.57,
4.025,-2.60,-2.17,0.44,0.02,-0.15,1.57,
4.026,-2.46,-2.02,0.26,0.02,-0.15,1.57,
4.026,-2.46,-2.02,0.26,0.02,-0.15,1.57,
4.034,-2.46,-2.02,0.26,0.00,-0.17,1.53,
4.035,-2.46,-2.02,0.26,0.00,-0.17,1.53,
4.036,-2.27,-1.78,0.12,0.00,-0.17,1.53,
4.037,-2.27,-1.78,0.12,0.00,-0.17,1.53,
4.043,-2.27,-1.78,0.12,0.00,-0.17,1.53,
4.044,-2.27,-1.78,0.12,0.00,-0.17,1.53,
4.045,-2.27,-1.78,0.12,0.00,-0.17,1.53,
4.046,-2.27,-1.78,0.12,0.00,-0.17,1.53,
4.052,-2.27,-1.78,0.12,-0.02,-0.19,1.46,
4.053,-2.27,-1.78,0.12,-0.02,-0.19,1.46,
4.053,-2.25,-1.42,0.24,-0.02,-0.19,1.46,
4.054,-2.25,-1.42,0.24,-0.02,-0.19,1.46,
4.063,-2.25,-1.42,0.24,-0.06,-0.22,1.36,
4.064,-2.25,-1.42,0.24,-0.06,-0.22,1.36,
4.065,-3.72,-1.06,2.22,-0.06,-0.22,1.36,
4.065,-3.72,-1.06,2.22,-0.06,-0.22,1.36,
4.085,-3.72,-1.06,2.22,-0.05,-0.24,1.27,
4.086,-3.72,-1.06,2.22,-0.05,-0.24,1.27,
4.087,-3.86,-0.43,2.32,-0.05,-0.24,1.27,
4.087,-3.86,-0.43,2.32,-0.05,-0.24,1.27,
4.088,-3.86,-0.43,2.32,-0.05,-0.24,1.27,
4.089,-3.86,-0.43,2.32,-0.05,-0.24,1.27,
4.089,-3.86,-0.43,2.32,-0.05,-0.24,1.27,
4.09,-3.86,-0.43,2.32,-0.05,-0.24,1.27,
4.09,-3.86,-0.43,2.32,-0.05,-0.24,1.27,
4.091,-3.86,-0.43,2.32,-0.05,-0.24,1.27,
4.096,-3.86,-0.43,2.32,-0.11,-0.03,2.25,
4.097,-3.86,-0.43,2.32,-0.11,-0.03,2.25,
4.097,-3.84,3.02,0.10,-0.11,-0.03,2.25,
4.098,-3.84,3.02,0.10,-0.11,-0.03,2.25,
4.11,-3.84,3.02,0.10,-0.11,-0.03,2.25,
4.111,-3.84,3.02,0.10,-0.11,-0.03,2.25,
4.111,-3.84,3.02,0.10,-0.11,-0.03,2.25,
4.112,-3.84,3.02,0.10,-0.11,-0.03,2.25,
4.115,-3.84,3.02,0.10,-0.57,0.00,2.74,
4.116,-3.84,3.02,0.10,-0.57,0.00,2.74,
4.117,-2.71,-1.94,-1.04,-0.57,0.00,2.74,
4.117,-2.71,-1.94,-1.04,-0.57,0.00,2.74,
4.125,-2.71,-1.94,-1.04,-0.85,-0.03,2.56,
4.126,-2.71,-1.94,-1.04,-0.85,-0.03,2.56,
4.126,-2.60,-7.90,-1.06,-0.85,-0.03,2.56,
4.126,-2.60,-7.90,-1.06,-0.85,-0.03,2.56,
4.134,-2.60,-7.90,-1.06,-1.12,-0.17,2.08,
4.135,-2.60,-7.90,-1.06,-1.12,-0.17,2.08,
4.135,-2.93,-15.46,0.61,-1.12,-0.17,2.08,
4.136,-2.93,-15.46,0.61,-1.12,-0.17,2.08,
4.143,-2.93,-15.46,0.61,-1.12,-0.17,2.08,
4.144,-2.93,-15.46,0.61,-1.12,-0.17,2.08,
4.145,-2.93,-15.46,0.61,-1.12,-0.17,2.08,
4.145,-2.93,-15.46,0.61,-1.12,-0.17,2.08,
4.152,-2.93,-15.46,0.61,-1.26,-0.42,1.49,
4.153,-2.93,-15.46,0.61,-1.26,-0.42,1.49,
4.154,-1.91,-14.74,0.98,-1.26,-0.42,1.49,
4.155,-1.91,-14.74,0.98,-1.26,-0.42,1.49,
4.162,-1.91,-14.74,0.98,-1.11,-0.74,0.92,
4.164,-1.91,-14.74,0.98,-1.11,-0.74,0.92,
4.164,-0.18,-8.76,0.78,-1.11,-0.74,0.92,
4.165,-0.18,-8.76,0.78,-1.11,-0.74,0.92,
4.172,-0.18,-8.76,0.78,-0.77,-1.09,0.44,
4.173,-0.18,-8.76,0.78,-0.77,-1.09,0.44,
4.174,1.79,-1.59,0.45,-0.77,-1.09,0.44,
4.174,1.79,-1.59,0.45,-0.77,-1.09,0.44,
4.181,1.79,-1.59,0.45,-0.44,-1.42,-0.02,
4.182,1.79,-1.59,0.45,-0.44,-1.42,-0.02,
4.182,2.14,0.75,0.33,-0.44,-1.42,-0.02,
4.183,2.14,0.75,0.33,-0.44,-1.42,-0.02,
4.193,2.14,0.75,0.33,-0.22,-1.76,-0.53,
4.193,2.14,0.75,0.33,-0.22,-1.76,-0.53,
4.194,-0.09,1.09,1.88,-0.22,-1.76,-0.53,
4.194,-0.09,1.09,1.88,-0.22,-1.76,-0.53,
4.201,-0.09,1.09,1.88,-0.04,-1.57,-1.06,
4.202,-0.09,1.09,1.88,-0.04,-1.57,-1.06,
4.202,-3.31,0.76,2.25,-0.04,-1.57,-1.06,
4.203,-3.31,0.76,2.25,-0.04,-1.57,-1.06,
4.211,-3.31,0.76,2.25,0.20,-1.34,-1.38,
4.212,-3.31,0.76,2.25,0.20,-1.34,-1.38,
4.212,-4.98,0.23,2.50,0.20,-1.34,-1.38,
4.213,-4.98,0.23,2.50,0.20,-1.34,-1.38,
4.219,-4.98,0.23,2.50,0.53,-1.44,-1.20,
4.22,-4.98,0.23,2.50,0.53,-1.44,-1.20,
4.221,-5.08,-0.18,2.37,0.53,-1.44,-1.20,
4.221,-5.08,-0.18,2.37,0.53,-1.44,-1.20,
4.229,-5.08,-0.18,2.37,0.91,-1.23,-0.46,
4.23,-5.08,-0.18,2.37,0.91,-1.23,-0.46,
4.23,-4.87,-0.35,1.80,0.91,-1.23,-0.46,
4.231,-4.87,-0.35,1.80,0.91,-1.23,-0.46,
4.245,-4.87,-0.35,1.80,1.23,-0.85,0.56,
4.246,-4.87,-0.35,1.80,1.23,-0.85,0.56,
4.246,-4.32,-0.15,0.40,1.23,-0.85,0.56,
4.247,-4.32,-0.15,0.40,1.23,-0.85,0.56,
4.249,-4.32,-0.15,0.40,1.37,-0.48,1.47,
4.25,-4.32,-0.15,0.40,1.37,-0.48,1.47,
4.25,-3.80,0.23,0.39,1.37,-0.48,1.47,
4.251,-3.80,0.23,0.39,1.37,-0.48,1.47,
4.258,-3.80,0.23,0.39,1.27,-0.19,2.06,
4.259,-3.80,0.23,0.39,1.27,-0.19,2.06,
4.259,-3.44,0.61,0.54,1.27,-0.19,2.06,
4.26,-3.44,0.61,0.54,1.27,-0.19,2.06,
4.267,-3.44,0.61,0.54,0.97,-0.01,2.32,
4.268,-3.44,0.61,0.54,0.97,-0.01,2.32,
4.274,-3.20,0.99,0.75,0.97,-0.01,2.32,
4.275,-3.20,0.99,0.75,0.97,-0.01,2.32,
4.278,-3.20,0.99,0.75,0.64,0.09,2.33,
4.279,-3.20,0.99,0.75,0.64,0.09,2.33,
4.28,-2.85,1.23,0.94,0.64,0.09,2.33,
4.28,-2.85,1.23,0.94,0.64,0.09,2.33,
4.287,-2.85,1.23,0.94,0.41,0.14,2.19,
4.287,-2.85,1.23,0.94,0.41,0.14,2.19,
4.288,-2.48,1.18,0.95,0.41,0.14,2.19,
4.288,-2.48,1.18,0.95,0.41,0.14,2.19,
4.295,-2.48,1.18,0.95,0.31,0.16,1.97,
4.296,-2.48,1.18,0.95,0.31,0.16,1.97,
4.297,-2.09,0.98,0.89,0.31,0.16,1.97,
4.297,-2.09,0.98,0.89,0.31,0.16,1.97,
4.31,-2.09,0.98,0.89,0.28,0.16,1.70,
4.311,-2.09,0.98,0.89,0.28,0.16,1.70,
4.312,-1.72,0.71,0.76,0.28,0.16,1.70,
4.312,-1.72,0.71,0.76,0.28,0.16,1.70,
4.314,-1.72,0.71,0.76,0.27,0.12,1.37,
4.315,-1.72,0.71,0.76,0.27,0.12,1.37,
4.315,-1.46,0.41,0.58,0.27,0.12,1.37,
4.316,-1.46,0.41,0.58,0.27,0.12,1.37,
4.324,-1.46,0.41,0.58,0.24,0.07,1.00,
4.325,-1.46,0.41,0.58,0.24,0.07,1.00,
4.326,-1.29,0.18,0.46,0.24,0.07,1.00,
4.326,-1.29,0.18,0.46,0.24,0.07,1.00,
4.335,-1.29,0.18,0.46,0.17,0.01,0.62,
4.336,-1.29,0.18,0.46,0.17,0.01,0.62,
4.336,-1.10,0.07,0.37,0.17,0.01,0.62,
4.337,-1.10,0.07,0.37,0.17,0.01,0.62,
4.344,-1.10,0.07,0.37,0.17,0.01,0.62,
4.345,-1.10,0.07,0.37,0.17,0.01,0.62,
4.346,-1.10,0.07,0.37,0.17,0.01,0.62,
4.346,-1.10,0.07,0.37,0.17,0.01,0.62,
4.352,-1.10,0.07,0.37,0.06,-0.05,0.27,
4.353,-1.10,0.07,0.37,0.06,-0.05,0.27,
4.354,-0.90,0.05,0.36,0.06,-0.05,0.27,
4.355,-0.90,0.05,0.36,0.06,-0.05,0.27,
4.362,-0.90,0.05,0.36,-0.06,-0.10,-0.02,
4.364,-0.90,0.05,0.36,-0.06,-0.10,-0.02,
4.365,-0.77,0.08,0.35,-0.06,-0.10,-0.02,
4.365,-0.77,0.08,0.35,-0.06,-0.10,-0.02,
4.374,-0.77,0.08,0.35,-0.16,-0.15,-0.25,
4.375,-0.77,0.08,0.35,-0.16,-0.15,-0.25,
4.375,-0.71,0.11,0.37,-0.16,-0.15,-0.25,
4.376,-0.71,0.11,0.37,-0.16,-0.15,-0.25,
4.382,-0.71,0.11,0.37,-0.23,-0.18,-0.41,
4.383,-0.71,0.11,0.37,-0.23,-0.18,-0.41,
4.383,-0.69,0.14,0.34,-0.23,-0.18,-0.41,
4.384,-0.69,0.14,0.34,-0.23,-0.18,-0.41,
4.391,-0.69,0.14,0.34,-0.26,-0.20,-0.52,
4.392,-0.69,0.14,0.34,-0.26,-0.20,-0.52,
4.393,-0.71,0.25,0.35,-0.26,-0.20,-0.52,
4.393,-0.71,0.25,0.35,-0.26,-0.20,-0.52,
4.4,-0.71,0.25,0.35,-0.26,-0.20,-0.57,
4.401,-0.71,0.25,0.35,-0.26,-0.20,-0.57,
4.402,-0.79,0.44,0.40,-0.26,-0.20,-0.57,
4.402,-0.79,0.44,0.40,-0.26,-0.20,-0.57,
4.41,-0.79,0.44,0.40,-0.25,-0.17,-0.56,
4.411,-0.79,0.44,0.40,-0.25,-0.17,-0.56,
4.412,-0.88,0.53,0.41,-0.25,-0.17,-0.56,
4.413,-0.88,0.53,0.41,-0.25,-0.17,-0.56,
4.419,-0.88,0.53,0.41,-0.21,-0.13,-0.50,
4.42,-0.88,0.53,0.41,-0.21,-0.13,-0.50,
4.42,-1.01,0.47,0.44,-0.21,-0.13,-0.50,
4.421,-1.01,0.47,0.44,-0.21,-0.13,-0.50,
4.429,-1.01,0.47,0.44,-0.16,-0.08,-0.39,
4.43,-1.01,0.47,0.44,-0.16,-0.08,-0.39,
4.431,-1.11,0.38,0.39,-0.16,-0.08,-0.39,
4.431,-1.11,0.38,0.39,-0.16,-0.08,-0.39,
4.448,-1.11,0.38,0.39,-0.10,-0.03,-0.24,
4.449,-1.11,0.38,0.39,-0.10,-0.03,-0.24,
4.449,-1.19,0.23,0.33,-0.10,-0.03,-0.24,
4.45,-1.19,0.23,0.33,-0.10,-0.03,-0.24,
4.45,-1.19,0.23,0.33,-0.05,0.03,-0.07,
4.45,-1.19,0.23,0.33,-0.05,0.03,-0.07,
4.451,-1.25,0.16,0.35,-0.05,0.03,-0.07,
4.451,-1.25,0.16,0.35,-0.05,0.03,-0.07,
4.457,-1.25,0.16,0.35,-0.01,0.09,0.09,
4.458,-1.25,0.16,0.35,-0.01,0.09,0.09,
4.459,-1.19,0.25,0.43,-0.01,0.09,0.09,
4.459,-1.19,0.25,0.43,-0.01,0.09,0.09,
4.467,-1.19,0.25,0.43,0.01,0.14,0.25,
4.468,-1.19,0.25,0.43,0.01,0.14,0.25,
4.469,-1.09,0.27,0.50,0.01,0.14,0.25,
4.47,-1.09,0.27,0.50,0.01,0.14,0.25,
4.477,-1.09,0.27,0.50,0.05,0.19,0.37,
4.478,-1.09,0.27,0.50,0.05,0.19,0.37,
4.478,-0.93,0.32,0.59,0.05,0.19,0.37,
4.479,-0.93,0.32,0.59,0.05,0.19,0.37,
4.486,-0.93,0.32,0.59,0.09,0.22,0.45,
4.487,-0.93,0.32,0.59,0.09,0.22,0.45,
4.487,-0.70,0.34,0.66,0.09,0.22,0.45,
4.488,-0.70,0.34,0.66,0.09,0.22,0.45,
4.496,-0.70,0.34,0.66,0.16,0.24,0.47,
4.497,-0.70,0.34,0.66,0.16,0.24,0.47,
4.497,-0.45,0.33,0.71,0.16,0.24,0.47,
4.498,-0.45,0.33,0.71,0.16,0.24,0.47,
4.511,-0.45,0.33,0.71,0.23,0.23,0.44,
4.512,-0.45,0.33,0.71,0.23,0.23,0.44,
4.518,-0.17,0.37,0.77,0.23,0.23,0.44,
4.52,-0.17,0.37,0.77,0.23,0.23,0.44,
4.521,-0.17,0.37,0.77,0.30,0.18,0.36,
4.521,-0.17,0.37,0.77,0.30,0.18,0.36,
4.522,0.08,0.34,0.80,0.30,0.18,0.36,
4.522,0.08,0.34,0.80,0.30,0.18,0.36,
4.525,0.08,0.34,0.80,0.36,0.11,0.24,
4.526,0.08,0.34,0.80,0.36,0.11,0.24,
4.526,0.29,0.30,0.81,0.36,0.11,0.24,
4.527,0.29,0.30,0.81,0.36,0.11,0.24,
4.534,0.29,0.30,0.81,0.41,0.02,0.09,
4.535,0.29,0.30,0.81,0.41,0.02,0.09,
4.536,0.53,0.38,0.79,0.41,0.02,0.09,
4.536,0.53,0.38,0.79,0.41,0.02,0.09,
4.543,0.53,0.38,0.79,0.41,0.02,0.09,
4.545,0.53,0.38,0.79,0.41,0.02,0.09,
4.546,0.53,0.38,0.79,0.41,0.02,0.09,
4.547,0.53,0.38,0.79,0.41,0.02,0.09,
4.553,0.53,0.38,0.79,0.44,-0.07,-0.08,
4.553,0.53,0.38,0.79,0.44,-0.07,-0.08,
4.554,0.82,0.38,0.73,0.44,-0.07,-0.08,
4.554,0.82,0.38,0.73,0.44,-0.07,-0.08,
4.562,0.82,0.38,0.73,0.46,-0.15,-0.25,
4.563,0.82,0.38,0.73,0.46,-0.15,-0.25,
4.564,0.99,0.35,0.66,0.46,-0.15,-0.25,
4.564,0.99,0.35,0.66,0.46,-0.15,-0.25,
4.572,0.99,0.35,0.66,0.45,-0.23,-0.42,
4.573,0.99,0.35,0.66,0.45,-0.23,-0.42,
4.574,1.10,0.24,0.56,0.45,-0.23,-0.42,
4.574,1.10,0.24,0.56,0.45,-0.23,-0.42,
4.581,1.10,0.24,0.56,0.42,-0.31,-0.59,
4.582,1.10,0.24,0.56,0.42,-0.31,-0.59,
4.583,1.24,0.21,0.53,0.42,-0.31,-0.59,
4.583,1.24,0.21,0.53,0.42,-0.31,-0.59,
4.591,1.24,0.21,0.53,0.36,-0.38,-0.74,
4.592,1.24,0.21,0.53,0.36,-0.38,-0.74,
4.593,1.37,0.20,0.57,0.36,-0.38,-0.74,
4.593,1.37,0.20,0.57,0.36,-0.38,-0.74,
4.601,1.37,0.20,0.57,0.29,-0.44,-0.86,
4.601,1.37,0.20,0.57,0.29,-0.44,-0.86,
4.602,1.43,0.13,0.64,0.29,-0.44,-0.86,
4.603,1.43,0.13,0.64,0.29,-0.44,-0.86,
4.61,1.43,0.13,0.64,0.23,-0.49,-0.95,
4.611,1.43,0.13,0.64,0.23,-0.49,-0.95,
4.612,1.42,-0.01,0.71,0.23,-0.49,-0.95,
4.613,1.42,-0.01,0.71,0.23,-0.49,-0.95,
4.62,1.42,-0.01,0.71,0.20,-0.54,-1.01,
4.621,1.42,-0.01,0.71,0.20,-0.54,-1.01,
4.621,1.34,-0.23,0.66,0.20,-0.54,-1.01,
4.622,1.34,-0.23,0.66,0.20,-0.54,-1.01,
4.63,1.34,-0.23,0.66,0.18,-0.58,-1.03,
4.631,1.34,-0.23,0.66,0.18,-0.58,-1.03,
4.631,1.19,-0.39,0.54,0.18,-0.58,-1.03,
4.632,1.19,-0.39,0.54,0.18,-0.58,-1.03,
4.646,1.19,-0.39,0.54,0.17,-0.59,-1.01,
4.647,1.19,-0.39,0.54,0.17,-0.59,-1.01,
4.648,1.05,-0.43,0.41,0.17,-0.59,-1.01,
4.648,1.05,-0.43,0.41,0.17,-0.59,-1.01,
4.648,1.05,-0.43,0.41,0.15,-0.58,-0.94,
4.648,1.05,-0.43,0.41,0.15,-0.58,-0.94,
4.649,0.91,-0.40,0.28,0.15,-0.58,-0.94,
4.649,0.91,-0.40,0.28,0.15,-0.58,-0.94,
4.657,0.91,-0.40,0.28,0.09,-0.54,-0.82,
4.658,0.91,-0.40,0.28,0.09,-0.54,-0.82,
4.658,0.83,-0.32,0.27,0.09,-0.54,-0.82,
4.659,0.83,-0.32,0.27,0.09,-0.54,-0.82,
4.667,0.83,-0.32,0.27,0.02,-0.49,-0.67,
4.668,0.83,-0.32,0.27,0.02,-0.49,-0.67,
4.669,0.85,-0.26,0.35,0.02,-0.49,-0.67,
4.669,0.85,-0.26,0.35,0.02,-0.49,-0.67,
4.677,0.85,-0.26,0.35,-0.05,-0.44,-0.51,
4.679,0.85,-0.26,0.35,-0.05,-0.44,-0.51,
4.679,0.89,-0.23,0.48,-0.05,-0.44,-0.51,
4.68,0.89,-0.23,0.48,-0.05,-0.44,-0.51,
4.686,0.89,-0.23,0.48,-0.09,-0.39,-0.37,
4.687,0.89,-0.23,0.48,-0.09,-0.39,-0.37,
4.687,0.93,-0.25,0.65,-0.09,-0.39,-0.37,
4.688,0.93,-0.25,0.65,-0.09,-0.39,-0.37,
4.695,0.93,-0.25,0.65,-0.08,-0.35,-0.27,
4.696,0.93,-0.25,0.65,-0.08,-0.35,-0.27,
4.697,0.94,-0.25,0.78,-0.08,-0.35,-0.27,
4.697,0.94,-0.25,0.78,-0.08,-0.35,-0.27,
4.71,0.94,-0.25,0.78,-0.02,-0.33,-0.20,
4.711,0.94,-0.25,0.78,-0.02,-0.33,-0.20,
4.712,0.93,-0.23,0.85,-0.02,-0.33,-0.20,
4.712,0.93,-0.23,0.85,-0.02,-0.33,-0.20,
4.714,0.93,-0.23,0.85,0.07,-0.32,-0.16,
4.715,0.93,-0.23,0.85,0.07,-0.32,-0.16,
4.716,0.88,-0.20,0.87,0.07,-0.32,-0.16,
4.716,0.88,-0.20,0.87,0.07,-0.32,-0.16,
4.728,0.88,-0.20,0.87,0.18,-0.31,-0.13,
4.729,0.88,-0.20,0.87,0.18,-0.31,-0.13,
4.729,0.82,-0.16,0.81,0.18,-0.31,-0.13,
4.73,0.82,-0.16,0.81,0.18,-0.31,-0.13,
4.734,0.82,-0.16,0.81,0.27,-0.29,-0.11,
4.734,0.82,-0.16,0.81,0.27,-0.29,-0.11,
4.734,0.75,-0.14,0.73,0.27,-0.29,-0.11,
4.735,0.75,-0.14,0.73,0.27,-0.29,-0.11,
4.743,0.75,-0.14,0.73,0.27,-0.29,-0.11,
4.745,0.75,-0.14,0.73,0.27,-0.29,-0.11,
4.751,0.75,-0.14,0.73,0.27,-0.29,-0.11,
4.752,0.75,-0.14,0.73,0.27,-0.29,-0.11,
4.753,0.75,-0.14,0.73,0.33,-0.26,-0.09,
4.754,0.75,-0.14,0.73,0.33,-0.26,-0.09,
4.754,0.46,-0.10,0.44,0.33,-0.26,-0.09,
4.755,0.46,-0.10,0.44,0.33,-0.26,-0.09,
4.762,0.46,-0.10,0.44,0.35,-0.23,-0.06,
4.764,0.46,-0.10,0.44,0.35,-0.23,-0.06,
4.764,0.20,-0.05,0.30,0.35,-0.23,-0.06,
4.765,0.20,-0.05,0.30,0.35,-0.23,-0.06,
4.772,0.20,-0.05,0.30,0.32,-0.17,-0.00,
4.773,0.20,-0.05,0.30,0.32,-0.17,-0.00,
4.774,-0.07,0.02,0.15,0.32,-0.17,-0.00,
4.775,-0.07,0.02,0.15,0.32,-0.17,-0.00,
4.782,-0.07,0.02,0.15,0.24,-0.10,0.10,
4.783,-0.07,0.02,0.15,0.24,-0.10,0.10,
4.783,-0.29,0.11,0.03,0.24,-0.10,0.10,
4.784,-0.29,0.11,0.03,0.24,-0.10,0.10,
4.791,-0.29,0.11,0.03,0.13,-0.01,0.23,
4.792,-0.29,0.11,0.03,0.13,-0.01,0.23,
4.793,-0.41,0.19,-0.08,0.13,-0.01,0.23,
4.793,-0.41,0.19,-0.08,0.13,-0.01,0.23,
4.8,-0.41,0.19,-0.08,0.01,0.08,0.38,
4.801,-0.41,0.19,-0.08,0.01,0.08,0.38,
4.802,-0.44,0.22,-0.22,0.01,0.08,0.38,
4.803,-0.44,0.22,-0.22,0.01,0.08,0.38,
4.81,-0.44,0.22,-0.22,-0.10,0.15,0.52,
4.811,-0.44,0.22,-0.22,-0.10,0.15,0.52,
4.812,-0.44,0.24,-0.32,-0.10,0.15,0.52,
4.813,-0.44,0.24,-0.32,-0.10,0.15,0.52,
4.819,-0.44,0.24,-0.32,-0.21,0.20,0.63,
4.82,-0.44,0.24,-0.32,-0.21,0.20,0.63,
4.82,-0.48,0.24,-0.42,-0.21,0.20,0.63,
4.821,-0.48,0.24,-0.42,-0.21,0.20,0.63,
4.83,-0.48,0.24,-0.42,-0.31,0.23,0.69,
4.831,-0.48,0.24,-0.42,-0.31,0.23,0.69,
4.831,-0.52,0.25,-0.55,-0.31,0.23,0.69,
4.832,-0.52,0.25,-0.55,-0.31,0.23,0.69,
4.84,-0.52,0.25,-0.55,-0.39,0.24,0.70,
4.841,-0.52,0.25,-0.55,-0.39,0.24,0.70,
4.841,-0.61,0.26,-0.67,-0.39,0.24,0.70,
4.841,-0.61,0.26,-0.67,-0.39,0.24,0.70,
4.848,-0.61,0.26,-0.67,-0.47,0.24,0.68,
4.848,-0.61,0.26,-0.67,-0.47,0.24,0.68,
4.849,-0.68,0.24,-0.78,-0.47,0.24,0.68,
4.849,-0.68,0.24,-0.78,-0.47,0.24,0.68,
4.857,-0.68,0.24,-0.78,-0.54,0.24,0.65,
4.858,-0.68,0.24,-0.78,-0.54,0.24,0.65,
4.859,-0.69,0.19,-0.85,-0.54,0.24,0.65,
4.859,-0.69,0.19,-0.85,-0.54,0.24,0.65,
4.867,-0.69,0.19,-0.85,-0.61,0.22,0.62,
4.868,-0.69,0.19,-0.85,-0.61,0.22,0.62,
4.869,-0.63,0.14,-0.87,-0.61,0.22,0.62,
4.87,-0.63,0.14,-0.87,-0.61,0.22,0.62,
4.876,-0.63,0.14,-0.87,-0.66,0.19,0.58,
4.877,-0.63,0.14,-0.87,-0.66,0.19,0.58,
4.878,-0.49,0.06,-0.87,-0.66,0.19,0.58,
4.879,-0.49,0.06,-0.87,-0.66,0.19,0.58,
4.886,-0.49,0.06,-0.87,-0.70,0.14,0.52,
4.887,-0.49,0.06,-0.87,-0.70,0.14,0.52,
4.887,-0.34,0.00,-0.85,-0.70,0.14,0.52,
4.888,-0.34,0.00,-0.85,-0.70,0.14,0.52,
4.896,-0.34,0.00,-0.85,-0.71,0.08,0.43,
4.897,-0.34,0.00,-0.85,-0.71,0.08,0.43,
4.898,-0.20,-0.10,-0.83,-0.71,0.08,0.43,
4.899,-0.20,-0.10,-0.83,-0.71,0.08,0.43,
4.91,-0.20,-0.10,-0.83,-0.69,0.02,0.31,
4.911,-0.20,-0.10,-0.83,-0.69,0.02,0.31,
4.911,-0.08,-0.24,-0.77,-0.69,0.02,0.31,
4.912,-0.08,-0.24,-0.77,-0.69,0.02,0.31,
4.915,-0.08,-0.24,-0.77,-0.65,-0.06,0.16,
4.915,-0.08,-0.24,-0.77,-0.65,-0.06,0.16,
4.916,0.01,-0.43,-0.63,-0.65,-0.06,0.16,
4.917,0.01,-0.43,-0.63,-0.65,-0.06,0.16,
4.927,0.01,-0.43,-0.63,-0.59,-0.15,-0.01,
4.928,0.01,-0.43,-0.63,-0.59,-0.15,-0.01,
4.928,0.24,-0.59,-0.55,-0.59,-0.15,-0.01,
4.929,0.24,-0.59,-0.55,-0.59,-0.15,-0.01,
4.934,0.24,-0.59,-0.55,-0.50,-0.23,-0.17,
4.935,0.24,-0.59,-0.55,-0.50,-0.23,-0.17,
4.935,0.56,-0.63,-0.45,-0.50,-0.23,-0.17,
4.935,0.56,-0.63,-0.45,-0.50,-0.23,-0.17,
4.943,0.56,-0.63,-0.45,-0.50,-0.23,-0.17,
4.944,0.56,-0.63,-0.45,-0.50,-0.23,-0.17,
4.945,0.56,-0.63,-0.45,-0.50,-0.23,-0.17,
4.945,0.56,-0.63,-0.45,-0.50,-0.23,-0.17,
4.955,0.56,-0.63,-0.45,-0.40,-0.30,-0.33,
4.956,0.56,-0.63,-0.45,-0.40,-0.30,-0.33,
4.957,1.06,-0.35,-0.24,-0.40,-0.30,-0.33,
4.957,1.06,-0.35,-0.24,-0.40,-0.30,-0.33,
4.963,1.06,-0.35,-0.24,-0.29,-0.39,-0.51,
4.964,1.06,-0.35,-0.24,-0.29,-0.39,-0.51,
4.965,1.04,-0.11,-0.15,-0.29,-0.39,-0.51,
4.966,1.04,-0.11,-0.15,-0.29,-0.39,-0.51,
4.973,1.04,-0.11,-0.15,-0.16,-0.47,-0.71,
4.974,1.04,-0.11,-0.15,-0.16,-0.47,-0.71,
4.974,0.81,0.12,-0.06,-0.16,-0.47,-0.71,
4.975,0.81,0.12,-0.06,-0.16,-0.47,-0.71,
4.981,0.81,0.12,-0.06,-0.02,-0.54,-0.90,
4.982,0.81,0.12,-0.06,-0.02,-0.54,-0.90,
4.99,0.45,0.30,-0.00,-0.02,-0.54,-0.90,
4.991,0.45,0.30,-0.00,-0.02,-0.54,-0.90,
4.993,0.45,0.30,-0.00,0.12,-0.58,-1.02,
4.994,0.45,0.30,-0.00,0.12,-0.58,-1.02,
4.995,0.04,0.47,0.04,0.12,-0.58,-1.02,
4.996,0.04,0.47,0.04,0.12,-0.58,-1.02,
5.0,0.04,0.47,0.04,0.24,-0.56,-1.00,
5.001,0.04,0.47,0.04,0.24,-0.56,-1.00,
5.001,-0.49,0.58,0.09,0.24,-0.56,-1.00,
5.002,-0.49,0.58,0.09,0.24,-0.56,-1.00,
5.01,-0.49,0.58,0.09,0.34,-0.48,-0.83,
5.011,-0.49,0.58,0.09,0.34,-0.48,-0.83,
5.011,-1.01,0.64,0.03,0.34,-0.48,-0.83,
5.011,-1.01,0.64,0.03,0.34,-0.48,-0.83,
5.02,-1.01,0.64,0.03,0.41,-0.35,-0.55,
5.02,-1.01,0.64,0.03,0.41,-0.35,-0.55,
5.021,-1.45,0.72,-0.21,0.41,-0.35,-0.55,
5.021,-1.45,0.72,-0.21,0.41,-0.35,-0.55,
5.029,-1.45,0.72,-0.21,0.44,-0.17,-0.16,
5.03,-1.45,0.72,-0.21,0.44,-0.17,-0.16,
5.03,-1.69,0.82,-0.52,0.44,-0.17,-0.16,
5.03,-1.69,0.82,-0.52,0.44,-0.17,-0.16,
5.039,-1.69,0.82,-0.52,0.42,0.03,0.28,
5.04,-1.69,0.82,-0.52,0.42,0.03,0.28,
5.04,-1.77,0.94,-0.82,0.42,0.03,0.28,
5.04,-1.77,0.94,-0.82,0.42,0.03,0.28,
5.049,-1.77,0.94,-0.82,0.32,0.24,0.71,
5.05,-1.77,0.94,-0.82,0.32,0.24,0.71,
5.051,-1.68,1.08,-1.07,0.32,0.24,0.71,
5.051,-1.68,1.08,-1.07,0.32,0.24,0.71,
5.058,-1.68,1.08,-1.07,0.16,0.44,1.08,
5.059,-1.68,1.08,-1.07,0.16,0.44,1.08,
5.059,-1.45,1.21,-1.20,0.16,0.44,1.08,
5.06,-1.45,1.21,-1.20,0.16,0.44,1.08,
5.067,-1.45,1.21,-1.20,-0.06,0.59,1.33,
5.068,-1.45,1.21,-1.20,-0.06,0.59,1.33,
5.069,-1.25,1.24,-1.21,-0.06,0.59,1.33,
5.069,-1.25,1.24,-1.21,-0.06,0.59,1.33,
5.089,-1.25,1.24,-1.21,-0.28,0.67,1.44,
5.09,-1.25,1.24,-1.21,-0.28,0.67,1.44,
5.091,-1.06,1.21,-1.18,-0.28,0.67,1.44,
5.092,-1.06,1.21,-1.18,-0.28,0.67,1.44,
5.092,-1.06,1.21,-1.18,-0.48,0.69,1.44,
5.093,-1.06,1.21,-1.18,-0.48,0.69,1.44,
5.093,-1.06,1.21,-1.18,-0.48,0.69,1.44,
5.094,-0.94,1.06,-1.05,-0.48,0.69,1.44,
5.094,-0.94,1.06,-1.05,-0.48,0.69,1.44,
5.095,-0.94,1.06,-1.05,-0.48,0.69,1.44,
5.101,-0.94,1.06,-1.05,-0.62,0.68,1.33,
5.102,-0.94,1.06,-1.05,-0.62,0.68,1.33,
5.102,-1.17,0.56,-0.80,-0.62,0.68,1.33,
5.103,-1.17,0.56,-0.80,-0.62,0.68,1.33,
5.11,-1.17,0.56,-0.80,-0.68,0.65,1.17,
5.111,-1.17,0.56,-0.80,-0.68,0.65,1.17,
5.111,-1.50,0.08,-0.70,-0.68,0.65,1.17,
5.112,-1.50,0.08,-0.70,-0.68,0.65,1.17,
5.12,-1.50,0.08,-0.70,-0.66,0.62,1.02,
5.121,-1.50,0.08,-0.70,-0.66,0.62,1.02,
5.121,-1.90,-0.40,-0.64,-0.66,0.62,1.02,
5.122,-1.90,-0.40,-0.64,-0.66,0.62,1.02,
5.129,-1.90,-0.40,-0.64,-0.57,0.60,0.91,
5.13,-1.90,-0.40,-0.64,-0.57,0.60,0.91,
5.131,-2.21,-0.76,-0.63,-0.57,0.60,0.91,
5.131,-2.21,-0.76,-0.63,-0.57,0.60,0.91,
5.144,-2.21,-0.76,-0.63,-0.45,0.62,0.89,
5.145,-2.21,-0.76,-0.63,-0.45,0.62,0.89,
5.145,-2.32,-0.99,-0.59,-0.45,0.62,0.89,
5.145,-2.32,-0.99,-0.59,-0.45,0.62,0.89,
5.148,-2.32,-0.99,-0.59,-0.32,0.67,0.92,
5.148,-2.32,-0.99,-0.59,-0.32,0.67,0.92,
5.149,-2.17,-1.03,-0.53,-0.32,0.67,0.92,
5.149,-2.17,-1.03,-0.53,-0.32,0.67,0.92,
5.157,-2.17,-1.03,-0.53,-0.21,0.73,0.97,
5.158,-2.17,-1.03,-0.53,-0.21,0.73,0.97,
5.159,-1.84,-0.96,-0.44,-0.21,0.73,0.97,
5.159,-1.84,-0.96,-0.44,-0.21,0.73,0.97,
5.168,-1.84,-0.96,-0.44,-0.12,0.77,0.98,
5.168,-1.84,-0.96,-0.44,-0.12,0.77,0.98,
5.169,-1.42,-0.86,-0.33,-0.12,0.77,0.98,
5.17,-1.42,-0.86,-0.33,-0.12,0.77,0.98,
5.177,-1.42,-0.86,-0.33,-0.04,0.76,0.92,
5.179,-1.42,-0.86,-0.33,-0.04,0.76,0.92,
5.179,-0.93,-0.75,-0.21,-0.04,0.76,0.92,
5.18,-0.93,-0.75,-0.21,-0.04,0.76,0.92,
5.186,-0.93,-0.75,-0.21,0.03,0.71,0.76,
5.187,-0.93,-0.75,-0.21,0.03,0.71,0.76,
5.187,-0.49,-0.64,-0.13,0.03,0.71,0.76,
5.188,-0.49,-0.64,-0.13,0.03,0.71,0.76,
5.196,-0.49,-0.64,-0.13,0.09,0.61,0.53,
5.197,-0.49,-0.64,-0.13,0.09,0.61,0.53,
5.198,-0.15,-0.53,-0.08,0.09,0.61,0.53,
5.198,-0.15,-0.53,-0.08,0.09,0.61,0.53,
5.205,-0.15,-0.53,-0.08,0.14,0.48,0.24,
5.206,-0.15,-0.53,-0.08,0.14,0.48,0.24,
5.207,0.10,-0.38,-0.08,0.14,0.48,0.24,
5.207,0.10,-0.38,-0.08,0.14,0.48,0.24,
5.214,0.10,-0.38,-0.08,0.18,0.33,-0.07,
5.215,0.10,-0.38,-0.08,0.18,0.33,-0.07,
5.216,0.22,-0.13,-0.09,0.18,0.33,-0.07,
5.216,0.22,-0.13,-0.09,0.18,0.33,-0.07,
5.224,0.22,-0.13,-0.09,0.17,0.18,-0.36,
5.225,0.22,-0.13,-0.09,0.17,0.18,-0.36,
5.225,0.37,0.17,-0.05,0.17,0.18,-0.36,
5.226,0.37,0.17,-0.05,0.17,0.18,-0.36,
5.234,0.37,0.17,-0.05,0.15,0.05,-0.60,
5.234,0.37,0.17,-0.05,0.15,0.05,-0.60,
5.235,0.52,0.51,0.01,0.15,0.05,-0.60,
5.235,0.52,0.51,0.01,0.15,0.05,-0.60,
5.243,0.52,0.51,0.01,0.15,0.05,-0.60,
5.245,0.52,0.51,0.01,0.15,0.05,-0.60,
5.245,0.52,0.51,0.01,0.15,0.05,-0.60,
5.246,0.52,0.51,0.01,0.15,0.05,-0.60,
5.253,0.52,0.51,0.01,0.16,-0.05,-0.77,
5.254,0.52,0.51,0.01,0.16,-0.05,-0.77,
5.254,0.72,1.18,0.35,0.16,-0.05,-0.77,
5.255,0.72,1.18,0.35,0.16,-0.05,-0.77,
5.262,0.72,1.18,0.35,0.19,-0.12,-0.88,
5.263,0.72,1.18,0.35,0.19,-0.12,-0.88,
5.264,0.74,1.45,0.64,0.19,-0.12,-0.88,
5.264,0.74,1.45,0.64,0.19,-0.12,-0.88,
5.272,0.74,1.45,0.64,0.25,-0.16,-0.95,
5.274,0.74,1.45,0.64,0.25,-0.16,-0.95,
5.274,0.70,1.67,1.02,0.25,-0.16,-0.95,
5.275,0.70,1.67,1.02,0.25,-0.16,-0.95,
5.281,0.70,1.67,1.02,0.38,-0.19,-0.97,
5.282,0.70,1.67,1.02,0.38,-0.19,-0.97,
5.283,0.59,1.77,1.40,0.38,-0.19,-0.97,
5.284,0.59,1.77,1.40,0.38,-0.19,-0.97,
5.291,0.59,1.77,1.40,0.58,-0.21,-0.95,
5.292,0.59,1.77,1.40,0.58,-0.21,-0.95,
5.293,0.45,1.74,1.68,0.58,-0.21,-0.95,
5.293,0.45,1.74,1.68,0.58,-0.21,-0.95,
5.301,0.45,1.74,1.68,0.84,-0.22,-0.86,
5.302,0.45,1.74,1.68,0.84,-0.22,-0.86,
5.303,0.26,1.56,1.81,0.84,-0.22,-0.86,
5.304,0.26,1.56,1.81,0.84,-0.22,-0.86,
5.31,0.26,1.56,1.81,1.12,-0.21,-0.73,
5.311,0.26,1.56,1.81,1.12,-0.21,-0.73,
5.312,0.07,1.23,1.75,1.12,-0.21,-0.73,
5.313,0.07,1.23,1.75,1.12,-0.21,-0.73,
5.325,0.07,1.23,1.75,1.37,-0.18,-0.55,
5.326,0.07,1.23,1.75,1.37,-0.18,-0.55,
5.327,-0.09,0.72,1.45,1.37,-0.18,-0.55,
5.327,-0.09,0.72,1.45,1.37,-0.18,-0.55,
5.329,-0.09,0.72,1.45,1.52,-0.13,-0.34,
5.33,-0.09,0.72,1.45,1.52,-0.13,-0.34,
5.33,-0.11,0.07,0.95,1.52,-0.13,-0.34,
5.331,-0.11,0.07,0.95,1.52,-0.13,-0.34,
5.338,-0.11,0.07,0.95,1.51,-0.07,-0.13,
5.339,-0.11,0.07,0.95,1.51,-0.07,-0.13,
5.339,0.04,-1.37,-0.53,1.51,-0.07,-0.13,
5.34,0.04,-1.37,-0.53,1.51,-0.07,-0.13,
5.349,0.04,-1.37,-0.53,1.27,0.00,0.03,
5.35,0.04,-1.37,-0.53,1.27,0.00,0.03,
5.35,0.31,-1.74,-1.12,1.27,0.00,0.03,
5.351,0.31,-1.74,-1.12,1.27,0.00,0.03,
5.358,0.31,-1.74,-1.12,0.75,0.08,0.10,
5.359,0.31,-1.74,-1.12,0.75,0.08,0.10,
5.36,0.62,-2.08,-2.61,0.75,0.08,0.10,
5.36,0.62,-2.08,-2.61,0.75,0.08,0.10,
5.367,0.62,-2.08,-2.61,0.00,0.14,0.06,
5.368,0.62,-2.08,-2.61,0.00,0.14,0.06,
5.369,0.75,-2.25,-2.88,0.00,0.14,0.06,
5.369,0.75,-2.25,-2.88,0.00,0.14,0.06,
5.378,0.75,-2.25,-2.88,-0.86,0.18,-0.06,
5.38,0.75,-2.25,-2.88,-0.86,0.18,-0.06,
5.381,0.55,-2.16,-3.04,-0.86,0.18,-0.06,
5.382,0.55,-2.16,-3.04,-0.86,0.18,-0.06,
5.386,0.55,-2.16,-3.04,-1.66,0.17,-0.21,
5.387,0.55,-2.16,-3.04,-1.66,0.17,-0.21,
5.387,-1.16,-1.79,-2.88,-1.66,0.17,-0.21,
5.388,-1.16,-1.79,-2.88,-1.66,0.17,-0.21,
5.396,-1.16,-1.79,-2.88,-2.26,0.15,-0.27,
5.397,-1.16,-1.79,-2.88,-2.26,0.15,-0.27,
5.398,-1.66,-1.19,-2.46,-2.26,0.15,-0.27,
5.399,-1.66,-1.19,-2.46,-2.26,0.15,-0.27,
5.405,-1.66,-1.19,-2.46,-2.58,0.18,-0.14,
5.405,-1.66,-1.19,-2.46,-2.58,0.18,-0.14,
5.406,-3.37,0.25,-0.68,-2.58,0.18,-0.14,
5.406,-3.37,0.25,-0.68,-2.58,0.18,-0.14,
5.415,-3.37,0.25,-0.68,-2.32,0.32,0.26,
5.415,-3.37,0.25,-0.68,-2.32,0.32,0.26,
5.416,-3.78,0.62,-0.31,-2.32,0.32,0.26,
5.417,-3.78,0.62,-0.31,-2.32,0.32,0.26,
5.427,-3.78,0.62,-0.31,-1.78,0.44,0.90,
5.428,-3.78,0.62,-0.31,-1.78,0.44,0.90,
5.429,-3.97,1.09,0.23,-1.78,0.44,0.90,
5.429,-3.97,1.09,0.23,-1.78,0.44,0.90,
5.434,-3.97,1.09,0.23,-1.41,0.52,1.67,
5.435,-3.97,1.09,0.23,-1.41,0.52,1.67,
5.436,-3.72,1.48,0.80,-1.41,0.52,1.67,
5.437,-3.72,1.48,0.80,-1.41,0.52,1.67,
5.444,-3.72,1.48,0.80,-1.41,0.52,1.67,
5.445,-3.72,1.48,0.80,-1.41,0.52,1.67,
5.446,-3.72,1.48,0.80,-1.41,0.52,1.67,
5.446,-3.72,1.48,0.80,-1.41,0.52,1.67,
5.455,-3.72,1.48,0.80,-1.08,0.64,2.39,
5.456,-3.72,1.48,0.80,-1.08,0.64,2.39,
5.457,-1.33,1.78,1.43,-1.08,0.64,2.39,
5.457,-1.33,1.78,1.43,-1.08,0.64,2.39,
5.466,-1.33,1.78,1.43,0.19,0.60,2.86,
5.467,-1.33,1.78,1.43,0.19,0.60,2.86,
5.468,0.42,1.57,1.51,0.19,0.60,2.86,
5.469,0.42,1.57,1.51,0.19,0.60,2.86,
5.472,0.42,1.57,1.51,0.19,0.60,2.86,
5.474,0.42,1.57,1.51,0.19,0.60,2.86,
5.474,0.42,1.57,1.51,0.19,0.60,2.86,
5.475,0.42,1.57,1.51,0.19,0.60,2.86,
5.481,0.42,1.57,1.51,0.76,0.25,2.37,
5.483,0.42,1.57,1.51,0.76,0.25,2.37,
5.485,2.62,0.82,1.53,0.76,0.25,2.37,
5.485,2.62,0.82,1.53,0.76,0.25,2.37,
5.491,2.62,0.82,1.53,1.14,-0.26,1.50,
5.492,2.62,0.82,1.53,1.14,-0.26,1.50,
5.492,2.77,0.42,1.52,1.14,-0.26,1.50,
5.493,2.77,0.42,1.52,1.14,-0.26,1.50,
5.501,2.77,0.42,1.52,1.34,-0.83,0.41,
5.502,2.77,0.42,1.52,1.34,-0.83,0.41,
5.502,2.97,0.07,1.42,1.34,-0.83,0.41,
5.503,2.97,0.07,1.42,1.34,-0.83,0.41,
5.51,2.97,0.07,1.42,1.41,-1.38,-0.71,
5.511,2.97,0.07,1.42,1.41,-1.38,-0.71,
5.512,3.06,-0.22,1.06,1.41,-1.38,-0.71,
5.512,3.06,-0.22,1.06,1.41,-1.38,-0.71,
5.525,3.06,-0.22,1.06,1.38,-1.84,-1.72,
5.526,3.06,-0.22,1.06,1.38,-1.84,-1.72,
5.526,2.85,-0.44,-0.73,1.38,-1.84,-1.72,
5.527,2.85,-0.44,-0.73,1.38,-1.84,-1.72,
5.529,2.85,-0.44,-0.73,1.21,-2.14,-2.43,
5.53,2.85,-0.44,-0.73,1.21,-2.14,-2.43,
5.531,2.35,-0.56,-1.14,1.21,-2.14,-2.43,
5.531,2.35,-0.56,-1.14,1.21,-2.14,-2.43,
5.546,2.35,-0.56,-1.14,0.83,-2.26,-2.81,
5.547,2.35,-0.56,-1.14,0.83,-2.26,-2.81,
5.547,0.66,-0.62,-1.68,0.83,-2.26,-2.81,
5.547,0.66,-0.62,-1.68,0.83,-2.26,-2.81,
5.548,0.66,-0.62,-1.68,0.24,-2.22,-2.85,
5.548,0.66,-0.62,-1.68,0.24,-2.22,-2.85,
5.548,0.40,-0.60,-1.92,0.24,-2.22,-2.85,
5.549,0.40,-0.60,-1.92,0.24,-2.22,-2.85,
5.558,0.40,-0.60,-1.92,-0.41,-2.05,-2.54,
5.559,0.40,-0.60,-1.92,-0.41,-2.05,-2.54,
5.559,0.16,-0.51,-1.69,-0.41,-2.05,-2.54,
5.56,0.16,-0.51,-1.69,-0.41,-2.05,-2.54,
5.568,0.16,-0.51,-1.69,-0.97,-1.75,-1.97,
5.569,0.16,-0.51,-1.69,-0.97,-1.75,-1.97,
5.569,0.05,-0.37,-0.04,-0.97,-1.75,-1.97,
5.57,0.05,-0.37,-0.04,-0.97,-1.75,-1.97,
5.577,0.05,-0.37,-0.04,-1.29,-1.39,-1.31,
5.578,0.05,-0.37,-0.04,-1.29,-1.39,-1.31,
5.579,0.05,-0.19,0.24,-1.29,-1.39,-1.31,
5.579,0.05,-0.19,0.24,-1.29,-1.39,-1.31,
5.588,0.05,-0.19,0.24,-1.29,-1.03,-0.73,
5.589,0.05,-0.19,0.24,-1.29,-1.03,-0.73,
5.59,0.11,-0.02,0.67,-1.29,-1.03,-0.73,
5.59,0.11,-0.02,0.67,-1.29,-1.03,-0.73,
5.596,0.11,-0.02,0.67,-1.00,-0.73,-0.30,
5.597,0.11,-0.02,0.67,-1.00,-0.73,-0.30,
5.597,0.17,0.07,1.05,-1.00,-0.73,-0.30,
5.598,0.17,0.07,1.05,-1.00,-0.73,-0.30,
5.605,0.17,0.07,1.05,-0.54,-0.51,0.01,
5.606,0.17,0.07,1.05,-0.54,-0.51,0.01,
5.607,0.20,0.15,1.31,-0.54,-0.51,0.01,
5.608,0.20,0.15,1.31,-0.54,-0.51,0.01,
5.615,0.20,0.15,1.31,-0.04,-0.37,0.19,
5.617,0.20,0.15,1.31,-0.04,-0.37,0.19,
5.618,0.17,0.20,1.44,-0.04,-0.37,0.19,
5.618,0.17,0.20,1.44,-0.04,-0.37,0.19,
5.63,0.17,0.20,1.44,0.41,-0.30,0.29,
5.632,0.17,0.20,1.44,0.41,-0.30,0.29,
5.633,0.09,0.22,1.42,0.41,-0.30,0.29,
5.634,0.09,0.22,1.42,0.41,-0.30,0.29,
5.634,0.09,0.22,1.42,0.79,-0.25,0.33,
5.635,0.09,0.22,1.42,0.79,-0.25,0.33,
5.635,-0.05,0.25,1.29,0.79,-0.25,0.33,
5.635,-0.05,0.25,1.29,0.79,-0.25,0.33,
5.649,-0.05,0.25,1.29,0.79,-0.25,0.33,
5.65,-0.05,0.25,1.29,0.79,-0.25,0.33,
5.65,-0.05,0.25,1.29,0.79,-0.25,0.33,
5.65,-0.05,0.25,1.29,0.79,-0.25,0.33,
5.657,-0.05,0.25,1.29,1.20,-0.16,0.38,
5.658,-0.05,0.25,1.29,1.20,-0.16,0.38,
5.658,-0.41,0.32,1.04,1.20,-0.16,0.38,
5.658,-0.41,0.32,1.04,1.20,-0.16,0.38,
5.662,-0.41,0.32,1.04,1.20,-0.16,0.38,
5.663,-0.41,0.32,1.04,1.20,-0.16,0.38,
5.663,-0.41,0.32,1.04,1.20,-0.16,0.38,
5.663,-0.41,0.32,1.04,1.20,-0.16,0.38,
5.672,-0.41,0.32,1.04,1.23,-0.09,0.44,
5.673,-0.41,0.32,1.04,1.23,-0.09,0.44,
5.674,-0.73,0.44,0.99,1.23,-0.09,0.44,
5.675,-0.73,0.44,0.99,1.23,-0.09,0.44,
5.681,-0.73,0.44,0.99,1.18,0.01,0.51,
5.682,-0.73,0.44,0.99,1.18,0.01,0.51,
5.683,-0.85,0.46,0.93,1.18,0.01,0.51,
5.683,-0.85,0.46,0.93,1.18,0.01,0.51,
5.691,-0.85,0.46,0.93,1.09,0.14,0.61,
5.693,-0.85,0.46,0.93,1.09,0.14,0.61,
5.693,-0.90,0.43,0.85,1.09,0.14,0.61,
5.694,-0.90,0.43,0.85,1.09,0.14,0.61,
5.701,-0.90,0.43,0.85,0.99,0.26,0.70,
5.701,-0.90,0.43,0.85,0.99,0.26,0.70,
5.702,-0.87,0.32,0.78,0.99,0.26,0.70,
5.702,-0.87,0.32,0.78,0.99,0.26,0.70,
5.71,-0.87,0.32,0.78,0.89,0.36,0.78,
5.711,-0.87,0.32,0.78,0.89,0.36,0.78,
5.712,-0.74,0.20,0.71,0.89,0.36,0.78,
5.712,-0.74,0.20,0.71,0.89,0.36,0.78,
5.725,-0.74,0.20,0.71,0.78,0.43,0.82,
5.726,-0.74,0.20,0.71,0.78,0.43,0.82,
5.727,-0.51,0.09,0.71,0.78,0.43,0.82,
5.727,-0.51,0.09,0.71,0.78,0.43,0.82,
5.73,-0.51,0.09,0.71,0.67,0.44,0.80,
5.73,-0.51,0.09,0.71,0.67,0.44,0.80,
5.731,-0.25,0.05,0.76,0.67,0.44,0.80,
5.732,-0.25,0.05,0.76,0.67,0.44,0.80,
5.748,-0.25,0.05,0.76,0.56,0.39,0.72,
5.748,-0.25,0.05,0.76,0.56,0.39,0.72,
5.749,-0.01,0.05,0.88,0.56,0.39,0.72,
5.749,-0.01,0.05,0.88,0.56,0.39,0.72,
5.749,-0.01,0.05,0.88,0.48,0.30,0.56,
5.75,-0.01,0.05,0.88,0.48,0.30,0.56,
5.75,0.13,0.05,1.00,0.48,0.30,0.56,
5.75,0.13,0.05,1.00,0.48,0.30,0.56,
5.757,0.13,0.05,1.00,0.42,0.17,0.37,
5.758,0.13,0.05,1.00,0.42,0.17,0.37,
5.758,0.16,0.08,1.08,0.42,0.17,0.37,
5.759,0.16,0.08,1.08,0.42,0.17,0.37,
5.768,0.16,0.08,1.08,0.41,0.04,0.16,
5.769,0.16,0.08,1.08,0.41,0.04,0.16,
5.769,0.07,0.10,1.06,0.41,0.04,0.16,
5.77,0.07,0.10,1.06,0.41,0.04,0.16,
5.778,0.07,0.10,1.06,0.44,-0.08,-0.03,
5.779,0.07,0.10,1.06,0.44,-0.08,-0.03,
5.78,-0.07,0.12,0.93,0.44,-0.08,-0.03,
5.78,-0.07,0.12,0.93,0.44,-0.08,-0.03,
5.787,-0.07,0.12,0.93,0.47,-0.17,-0.16,
5.788,-0.07,0.12,0.93,0.47,-0.17,-0.16,
5.788,-0.28,0.14,0.74,0.47,-0.17,-0.16,
5.789,-0.28,0.14,0.74,0.47,-0.17,-0.16,
5.796,-0.28,0.14,0.74,0.49,-0.21,-0.22,
5.797,-0.28,0.14,0.74,0.49,-0.21,-0.22,
5.798,-0.50,0.18,0.49,0.49,-0.21,-0.22,
5.798,-0.50,0.18,0.49,0.49,-0.21,-0.22,
5.805,-0.50,0.18,0.49,0.45,-0.20,-0.20,
5.806,-0.50,0.18,0.49,0.45,-0.20,-0.20,
5.806,-0.63,0.19,0.27,0.45,-0.20,-0.20,
5.807,-0.63,0.19,0.27,0.45,-0.20,-0.20,
5.815,-0.63,0.19,0.27,0.37,-0.16,-0.12,
5.816,-0.63,0.19,0.27,0.37,-0.16,-0.12,
5.817,-0.70,0.20,0.05,0.37,-0.16,-0.12,
5.817,-0.70,0.20,0.05,0.37,-0.16,-0.12,
5.826,-0.70,0.20,0.05,0.24,-0.10,0.00,
5.827,-0.70,0.20,0.05,0.24,-0.10,0.00,
5.828,-0.66,0.19,-0.07,0.24,-0.10,0.00,
5.829,-0.66,0.19,-0.07,0.24,-0.10,0.00,
5.834,-0.66,0.19,-0.07,0.07,-0.03,0.13,
5.835,-0.66,0.19,-0.07,0.07,-0.03,0.13,
5.835,-0.54,0.16,-0.05,0.07,-0.03,0.13,
5.836,-0.54,0.16,-0.05,0.07,-0.03,0.13,
5.849,-0.54,0.16,-0.05,0.07,-0.03,0.13,
5.85,-0.54,0.16,-0.05,0.07,-0.03,0.13,
5.85,-0.54,0.16,-0.05,0.07,-0.03,0.13,
5.851,-0.54,0.16,-0.05,0.07,-0.03,0.13,
5.857,-0.54,0.16,-0.05,-0.09,0.04,0.22,
5.858,-0.54,0.16,-0.05,-0.09,0.04,0.22,
5.858,-0.26,0.18,0.20,-0.09,0.04,0.22,
5.858,-0.26,0.18,0.20,-0.09,0.04,0.22,
5.863,-0.26,0.18,0.20,-0.22,0.08,0.27,
5.863,-0.26,0.18,0.20,-0.22,0.08,0.27,
5.864,-0.09,0.20,0.32,-0.22,0.08,0.27,
5.864,-0.09,0.20,0.32,-0.22,0.08,0.27,
5.872,-0.09,0.20,0.32,-0.28,0.07,0.25,
5.873,-0.09,0.20,0.32,-0.28,0.07,0.25,
5.873,0.03,0.21,0.36,-0.28,0.07,0.25,
5.874,0.03,0.21,0.36,-0.28,0.07,0.25,
5.882,0.03,0.21,0.36,-0.27,0.01,0.18,
5.883,0.03,0.21,0.36,-0.27,0.01,0.18,
5.883,0.12,0.16,0.35,-0.27,0.01,0.18,
5.884,0.12,0.16,0.35,-0.27,0.01,0.18,
5.891,0.12,0.16,0.35,-0.21,-0.06,0.07,
5.892,0.12,0.16,0.35,-0.21,-0.06,0.07,
5.893,0.13,0.10,0.30,-0.21,-0.06,0.07,
5.894,0.13,0.10,0.30,-0.21,-0.06,0.07,
5.901,0.13,0.10,0.30,-0.13,-0.12,-0.05,
5.901,0.13,0.10,0.30,-0.13,-0.12,-0.05,
5.902,0.09,0.03,0.18,-0.13,-0.12,-0.05,
5.903,0.09,0.03,0.18,-0.13,-0.12,-0.05,
5.91,0.09,0.03,0.18,-0.07,-0.16,-0.15,
5.911,0.09,0.03,0.18,-0.07,-0.16,-0.15,
5.912,0.05,-0.00,0.05,-0.07,-0.16,-0.15,
5.913,0.05,-0.00,0.05,-0.07,-0.16,-0.15,
5.925,0.05,-0.00,0.05,-0.03,-0.18,-0.22,
5.926,0.05,-0.00,0.05,-0.03,-0.18,-0.22,
5.926,0.02,-0.02,-0.08,-0.03,-0.18,-0.22,
5.927,0.02,-0.02,-0.08,-0.03,-0.18,-0.22,
5.929,0.02,-0.02,-0.08,-0.03,-0.18,-0.25,
5.929,0.02,-0.02,-0.08,-0.03,-0.18,-0.25,
5.93,0.05,-0.01,-0.16,-0.03,-0.18,-0.25,
5.93,0.05,-0.01,-0.16,-0.03,-0.18,-0.25,
5.941,0.05,-0.01,-0.16,-0.05,-0.16,-0.25,
5.942,0.05,-0.01,-0.16,-0.05,-0.16,-0.25,
5.943,0.11,-0.01,-0.18,-0.05,-0.16,-0.25,
5.943,0.11,-0.01,-0.18,-0.05,-0.16,-0.25,
5.948,0.11,-0.01,-0.18,-0.09,-0.13,-0.24,
5.949,0.11,-0.01,-0.18,-0.09,-0.13,-0.24,
5.949,0.16,-0.02,-0.14,-0.09,-0.13,-0.24,
5.95,0.16,-0.02,-0.14,-0.09,-0.13,-0.24,
5.957,0.16,-0.02,-0.14,-0.12,-0.10,-0.23,
5.959,0.16,-0.02,-0.14,-0.12,-0.10,-0.23,
5.96,0.20,-0.02,-0.07,-0.12,-0.10,-0.23,
5.961,0.20,-0.02,-0.07,-0.12,-0.10,-0.23,
5.97,0.20,-0.02,-0.07,-0.13,-0.08,-0.22,
5.971,0.20,-0.02,-0.07,-0.13,-0.08,-0.22,
5.972,0.16,-0.00,-0.03,-0.13,-0.08,-0.22,
5.973,0.16,-0.00,-0.03,-0.13,-0.08,-0.22,
5.977,0.16,-0.00,-0.03,-0.12,-0.06,-0.21,
5.978,0.16,-0.00,-0.03,-0.12,-0.06,-0.21,
5.978,0.07,0.04,-0.03,-0.12,-0.06,-0.21,
5.979,0.07,0.04,-0.03,-0.12,-0.06,-0.21,
5.987,0.07,0.04,-0.03,-0.09,-0.05,-0.20,
5.988,0.07,0.04,-0.03,-0.09,-0.05,-0.20,
5.989,-0.03,0.06,-0.06,-0.09,-0.05,-0.20,
5.99,-0.03,0.06,-0.06,-0.09,-0.05,-0.20,
5.996,-0.03,0.06,-0.06,-0.05,-0.02,-0.18,
5.997,-0.03,0.06,-0.06,-0.05,-0.02,-0.18,
5.997,-0.13,0.10,-0.13,-0.05,-0.02,-0.18,
5.998,-0.13,0.10,-0.13,-0.05,-0.02,-0.18,
6.005,-0.13,0.10,-0.13,-0.01,0.01,-0.14,
6.006,-0.13,0.10,-0.13,-0.01,0.01,-0.14,
6.006,-0.19,0.09,-0.19,-0.01,0.01,-0.14,
6.007,-0.19,0.09,-0.19,-0.01,0.01,-0.14,
6.014,-0.19,0.09,-0.19,0.00,0.05,-0.08,
6.015,-0.19,0.09,-0.19,0.00,0.05,-0.08,
6.016,-0.23,0.08,-0.25,0.00,0.05,-0.08,
6.017,-0.23,0.08,-0.25,0.00,0.05,-0.08,
6.025,-0.23,0.08,-0.25,-0.00,0.09,-0.00,
6.027,-0.23,0.08,-0.25,-0.00,0.09,-0.00,
6.027,-0.26,0.07,-0.31,-0.00,0.09,-0.00,
6.028,-0.26,0.07,-0.31,-0.00,0.09,-0.00,
6.034,-0.26,0.07,-0.31,-0.02,0.13,0.07,
6.035,-0.26,0.07,-0.31,-0.02,0.13,0.07,
6.035,-0.28,0.05,-0.32,-0.02,0.13,0.07,
6.036,-0.28,0.05,-0.32,-0.02,0.13,0.07,
6.045,-0.28,0.05,-0.32,-0.02,0.13,0.07,
6.046,-0.28,0.05,-0.32,-0.02,0.13,0.07,
6.046,-0.28,0.05,-0.32,-0.02,0.13,0.07,
6.047,-0.28,0.05,-0.32,-0.02,0.13,0.07,
6.054,-0.28,0.05,-0.32,-0.06,0.16,0.13,
6.054,-0.28,0.05,-0.32,-0.06,0.16,0.13,
6.055,-0.27,0.03,-0.31,-0.06,0.16,0.13,
6.055,-0.27,0.03,-0.31,-0.06,0.16,0.13,
6.062,-0.27,0.03,-0.31,-0.09,0.18,0.18,
6.063,-0.27,0.03,-0.31,-0.09,0.18,0.18,
6.063,-0.23,0.02,-0.26,-0.09,0.18,0.18,
6.064,-0.23,0.02,-0.26,-0.09,0.18,0.18,
6.084,-0.23,0.02,-0.26,-0.12,0.20,0.20,
6.086,-0.23,0.02,-0.26,-0.12,0.20,0.20,
6.086,-0.15,0.03,-0.23,-0.12,0.20,0.20,
6.086,-0.15,0.03,-0.23,-0.12,0.20,0.20,
6.087,-0.15,0.03,-0.23,-0.12,0.20,0.20,
6.088,-0.15,0.03,-0.23,-0.12,0.20,0.20,
6.088,-0.15,0.03,-0.23,-0.12,0.20,0.20,
6.089,-0.15,0.03,-0.23,-0.12,0.20,0.20,
6.089,-0.15,0.03,-0.23,-0.12,0.20,0.20,
6.09,-0.15,0.03,-0.23,-0.12,0.20,0.20,
6.095,-0.15,0.03,-0.23,-0.08,0.13,0.07,
6.096,-0.15,0.03,-0.23,-0.08,0.13,0.07,
6.096,0.03,0.03,-0.17,-0.08,0.13,0.07,
6.097,0.03,0.03,-0.17,-0.08,0.13,0.07,
6.105,0.03,0.03,-0.17,-0.08,0.13,0.07,
6.105,0.03,0.03,-0.17,-0.08,0.13,0.07,
6.105,0.03,0.03,-0.17,-0.08,0.13,0.07,
6.106,0.03,0.03,-0.17,-0.08,0.13,0.07,
6.115,0.03,0.03,-0.17,-0.04,0.05,-0.05,
6.116,0.03,0.03,-0.17,-0.04,0.05,-0.05,
6.117,-0.00,0.01,-0.19,-0.04,0.05,-0.05,
6.117,-0.00,0.01,-0.19,-0.04,0.05,-0.05,
6.125,-0.00,0.01,-0.19,-0.04,0.03,-0.07,
6.126,-0.00,0.01,-0.19,-0.04,0.03,-0.07,
6.127,-0.07,0.02,-0.22,-0.04,0.03,-0.07,
6.128,-0.07,0.02,-0.22,-0.04,0.03,-0.07,
6.134,-0.07,0.02,-0.22,-0.03,0.02,-0.08,
6.135,-0.07,0.02,-0.22,-0.03,0.02,-0.08,
6.135,-0.14,0.04,-0.22,-0.03,0.02,-0.08,
6.135,-0.14,0.04,-0.22,-0.03,0.02,-0.08,
6.143,-0.14,0.04,-0.22,-0.03,0.02,-0.08,
6.144,-0.14,0.04,-0.22,-0.03,0.02,-0.08,
6.145,-0.14,0.04,-0.22,-0.03,0.02,-0.08,
6.145,-0.14,0.04,-0.22,-0.03,0.02,-0.08,
6.153,-0.14,0.04,-0.22,-0.04,0.03,-0.07,
6.154,-0.25,0.08,-0.16,-0.04,0.03,-0.07,
6.154,-0.25,0.08,-0.16,-0.04,0.03,-0.07,
6.154,-0.25,0.08,-0.16,-0.04,0.03,-0.07,
6.163,-0.25,0.08,-0.16,-0.04,0.05,-0.04,
6.163,-0.25,0.08,-0.16,-0.04,0.05,-0.04,
6.164,-0.27,0.08,-0.07,-0.04,0.05,-0.04,
6.164,-0.27,0.08,-0.07,-0.04,0.05,-0.04,
6.173,-0.27,0.08,-0.07,-0.04,0.07,-0.00,
6.174,-0.27,0.08,-0.07,-0.04,0.07,-0.00,
6.178,-0.25,0.11,-0.02,-0.04,0.07,-0.00,
6.179,-0.25,0.11,-0.02,-0.04,0.07,-0.00,
6.182,-0.25,0.11,-0.02,-0.01,0.10,0.05,
6.182,-0.25,0.11,-0.02,-0.01,0.10,0.05,
6.183,-0.19,0.12,0.01,-0.01,0.10,0.05,
6.183,-0.19,0.12,0.01,-0.01,0.10,0.05,
6.191,-0.19,0.12,0.01,0.02,0.13,0.08,
6.192,-0.19,0.12,0.01,0.02,0.13,0.08,
6.193,-0.12,0.12,0.00,0.02,0.13,0.08,
6.193,-0.12,0.12,0.00,0.02,0.13,0.08,
6.201,-0.12,0.12,0.00,0.06,0.14,0.10,
6.202,-0.12,0.12,0.00,0.06,0.14,0.10,
6.202,-0.06,0.13,-0.04,0.06,0.14,0.10,
6.203,-0.06,0.13,-0.04,0.06,0.14,0.10,
6.21,-0.06,0.13,-0.04,0.09,0.14,0.09,
6.211,-0.06,0.13,-0.04,0.09,0.14,0.09,
6.212,-0.01,0.11,-0.04,0.09,0.14,0.09,
6.213,-0.01,0.11,-0.04,0.09,0.14,0.09,
6.224,-0.01,0.11,-0.04,0.10,0.12,0.06,
6.225,-0.01,0.11,-0.04,0.10,0.12,0.06,
6.225,0.02,0.10,-0.06,0.10,0.12,0.06,
6.226,0.02,0.10,-0.06,0.10,0.12,0.06,
6.229,0.02,0.10,-0.06,0.10,0.09,0.02,
6.23,0.02,0.10,-0.06,0.10,0.09,0.02,
6.23,0.05,0.11,-0.07,0.10,0.09,0.02,
6.231,0.05,0.11,-0.07,0.10,0.09,0.02,
6.242,0.05,0.11,-0.07,0.08,0.05,-0.02,
6.243,0.05,0.11,-0.07,0.08,0.05,-0.02,
6.243,0.08,0.11,-0.07,0.08,0.05,-0.02,
6.244,0.08,0.11,-0.07,0.08,0.05,-0.02,
6.248,0.08,0.11,-0.07,0.05,0.00,-0.06,
6.249,0.08,0.11,-0.07,0.05,0.00,-0.06,
6.249,0.10,0.12,-0.07,0.05,0.00,-0.06,
6.249,0.10,0.12,-0.07,0.05,0.00,-0.06,
6.258,0.10,0.12,-0.07,0.03,-0.05,-0.09,
6.259,0.10,0.12,-0.07,0.03,-0.05,-0.09,
6.26,0.11,0.13,-0.05,0.03,-0.05,-0.09,
6.26,0.11,0.13,-0.05,0.03,-0.05,-0.09,
6.268,0.11,0.13,-0.05,0.01,-0.09,-0.12,
6.268,0.11,0.13,-0.05,0.01,-0.09,-0.12,
6.269,0.11,0.11,-0.04,0.01,-0.09,-0.12,
6.269,0.11,0.11,-0.04,0.01,-0.09,-0.12,
6.278,0.11,0.11,-0.04,-0.01,-0.10,-0.13,
6.279,0.11,0.11,-0.04,-0.01,-0.10,-0.13,
6.279,0.10,0.12,-0.02,-0.01,-0.10,-0.13,
6.28,0.10,0.12,-0.02,-0.01,-0.10,-0.13,
6.287,0.10,0.12,-0.02,-0.01,-0.10,-0.15,
6.288,0.10,0.12,-0.02,-0.01,-0.10,-0.15,
6.289,0.09,0.10,-0.04,-0.01,-0.10,-0.15,
6.289,0.09,0.10,-0.04,-0.01,-0.10,-0.15,
6.295,0.09,0.10,-0.04,-0.01,-0.07,-0.15,
6.296,0.09,0.10,-0.04,-0.01,-0.07,-0.15,
6.297,0.06,0.11,-0.06,-0.01,-0.07,-0.15,
6.297,0.06,0.11,-0.06,-0.01,-0.07,-0.15,
6.305,0.06,0.11,-0.06,-0.01,-0.05,-0.14,
6.305,0.06,0.11,-0.06,-0.01,-0.05,-0.14,
6.306,0.04,0.11,-0.11,-0.01,-0.05,-0.14,
6.306,0.04,0.11,-0.11,-0.01,-0.05,-0.14,
6.315,0.04,0.11,-0.11,-0.01,-0.02,-0.13,
6.316,0.04,0.11,-0.11,-0.01,-0.02,-0.13,
6.316,0.02,0.10,-0.16,-0.01,-0.02,-0.13,
6.317,0.02,0.10,-0.16,-0.01,-0.02,-0.13,
6.326,0.02,0.10,-0.16,-0.03,0.00,-0.11,
6.327,0.02,0.10,-0.16,-0.03,0.00,-0.11,
6.327,0.00,0.13,-0.13,-0.03,0.00,-0.11,
6.328,0.00,0.13,-0.13,-0.03,0.00,-0.11,
6.335,0.00,0.13,-0.13,-0.04,0.03,-0.08,
6.336,0.00,0.13,-0.13,-0.04,0.03,-0.08,
6.336,0.01,0.12,-0.09,-0.04,0.03,-0.08,
6.336,0.01,0.12,-0.09,-0.04,0.03,-0.08,
6.35,0.01,0.12,-0.09,-0.04,0.03,-0.08,
6.351,0.01,0.12,-0.09,-0.04,0.03,-0.08,
6.352,0.01,0.12,-0.09,-0.04,0.03,-0.08,
6.352,0.01,0.12,-0.09,-0.04,0.03,-0.08,
6.358,0.01,0.12,-0.09,-0.06,0.05,-0.05,
6.359,0.01,0.12,-0.09,-0.06,0.05,-0.05,
6.359,-0.03,0.13,0.06,-0.06,0.05,-0.05,
6.36,-0.03,0.13,0.06,-0.06,0.05,-0.05,
6.363,-0.03,0.13,0.06,-0.06,0.07,-0.02,
6.363,-0.03,0.13,0.06,-0.06,0.07,-0.02,
6.364,-0.06,0.12,0.04,-0.06,0.07,-0.02,
6.364,-0.06,0.12,0.04,-0.06,0.07,-0.02,
6.372,-0.06,0.12,0.04,-0.05,0.08,0.00,
6.373,-0.06,0.12,0.04,-0.05,0.08,0.00,
6.374,-0.13,0.12,-0.04,-0.05,0.08,0.00,
6.374,-0.13,0.12,-0.04,-0.05,0.08,0.00,
6.382,-0.13,0.12,-0.04,-0.02,0.08,0.03,
6.383,-0.13,0.12,-0.04,-0.02,0.08,0.03,
6.384,-0.16,0.10,-0.13,-0.02,0.08,0.03,
6.385,-0.16,0.10,-0.13,-0.02,0.08,0.03,
6.391,-0.16,0.10,-0.13,0.00,0.10,0.05,
6.392,-0.16,0.10,-0.13,0.00,0.10,0.05,
6.393,-0.16,0.09,-0.21,0.00,0.10,0.05,
6.393,-0.16,0.09,-0.21,0.00,0.10,0.05,
6.4,-0.16,0.09,-0.21,0.00,0.13,0.08,
6.401,-0.16,0.09,-0.21,0.00,0.13,0.08,
6.402,-0.12,0.07,-0.25,0.00,0.13,0.08,
6.402,-0.12,0.07,-0.25,0.00,0.13,0.08,
6.411,-0.12,0.07,-0.25,-0.02,0.16,0.10,
6.411,-0.12,0.07,-0.25,-0.02,0.16,0.10,
6.418,-0.02,0.06,-0.25,-0.02,0.16,0.10,
6.419,-0.02,0.06,-0.25,-0.02,0.16,0.10,
6.419,-0.02,0.06,-0.25,-0.06,0.18,0.11,
6.42,-0.02,0.06,-0.25,-0.06,0.18,0.11,
6.42,0.05,0.05,-0.23,-0.06,0.18,0.11,
6.421,0.05,0.05,-0.23,-0.06,0.18,0.11,
6.429,0.05,0.05,-0.23,-0.10,0.17,0.10,
6.43,0.05,0.05,-0.23,-0.10,0.17,0.10,
6.431,0.14,0.04,-0.24,-0.10,0.17,0.10,
6.431,0.14,0.04,-0.24,-0.10,0.17,0.10,
6.441,0.14,0.04,-0.24,-0.13,0.16,0.06,
6.442,0.14,0.04,-0.24,-0.13,0.16,0.06,
6.442,0.20,0.04,-0.25,-0.13,0.16,0.06,
6.443,0.20,0.04,-0.25,-0.13,0.16,0.06,
6.448,0.20,0.04,-0.25,-0.15,0.13,0.01,
6.449,0.20,0.04,-0.25,-0.15,0.13,0.01,
6.449,0.23,0.02,-0.29,-0.15,0.13,0.01,
6.449,0.23,0.02,-0.29,-0.15,0.13,0.01,
6.457,0.23,0.02,-0.29,-0.16,0.09,-0.05,
6.458,0.23,0.02,-0.29,-0.16,0.09,-0.05,
6.459,0.25,0.03,-0.31,-0.16,0.09,-0.05,
6.459,0.25,0.03,-0.31,-0.16,0.09,-0.05,
6.468,0.25,0.03,-0.31,-0.16,0.06,-0.11,
6.468,0.25,0.03,-0.31,-0.16,0.06,-0.11,
6.469,0.25,0.04,-0.30,-0.16,0.06,-0.11,
6.469,0.25,0.04,-0.30,-0.16,0.06,-0.11,
6.477,0.25,0.04,-0.30,-0.17,0.04,-0.15,
6.478,0.25,0.04,-0.30,-0.17,0.04,-0.15,
6.479,0.26,0.04,-0.29,-0.17,0.04,-0.15,
6.479,0.26,0.04,-0.29,-0.17,0.04,-0.15,
6.487,0.26,0.04,-0.29,-0.17,0.03,-0.19,
6.488,0.26,0.04,-0.29,-0.17,0.03,-0.19,
6.488,0.21,0.07,-0.30,-0.17,0.03,-0.19,
6.489,0.21,0.07,-0.30,-0.17,0.03,-0.19,
6.495,0.21,0.07,-0.30,-0.16,0.04,-0.21,
6.496,0.21,0.07,-0.30,-0.16,0.04,-0.21,
6.497,0.15,0.07,-0.31,-0.16,0.04,-0.21,
6.497,0.15,0.07,-0.31,-0.16,0.04,-0.21,
6.505,0.15,0.07,-0.31,-0.15,0.05,-0.21,
6.505,0.15,0.07,-0.31,-0.15,0.05,-0.21,
6.506,0.10,0.09,-0.28,-0.15,0.05,-0.21,
6.506,0.10,0.09,-0.28,-0.15,0.05,-0.21,
6.515,0.10,0.09,-0.28,-0.14,0.05,-0.19,
6.516,0.10,0.09,-0.28,-0.14,0.05,-0.19,
6.516,0.04,0.12,-0.26,-0.14,0.05,-0.19,
6.517,0.04,0.12,-0.26,-0.14,0.05,-0.19,
6.526,0.04,0.12,-0.26,-0.13,0.06,-0.15,
6.527,0.04,0.12,-0.26,-0.13,0.06,-0.15,
6.527,0.02,0.11,-0.23,-0.13,0.06,-0.15,
6.528,0.02,0.11,-0.23,-0.13,0.06,-0.15,
6.534,0.02,0.11,-0.23,-0.11,0.07,-0.11,
6.535,0.02,0.11,-0.23,-0.11,0.07,-0.11,
6.536,0.01,0.13,-0.20,-0.11,0.07,-0.11,
6.536,0.01,0.13,-0.20,-0.11,0.07,-0.11,
6.544,0.01,0.13,-0.20,-0.08,0.07,-0.06,
6.546,0.01,0.13,-0.20,-0.08,0.07,-0.06,
6.546,0.01,0.13,-0.18,-0.08,0.07,-0.06,
6.547,0.01,0.13,-0.18,-0.08,0.07,-0.06,
6.553,0.01,0.13,-0.18,-0.08,0.07,-0.06,
6.554,0.01,0.13,-0.18,-0.08,0.07,-0.06,
6.555,0.01,0.13,-0.18,-0.08,0.07,-0.06,
6.555,0.01,0.13,-0.18,-0.08,0.07,-0.06,
6.562,0.01,0.13,-0.18,-0.06,0.08,-0.01,
6.563,0.01,0.13,-0.18,-0.06,0.08,-0.01,
6.564,0.02,0.11,-0.12,-0.06,0.08,-0.01,
6.564,0.02,0.11,-0.12,-0.06,0.08,-0.01,
6.572,0.02,0.11,-0.12,-0.03,0.08,0.02,
6.574,0.02,0.11,-0.12,-0.03,0.08,0.02,
6.574,0.02,0.08,-0.09,-0.03,0.08,0.02,
6.575,0.02,0.08,-0.09,-0.03,0.08,0.02,
6.581,0.02,0.08,-0.09,0.00,0.08,0.04,
6.582,0.02,0.08,-0.09,0.00,0.08,0.04,
6.583,0.02,0.09,-0.06,0.00,0.08,0.04,
6.583,0.02,0.09,-0.06,0.00,0.08,0.04,
6.591,0.02,0.09,-0.06,0.03,0.07,0.05,
6.592,0.02,0.09,-0.06,0.03,0.07,0.05,
6.593,0.00,0.12,-0.04,0.03,0.07,0.05,
6.593,0.00,0.12,-0.04,0.03,0.07,0.05,
6.601,0.00,0.12,-0.04,0.06,0.06,0.05,
6.602,0.00,0.12,-0.04,0.06,0.06,0.05,
6.602,0.02,0.10,-0.02,0.06,0.06,0.05,
6.603,0.02,0.10,-0.02,0.06,0.06,0.05,
6.61,0.02,0.10,-0.02,0.09,0.05,0.05,
6.611,0.02,0.10,-0.02,0.09,0.05,0.05,
6.611,0.03,0.10,0.00,0.09,0.05,0.05,
6.612,0.03,0.10,0.00,0.09,0.05,0.05,
6.624,0.03,0.10,0.00,0.10,0.03,0.05,
6.625,0.03,0.10,0.00,0.10,0.03,0.05,
6.626,0.03,0.11,0.01,0.10,0.03,0.05,
6.626,0.03,0.11,0.01,0.10,0.03,0.05,
6.629,0.03,0.11,0.01,0.11,0.00,0.05,
6.63,0.03,0.11,0.01,0.11,0.00,0.05,
6.63,0.02,0.10,0.02,0.11,0.00,0.05,
6.631,0.02,0.10,0.02,0.11,0.00,0.05,
6.642,0.02,0.10,0.02,0.12,-0.02,0.04,
6.643,0.02,0.10,0.02,0.12,-0.02,0.04,
6.643,-0.00,0.15,0.02,0.12,-0.02,0.04,
6.643,-0.00,0.15,0.02,0.12,-0.02,0.04,
6.648,-0.00,0.15,0.02,0.12,-0.03,0.04,
6.649,-0.00,0.15,0.02,0.12,-0.03,0.04,
6.654,-0.02,0.20,0.03,0.12,-0.03,0.04,
6.655,-0.02,0.20,0.03,0.12,-0.03,0.04,
6.662,-0.02,0.20,0.03,0.12,-0.02,0.04,
6.663,-0.02,0.20,0.03,0.12,-0.02,0.04,
6.664,-0.03,0.22,0.03,0.12,-0.02,0.04,
6.664,-0.03,0.22,0.03,0.12,-0.02,0.04,
6.667,-0.03,0.22,0.03,0.12,-0.02,0.04,
6.668,-0.03,0.22,0.03,0.12,-0.02,0.04,
6.668,-0.03,0.23,0.06,0.12,-0.02,0.04,
6.668,-0.03,0.23,0.06,0.12,-0.02,0.04,
6.677,-0.03,0.23,0.06,0.12,-0.01,0.05,
6.677,-0.03,0.23,0.06,0.12,-0.01,0.05,
6.678,-0.04,0.20,0.09,0.12,-0.01,0.05,
6.678,-0.04,0.20,0.09,0.12,-0.01,0.05,
6.686,-0.04,0.20,0.09,0.11,-0.00,0.06,
6.687,-0.04,0.20,0.09,0.11,-0.00,0.06,
6.687,-0.05,0.16,0.11,0.11,-0.00,0.06,
6.688,-0.05,0.16,0.11,0.11,-0.00,0.06,
6.695,-0.05,0.16,0.11,0.11,0.01,0.06,
6.696,-0.05,0.16,0.11,0.11,0.01,0.06,
6.696,-0.06,0.10,0.13,0.11,0.01,0.06,
6.697,-0.06,0.10,0.13,0.11,0.01,0.06,
6.705,-0.06,0.10,0.13,0.11,0.01,0.07,
6.706,-0.06,0.10,0.13,0.11,0.01,0.07,
6.706,-0.09,0.05,0.11,0.11,0.01,0.07,
6.706,-0.09,0.05,0.11,0.11,0.01,0.07,
6.714,-0.09,0.05,0.11,0.11,0.02,0.07,
6.715,-0.09,0.05,0.11,0.11,0.02,0.07,
6.716,-0.10,0.04,0.07,0.11,0.02,0.07,
6.716,-0.10,0.04,0.07,0.11,0.02,0.07,
6.724,-0.10,0.04,0.07,0.10,0.03,0.07,
6.725,-0.10,0.04,0.07,0.10,0.03,0.07,
6.726,-0.10,0.07,0.04,0.10,0.03,0.07,
6.726,-0.10,0.07,0.04,0.10,0.03,0.07,
6.734,-0.10,0.07,0.04,0.09,0.04,0.07,
6.735,-0.10,0.07,0.04,0.09,0.04,0.07,
6.735,-0.08,0.10,0.01,0.09,0.04,0.07,
6.735,-0.08,0.10,0.01,0.09,0.04,0.07,
6.746,-0.08,0.10,0.01,0.09,0.04,0.07,
6.746,-0.08,0.10,0.01,0.09,0.04,0.07,
6.747,-0.08,0.10,0.01,0.09,0.04,0.07,
6.747,-0.08,0.10,0.01,0.09,0.04,0.07,
6.753,-0.08,0.10,0.01,0.06,0.04,0.07,
6.754,-0.08,0.10,0.01,0.06,0.04,0.07,
6.754,0.00,0.12,0.06,0.06,0.04,0.07,
6.755,0.00,0.12,0.06,0.06,0.04,0.07,
6.762,0.00,0.12,0.06,0.04,0.04,0.06,
6.763,0.00,0.12,0.06,0.04,0.04,0.06,
6.763,0.01,0.11,0.10,0.04,0.04,0.06,
6.764,0.01,0.11,0.10,0.04,0.04,0.06,
6.772,0.01,0.11,0.10,0.02,0.03,0.05,
6.773,0.01,0.11,0.10,0.02,0.03,0.05,
6.773,0.02,0.11,0.15,0.02,0.03,0.05,
6.774,0.02,0.11,0.15,0.02,0.03,0.05,
6.781,0.02,0.11,0.15,0.01,0.00,0.03,
6.782,0.02,0.11,0.15,0.01,0.00,0.03,
6.783,-0.03,0.13,0.16,0.01,0.00,0.03,
6.784,-0.03,0.13,0.16,0.01,0.00,0.03,
6.791,-0.03,0.13,0.16,0.01,-0.02,0.01,
6.793,-0.03,0.13,0.16,0.01,-0.02,0.01,
6.794,-0.03,0.13,0.16,0.01,-0.02,0.01,
6.795,-0.03,0.13,0.16,0.01,-0.02,0.01,
6.8,-0.03,0.13,0.16,0.03,-0.02,-0.01,
6.801,-0.03,0.13,0.16,0.03,-0.02,-0.01,
6.801,-0.03,0.13,0.16,0.03,-0.02,-0.01,
6.802,-0.03,0.13,0.16,0.03,-0.02,-0.01,
6.81,-0.03,0.13,0.16,0.04,-0.02,-0.01,
6.811,-0.03,0.13,0.16,0.04,-0.02,-0.01,
6.812,-0.03,0.13,0.16,0.04,-0.02,-0.01,
6.812,-0.03,0.13,0.16,0.04,-0.02,-0.01,
6.824,-0.03,0.13,0.16,0.06,-0.01,-0.01,
6.825,-0.03,0.13,0.16,0.06,-0.01,-0.01,
6.826,-0.02,0.13,0.15,0.06,-0.01,-0.01,
6.826,-0.02,0.13,0.15,0.06,-0.01,-0.01,
6.829,-0.02,0.13,0.15,0.06,-0.00,-0.01,
6.83,-0.02,0.13,0.15,0.06,-0.00,-0.01,
6.83,-0.02,0.13,0.15,0.06,-0.00,-0.01,
6.831,-0.02,0.13,0.15,0.06,-0.00,-0.01,
6.839,-0.02,0.13,0.15,0.06,0.00,-0.01,
6.84,-0.02,0.13,0.15,0.06,0.00,-0.01,
6.84,-0.02,0.13,0.14,0.06,0.00,-0.01,
6.84,-0.02,0.13,0.14,0.06,0.00,-0.01,
6.848,-0.02,0.13,0.14,0.05,0.00,-0.01,
6.849,-0.02,0.13,0.14,0.05,0.00,-0.01,
6.85,-0.02,0.13,0.14,0.05,0.00,-0.01,
6.85,-0.02,0.13,0.14,0.05,0.00,-0.01,
6.858,-0.02,0.13,0.14,0.04,0.00,-0.00,
6.859,-0.02,0.13,0.14,0.04,0.00,-0.00,
6.86,-0.02,0.13,0.13,0.04,0.00,-0.00,
6.861,-0.02,0.13,0.13,0.04,0.00,-0.00,
6.867,-0.02,0.13,0.13,0.03,0.00,-0.00,
6.868,-0.02,0.13,0.13,0.03,0.00,-0.00,
6.869,-0.01,0.13,0.13,0.03,0.00,-0.00,
6.869,-0.01,0.13,0.13,0.03,0.00,-0.00,
6.877,-0.01,0.13,0.13,0.03,0.00,-0.00,
6.879,-0.01,0.13,0.13,0.03,0.00,-0.00,
6.88,-0.01,0.12,0.12,0.03,0.00,-0.00,
6.88,-0.01,0.12,0.12,0.03,0.00,-0.00,
6.886,-0.01,0.12,0.12,0.02,0.00,-0.00,
6.888,-0.01,0.12,0.12,0.02,0.00,-0.00,
6.893,-0.01,0.12,0.12,0.02,0.00,-0.00,
6.895,-0.01,0.12,0.12,0.02,0.00,-0.00,
6.896,-0.01,0.12,0.12,0.02,0.00,-0.00,
6.897,-0.01,0.12,0.12,0.02,0.00,-0.00,
6.897,-0.01,0.12,0.11,0.02,0.00,-0.00,
6.898,-0.01,0.12,0.11,0.02,0.00,-0.00,
6.905,-0.01,0.12,0.11,0.01,0.00,-0.00,
6.906,-0.01,0.12,0.11,0.01,0.00,-0.00,
6.907,-0.01,0.12,0.10,0.01,0.00,-0.00,
6.907,-0.01,0.12,0.10,0.01,0.00,-0.00,
6.915,-0.01,0.12,0.10,0.01,0.00,-0.00,
6.916,-0.01,0.12,0.10,0.01,0.00,-0.00,
6.917,-0.01,0.12,0.09,0.01,0.00,-0.00,
6.918,-0.01,0.12,0.09,0.01,0.00,-0.00,
6.929,-0.01,0.12,0.09,0.01,0.00,-0.00,
6.931,-0.01,0.12,0.09,0.01,0.00,-0.00,
6.931,-0.01,0.12,0.09,0.01,0.00,-0.00,
6.931,-0.01,0.12,0.09,0.01,0.00,-0.00,
6.934,-0.01,0.12,0.09,0.01,0.00,-0.00,
6.935,-0.01,0.12,0.09,0.01,0.00,-0.00,
6.935,-0.00,0.12,0.08,0.01,0.00,-0.00,
6.936,-0.00,0.12,0.08,0.01,0.00,-0.00,
6.953,-0.00,0.12,0.08,0.01,0.00,-0.00,
6.954,-0.00,0.12,0.08,0.01,0.00,-0.00,
6.954,-0.00,0.11,0.07,0.01,0.00,-0.00,
6.954,-0.00,0.11,0.07,0.01,0.00,-0.00,
6.955,-0.00,0.11,0.07,0.01,0.00,-0.00,
6.955,-0.00,0.11,0.07,0.01,0.00,-0.00,
6.956,-0.00,0.11,0.07,0.01,0.00,-0.00,
6.956,-0.00,0.11,0.07,0.01,0.00,-0.00,
6.962,-0.00,0.11,0.07,0.01,0.00,-0.00,
6.962,-0.00,0.11,0.07,0.01,0.00,-0.00,
6.963,-0.00,0.11,0.06,0.01,0.00,-0.00,
6.963,-0.00,0.11,0.06,0.01,0.00,-0.00,
6.972,-0.00,0.11,0.06,0.00,0.00,-0.00,
6.973,-0.00,0.11,0.06,0.00,0.00,-0.00,
6.973,-0.00,0.11,0.06,0.00,0.00,-0.00,
6.974,-0.00,0.11,0.06,0.00,0.00,-0.00,
6.982,-0.00,0.11,0.06,0.00,0.00,-0.00,
6.983,-0.00,0.11,0.06,0.00,0.00,-0.00,
6.983,0.00,0.11,0.05,0.00,0.00,-0.00,
6.984,0.00,0.11,0.05,0.00,0.00,-0.00,
6.994,0.00,0.11,0.05,0.00,0.00,-0.00,
6.995,0.00,0.11,0.05,0.00,0.00,-0.00,
6.996,0.00,0.11,0.04,0.00,0.00,-0.00,
6.996,0.00,0.11,0.04,0.00,0.00,-0.00,
7.001,0.00,0.11,0.04,0.00,0.00,-0.00,
7.002,0.00,0.11,0.04,0.00,0.00,-0.00,
7.002,0.00,0.11,0.04,0.00,0.00,-0.00,
7.003,0.00,0.11,0.04,0.00,0.00,-0.00,
7.011,0.00,0.11,0.04,0.00,0.00,-0.00,
7.011,0.00,0.11,0.04,0.00,0.00,-0.00,
7.012,0.00,0.11,0.03,0.00,0.00,-0.00,
7.012,0.00,0.11,0.03,0.00,0.00,-0.00,
7.024,0.00,0.11,0.03,-0.00,-0.00,0.00,
7.025,0.00,0.11,0.03,-0.00,-0.00,0.00,
7.025,0.01,0.11,0.03,-0.00,-0.00,0.00,
7.026,0.01,0.11,0.03,-0.00,-0.00,0.00,
7.029,0.01,0.11,0.03,0.00,-0.00,-0.00,
7.03,0.01,0.11,0.03,0.00,-0.00,-0.00,
7.031,0.01,0.10,0.02,0.00,-0.00,-0.00,
7.031,0.01,0.10,0.02,0.00,-0.00,-0.00,
7.042,0.01,0.10,0.02,0.00,0.00,0.00,
7.043,0.01,0.10,0.02,0.00,0.00,0.00,
7.043,0.01,0.10,0.02,0.00,0.00,0.00,
7.043,0.01,0.10,0.02,0.00,0.00,0.00,
7.048,0.01,0.10,0.02,0.00,-0.00,-0.00,
7.049,0.01,0.10,0.02,0.00,-0.00,-0.00,
7.049,0.01,0.10,0.02,0.00,-0.00,-0.00,
7.05,0.01,0.10,0.02,0.00,-0.00,-0.00,
7.058,0.01,0.10,0.02,0.00,-0.00,0.00,
7.059,0.01,0.10,0.02,0.00,-0.00,0.00,
7.059,-0.23,0.30,0.29,0.00,-0.00,0.00,
7.06,-0.23,0.30,0.29,0.00,-0.00,0.00,
7.067,-0.23,0.30,0.29,0.00,0.00,-0.00,
7.068,-0.23,0.30,0.29,0.00,0.00,-0.00,
7.068,-0.33,0.23,0.34,0.00,0.00,-0.00,
7.069,-0.33,0.23,0.34,0.00,0.00,-0.00,
7.089,-0.33,0.23,0.34,0.00,0.00,-0.00,
7.09,-0.33,0.23,0.34,0.00,0.00,-0.00,
7.09,-0.39,0.17,0.31,0.00,0.00,-0.00,
7.091,-0.39,0.17,0.31,0.00,0.00,-0.00,
7.091,-0.39,0.17,0.31,0.00,-0.00,-0.00,
7.092,-0.39,0.17,0.31,0.00,-0.00,-0.00,
7.092,-0.39,0.17,0.31,0.00,-0.00,-0.00,
7.093,-0.38,0.15,0.25,0.00,-0.00,-0.00,
7.093,-0.38,0.15,0.25,0.00,-0.00,-0.00,
7.094,-0.38,0.15,0.25,0.00,-0.00,-0.00,
7.1,-0.38,0.15,0.25,-0.00,-0.00,-0.00,
7.101,-0.38,0.15,0.25,-0.00,-0.00,-0.00,
7.102,-0.28,0.17,0.14,-0.00,-0.00,-0.00,
7.102,-0.28,0.17,0.14,-0.00,-0.00,-0.00,
7.11,-0.28,0.17,0.14,0.00,0.00,0.00,
7.111,-0.28,0.17,0.14,0.00,0.00,0.00,
7.111,-0.20,0.20,0.09,0.00,0.00,0.00,
7.112,-0.20,0.20,0.09,0.00,0.00,0.00,
7.124,-0.20,0.20,0.09,-0.00,0.00,0.00,
7.125,-0.20,0.20,0.09,-0.00,0.00,0.00,
7.126,-0.16,0.21,0.10,-0.00,0.00,0.00,
7.127,-0.16,0.21,0.10,-0.00,0.00,0.00,
7.132,-0.16,0.21,0.10,0.00,0.00,-0.00,
7.133,-0.16,0.21,0.10,0.00,0.00,-0.00,
7.133,-0.20,0.24,0.14,0.00,0.00,-0.00,
7.133,-0.20,0.24,0.14,0.00,0.00,-0.00,
7.141,-0.20,0.24,0.14,0.00,0.00,-0.00,
7.142,-0.20,0.24,0.14,0.00,0.00,-0.00,
7.142,-0.29,0.29,0.22,0.00,0.00,-0.00,
7.143,-0.29,0.29,0.22,0.00,0.00,-0.00,
7.148,-0.29,0.29,0.22,0.00,-0.00,0.00,
7.149,-0.29,0.29,0.22,0.00,-0.00,0.00,
7.149,-0.41,0.37,0.29,0.00,-0.00,0.00,
7.15,-0.41,0.37,0.29,0.00,-0.00,0.00,
7.158,-0.41,0.37,0.29,0.00,0.00,-0.00,
7.159,-0.41,0.37,0.29,0.00,0.00,-0.00,
7.159,-0.56,0.46,0.34,0.00,0.00,-0.00,
7.16,-0.56,0.46,0.34,0.00,0.00,-0.00,
7.167,-0.56,0.46,0.34,0.09,-0.14,0.21,
