
time,ax,ay,az,wx,wy,wz,
0.001,0.38,0.13,1.52,-0.11,-0.02,0.03,
0.002,0.38,0.13,1.52,-0.11,-0.02,0.03,
0.002,0.42,0.10,1.47,-0.11,-0.02,0.03,
0.003,0.42,0.10,1.47,-0.11,-0.02,0.03,
0.006,0.42,0.10,1.47,-0.20,-0.08,-0.00,
0.007,0.42,0.10,1.47,-0.20,-0.08,-0.00,
0.008,0.38,0.05,1.11,-0.20,-0.08,-0.00,
0.008,0.38,0.05,1.11,-0.20,-0.08,-0.00,
0.014,0.38,0.05,1.11,-0.27,-0.15,-0.03,
0.015,0.38,0.05,1.11,-0.27,-0.15,-0.03,
0.015,0.27,0.02,0.61,-0.27,-0.15,-0.03,
0.016,0.27,0.02,0.61,-0.27,-0.15,-0.03,
0.024,0.27,0.02,0.61,-0.30,-0.21,-0.05,
0.025,0.27,0.02,0.61,-0.30,-0.21,-0.05,
0.025,0.15,0.00,0.17,-0.30,-0.21,-0.05,
0.026,0.15,0.00,0.17,-0.30,-0.21,-0.05,
0.034,0.15,0.00,0.17,-0.30,-0.23,-0.07,
0.035,0.15,0.00,0.17,-0.30,-0.23,-0.07,
0.035,0.04,-0.01,-0.10,-0.30,-0.23,-0.07,
0.035,0.04,-0.01,-0.10,-0.30,-0.23,-0.07,
0.046,0.04,-0.01,-0.10,-0.26,-0.21,-0.08,
0.046,0.04,-0.01,-0.10,-0.26,-0.21,-0.08,
0.047,-0.01,0.01,-0.18,-0.26,-0.21,-0.08,
0.047,-0.01,0.01,-0.18,-0.26,-0.21,-0.08,
0.053,-0.01,0.01,-0.18,-0.26,-0.21,-0.08,
0.053,-0.01,0.01,-0.18,-0.26,-0.21,-0.08,
0.054,-0.01,0.01,-0.18,-0.26,-0.21,-0.08,
0.054,-0.01,0.01,-0.18,-0.26,-0.21,-0.08,
0.062,-0.01,0.01,-0.18,-0.19,-0.15,-0.08,
0.063,-0.01,0.01,-0.18,-0.19,-0.15,-0.08,
0.063,0.03,0.03,0.08,-0.19,-0.15,-0.08,
0.064,0.03,0.03,0.08,-0.19,-0.15,-0.08,
0.072,0.03,0.03,0.08,-0.13,-0.09,-0.07,
0.072,0.03,0.03,0.08,-0.13,-0.09,-0.07,
0.073,0.10,0.05,0.28,-0.13,-0.09,-0.07,
0.073,0.10,0.05,0.28,-0.13,-0.09,-0.07,
0.082,0.10,0.05,0.28,-0.07,-0.03,-0.06,
0.082,0.10,0.05,0.28,-0.07,-0.03,-0.06,
0.083,0.17,0.06,0.45,-0.07,-0.03,-0.06,
0.083,0.17,0.06,0.45,-0.07,-0.03,-0.06,
0.091,0.17,0.06,0.45,-0.03,0.01,-0.05,
0.091,0.17,0.06,0.45,-0.03,0.01,-0.05,
0.092,0.20,0.04,0.57,-0.03,0.01,-0.05,
0.093,0.20,0.04,0.57,-0.03,0.01,-0.05,
0.101,0.20,0.04,0.57,-0.02,0.01,-0.06,
0.101,0.20,0.04,0.57,-0.02,0.01,-0.06,
0.102,0.20,-0.01,0.62,-0.02,0.01,-0.06,
0.102,0.20,-0.01,0.62,-0.02,0.01,-0.06,
0.11,0.20,-0.01,0.62,-0.02,-0.01,-0.08,
0.111,0.20,-0.01,0.62,-0.02,-0.01,-0.08,
0.111,0.17,-0.08,0.63,-0.02,-0.01,-0.08,
0.112,0.17,-0.08,0.63,-0.02,-0.01,-0.08,
0.119,0.17,-0.08,0.63,-0.04,-0.03,-0.10,
0.12,0.17,-0.08,0.63,-0.04,-0.03,-0.10,
0.12,0.11,-0.15,0.62,-0.04,-0.03,-0.10,
0.121,0.11,-0.15,0.62,-0.04,-0.03,-0.10,
0.131,0.11,-0.15,0.62,-0.07,-0.05,-0.13,
0.132,0.11,-0.15,0.62,-0.07,-0.05,-0.13,
0.132,0.05,-0.18,0.55,-0.07,-0.05,-0.13,
0.133,0.05,-0.18,0.55,-0.07,-0.05,-0.13,
0.138,0.05,-0.18,0.55,-0.11,-0.06,-0.15,
0.139,0.05,-0.18,0.55,-0.11,-0.06,-0.15,
0.14,-0.01,-0.18,0.46,-0.11,-0.06,-0.15,
0.14,-0.01,-0.18,0.46,-0.11,-0.06,-0.15,
0.148,-0.01,-0.18,0.46,-0.15,-0.05,-0.16,
0.148,-0.01,-0.18,0.46,-0.15,-0.05,-0.16,
0.149,-0.06,-0.16,0.35,-0.15,-0.05,-0.16,
0.149,-0.06,-0.16,0.35,-0.15,-0.05,-0.16,
0.157,-0.06,-0.16,0.35,-0.17,-0.02,-0.16,
0.158,-0.06,-0.16,0.35,-0.17,-0.02,-0.16,
0.159,-0.10,-0.15,0.27,-0.17,-0.02,-0.16,
0.159,-0.10,-0.15,0.27,-0.17,-0.02,-0.16,
0.167,-0.10,-0.15,0.27,-0.17,0.02,-0.15,
0.168,-0.10,-0.15,0.27,-0.17,0.02,-0.15,
0.169,-0.09,-0.15,0.22,-0.17,0.02,-0.15,
0.169,-0.09,-0.15,0.22,-0.17,0.02,-0.15,
0.177,-0.09,-0.15,0.22,-0.16,0.06,-0.12,
0.179,-0.09,-0.15,0.22,-0.16,0.06,-0.12,
0.179,-0.04,-0.13,0.17,-0.16,0.06,-0.12,
0.18,-0.04,-0.13,0.17,-0.16,0.06,-0.12,
0.187,-0.04,-0.13,0.17,-0.14,0.10,-0.09,
0.188,-0.04,-0.13,0.17,-0.14,0.10,-0.09,
0.188,0.01,-0.12,0.15,-0.14,0.10,-0.09,
0.189,0.01,-0.12,0.15,-0.14,0.10,-0.09,
0.196,0.01,-0.12,0.15,-0.11,0.11,-0.06,
0.197,0.01,-0.12,0.15,-0.11,0.11,-0.06,
0.198,0.04,-0.11,0.05,-0.11,0.11,-0.06,
0.199,0.04,-0.11,0.05,-0.11,0.11,-0.06,
0.205,0.04,-0.11,0.05,-0.08,0.11,-0.04,
0.205,0.04,-0.11,0.05,-0.08,0.11,-0.04,
0.206,0.04,-0.10,-0.06,-0.08,0.11,-0.04,
0.206,0.04,-0.10,-0.06,-0.08,0.11,-0.04,
0.214,0.04,-0.10,-0.06,-0.05,0.09,-0.02,
0.215,0.04,-0.10,-0.06,-0.05,0.09,-0.02,
0.216,0.03,-0.10,-0.17,-0.05,0.09,-0.02,
0.217,0.03,-0.10,-0.17,-0.05,0.09,-0.02,
0.231,0.03,-0.10,-0.17,-0.01,0.06,-0.01,
0.232,0.03,-0.10,-0.17,-0.01,0.06,-0.01,
0.232,-0.01,-0.08,-0.28,-0.01,0.06,-0.01,
0.233,-0.01,-0.08,-0.28,-0.01,0.06,-0.01,
0.24,-0.01,-0.08,-0.28,0.02,0.04,-0.00,
0.24,-0.01,-0.08,-0.28,0.02,0.04,-0.00,
0.241,-0.01,-0.04,-0.31,0.02,0.04,-0.00,
0.241,-0.01,-0.04,-0.31,0.02,0.04,-0.00,
0.248,-0.01,-0.04,-0.31,0.05,0.02,0.00,
0.249,-0.01,-0.04,-0.31,0.05,0.02,0.00,
0.249,-0.02,0.00,-0.27,0.05,0.02,0.00,
0.25,-0.02,0.00,-0.27,0.05,0.02,0.00,
0.255,-0.02,0.00,-0.27,0.05,0.02,0.00,
0.256,-0.02,0.00,-0.27,0.05,0.02,0.00,
0.256,-0.02,0.00,-0.27,0.05,0.02,0.00,
0.257,-0.02,0.00,-0.27,0.05,0.02,0.00,
0.262,-0.02,0.00,-0.27,0.09,0.02,0.02,
0.263,-0.02,0.00,-0.27,0.09,0.02,0.02,
0.264,0.04,0.07,-0.10,0.09,0.02,0.02,
0.264,0.04,0.07,-0.10,0.09,0.02,0.02,
0.271,0.04,0.07,-0.10,0.12,0.02,0.04,
0.272,0.04,0.07,-0.10,0.12,0.02,0.04,
0.273,0.09,0.13,-0.03,0.12,0.02,0.04,
0.273,0.09,0.13,-0.03,0.12,0.02,0.04,
0.281,0.09,0.13,-0.03,0.15,0.02,0.06,
0.282,0.09,0.13,-0.03,0.15,0.02,0.06,
0.283,0.19,0.16,0.02,0.15,0.02,0.06,
0.283,0.19,0.16,0.02,0.15,0.02,0.06,
0.294,0.19,0.16,0.02,0.19,-0.03,0.08,
0.295,0.19,0.16,0.02,0.19,-0.03,0.08,
0.296,0.27,0.19,0.08,0.19,-0.03,0.08,
0.296,0.27,0.19,0.08,0.19,-0.03,0.08,
0.313,0.27,0.19,0.08,0.19,-0.03,0.08,
0.313,0.27,0.19,0.08,0.19,-0.03,0.08,
0.314,0.27,0.19,0.08,0.19,-0.03,0.08,
0.315,0.27,0.19,0.08,0.19,-0.03,0.08,
0.315,0.27,0.19,0.08,0.21,-0.15,0.05,
0.316,0.27,0.19,0.08,0.21,-0.15,0.05,
0.316,0.27,0.19,0.08,0.21,-0.15,0.05,
0.317,0.52,0.27,0.27,0.21,-0.15,0.05,
0.317,0.52,0.27,0.27,0.21,-0.15,0.05,
0.318,0.52,0.27,0.27,0.21,-0.15,0.05,
0.33,0.52,0.27,0.27,0.21,-0.39,-0.08,
0.331,0.52,0.27,0.27,0.21,-0.39,-0.08,
0.331,0.71,0.46,0.47,0.21,-0.39,-0.08,
0.332,0.71,0.46,0.47,0.21,-0.39,-0.08,
0.334,0.71,0.46,0.47,0.21,-0.39,-0.08,
0.335,0.71,0.46,0.47,0.21,-0.39,-0.08,
0.335,0.71,0.46,0.47,0.21,-0.39,-0.08,
0.335,0.71,0.46,0.47,0.21,-0.39,-0.08,
0.345,0.71,0.46,0.47,0.25,-0.66,-0.23,
0.346,0.71,0.46,0.47,0.25,-0.66,-0.23,
0.346,1.17,0.88,0.26,0.25,-0.66,-0.23,
0.347,1.17,0.88,0.26,0.25,-0.66,-0.23,
0.354,1.17,0.88,0.26,0.25,-0.66,-0.23,
0.354,1.17,0.88,0.26,0.25,-0.66,-0.23,
0.354,1.17,0.88,0.26,0.25,-0.66,-0.23,
0.355,1.17,0.88,0.26,0.25,-0.66,-0.23,
0.362,1.17,0.88,0.26,0.31,-0.78,-0.29,
0.363,1.17,0.88,0.26,0.31,-0.78,-0.29,
0.363,1.40,1.14,-0.65,0.31,-0.78,-0.29,
0.364,1.40,1.14,-0.65,0.31,-0.78,-0.29,
0.372,1.40,1.14,-0.65,0.40,-0.88,-0.35,
0.373,1.40,1.14,-0.65,0.40,-0.88,-0.35,
0.373,1.24,1.08,-1.12,0.40,-0.88,-0.35,
0.373,1.24,1.08,-1.12,0.40,-0.88,-0.35,
0.381,1.24,1.08,-1.12,0.52,-0.99,-0.42,
0.382,1.24,1.08,-1.12,0.52,-0.99,-0.42,
0.382,0.89,0.82,-1.39,0.52,-0.99,-0.42,
0.383,0.89,0.82,-1.39,0.52,-0.99,-0.42,
0.391,0.89,0.82,-1.39,0.65,-1.06,-0.48,
0.392,0.89,0.82,-1.39,0.65,-1.06,-0.48,
0.393,0.49,0.38,-1.39,0.65,-1.06,-0.48,
0.393,0.49,0.38,-1.39,0.65,-1.06,-0.48,
0.401,0.49,0.38,-1.39,0.75,-1.06,-0.53,
0.402,0.49,0.38,-1.39,0.75,-1.06,-0.53,
0.402,0.24,-0.05,-1.20,0.75,-1.06,-0.53,
0.403,0.24,-0.05,-1.20,0.75,-1.06,-0.53,
0.41,0.24,-0.05,-1.20,0.76,-0.96,-0.55,
0.411,0.24,-0.05,-1.20,0.76,-0.96,-0.55,
0.413,0.22,-0.51,-0.97,0.76,-0.96,-0.55,
0.414,0.22,-0.51,-0.97,0.76,-0.96,-0.55,
0.43,0.22,-0.51,-0.97,0.61,-0.75,-0.56,
0.431,0.22,-0.51,-0.97,0.61,-0.75,-0.56,
0.431,0.40,-0.93,-0.78,0.61,-0.75,-0.56,
0.432,0.40,-0.93,-0.78,0.61,-0.75,-0.56,
0.432,0.40,-0.93,-0.78,0.33,-0.52,-0.57,
0.433,0.40,-0.93,-0.78,0.33,-0.52,-0.57,
0.433,0.68,-1.28,-0.73,0.33,-0.52,-0.57,
0.434,0.68,-1.28,-0.73,0.33,-0.52,-0.57,
0.44,0.68,-1.28,-0.73,-0.06,-0.35,-0.63,
0.441,0.68,-1.28,-0.73,-0.06,-0.35,-0.63,
0.442,1.03,-1.58,-0.84,-0.06,-0.35,-0.63,
0.443,1.03,-1.58,-0.84,-0.06,-0.35,-0.63,
0.448,1.03,-1.58,-0.84,-0.50,-0.31,-0.72,
0.449,1.03,-1.58,-0.84,-0.50,-0.31,-0.72,
0.45,1.34,-1.81,-1.12,-0.50,-0.31,-0.72,
0.45,1.34,-1.81,-1.12,-0.50,-0.31,-0.72,
0.458,1.34,-1.81,-1.12,-0.92,-0.39,-0.83,
0.459,1.34,-1.81,-1.12,-0.92,-0.39,-0.83,
0.46,1.63,-1.97,-1.59,-0.92,-0.39,-0.83,
0.461,1.63,-1.97,-1.59,-0.92,-0.39,-0.83,
0.467,1.63,-1.97,-1.59,-1.28,-0.58,-0.94,
0.468,1.63,-1.97,-1.59,-1.28,-0.58,-0.94,
0.474,1.95,-2.09,-2.19,-1.28,-0.58,-0.94,
0.474,1.95,-2.09,-2.19,-1.28,-0.58,-0.94,
0.477,1.95,-2.09,-2.19,-1.56,-0.84,-1.03,
0.478,1.95,-2.09,-2.19,-1.56,-0.84,-1.03,
0.479,2.26,-2.23,-2.75,-1.56,-0.84,-1.03,
0.479,2.26,-2.23,-2.75,-1.56,-0.84,-1.03,
0.487,2.26,-2.23,-2.75,-1.75,-1.15,-1.11,
0.488,2.26,-2.23,-2.75,-1.75,-1.15,-1.11,
0.488,2.57,-2.36,-3.09,-1.75,-1.15,-1.11,
0.489,2.57,-2.36,-3.09,-1.75,-1.15,-1.11,
0.496,2.57,-2.36,-3.09,-1.87,-1.50,-1.19,
0.496,2.57,-2.36,-3.09,-1.87,-1.50,-1.19,
0.497,2.89,-2.45,-3.04,-1.87,-1.50,-1.19,
0.498,2.89,-2.45,-3.04,-1.87,-1.50,-1.19,
0.505,2.89,-2.45,-3.04,-1.95,-1.88,-1.26,
0.506,2.89,-2.45,-3.04,-1.95,-1.88,-1.26,
0.506,3.14,-2.48,-1.44,-1.95,-1.88,-1.26,
0.506,3.14,-2.48,-1.44,-1.95,-1.88,-1.26,
0.515,3.14,-2.48,-1.44,-1.85,-2.25,-1.25,
0.515,3.14,-2.48,-1.44,-1.85,-2.25,-1.25,
0.516,3.30,-2.36,-0.91,-1.85,-2.25,-1.25,
0.517,3.30,-2.36,-0.91,-1.85,-2.25,-1.25,
0.526,3.30,-2.36,-0.91,-1.70,-2.52,-1.17,
0.527,3.30,-2.36,-0.91,-1.70,-2.52,-1.17,
0.527,3.49,-2.10,0.66,-1.70,-2.52,-1.17,
0.528,3.49,-2.10,0.66,-1.70,-2.52,-1.17,
0.535,3.49,-2.10,0.66,-1.64,-2.63,-1.07,
0.536,3.49,-2.10,0.66,-1.64,-2.63,-1.07,
0.536,3.70,-1.75,0.73,-1.64,-2.63,-1.07,
0.536,3.70,-1.75,0.73,-1.64,-2.63,-1.07,
0.543,3.70,-1.75,0.73,-1.64,-2.63,-1.07,
0.545,3.70,-1.75,0.73,-1.64,-2.63,-1.07,
0.545,3.70,-1.75,0.73,-1.64,-2.63,-1.07,
0.545,3.70,-1.75,0.73,-1.64,-2.63,-1.07,
0.554,3.70,-1.75,0.73,-1.52,-2.55,-0.86,
0.555,3.70,-1.75,0.73,-1.52,-2.55,-0.86,
0.555,4.33,-1.38,-1.34,-1.52,-2.55,-0.86,
0.555,4.33,-1.38,-1.34,-1.52,-2.55,-0.86,
0.562,4.33,-1.38,-1.34,-1.34,-2.40,-0.66,
0.563,4.33,-1.38,-1.34,-1.34,-2.40,-0.66,
0.563,4.54,-1.72,-1.86,-1.34,-2.40,-0.66,
0.564,4.54,-1.72,-1.86,-1.34,-2.40,-0.66,
0.572,4.54,-1.72,-1.86,-1.10,-2.34,-0.55,
0.573,4.54,-1.72,-1.86,-1.10,-2.34,-0.55,
0.574,4.49,-3.54,-2.32,-1.10,-2.34,-0.55,
0.574,4.49,-3.54,-2.32,-1.10,-2.34,-0.55,
0.582,4.49,-3.54,-2.32,-0.93,-2.44,-0.55,
0.583,4.49,-3.54,-2.32,-0.93,-2.44,-0.55,
0.583,4.29,-3.84,-2.67,-0.93,-2.44,-0.55,
0.584,4.29,-3.84,-2.67,-0.93,-2.44,-0.55,
0.592,4.29,-3.84,-2.67,-0.99,-2.64,-0.57,
0.593,4.29,-3.84,-2.67,-0.99,-2.64,-0.57,
0.593,4.21,-4.16,-2.97,-0.99,-2.64,-0.57,
0.594,4.21,-4.16,-2.97,-0.99,-2.64,-0.57,
0.601,4.21,-4.16,-2.97,-1.27,-2.80,-0.50,
0.602,4.21,-4.16,-2.97,-1.27,-2.80,-0.50,
0.603,4.38,-4.14,-3.48,-1.27,-2.80,-0.50,
0.603,4.38,-4.14,-3.48,-1.27,-2.80,-0.50,
0.61,4.38,-4.14,-3.48,-1.66,-2.88,-0.30,
0.611,4.38,-4.14,-3.48,-1.66,-2.88,-0.30,
0.612,4.84,-3.69,-5.22,-1.66,-2.88,-0.30,
0.613,4.84,-3.69,-5.22,-1.66,-2.88,-0.30,
0.624,4.84,-3.69,-5.22,-1.42,-2.96,-0.06,
0.625,4.84,-3.69,-5.22,-1.42,-2.96,-0.06,
0.625,6.12,-2.15,-5.50,-1.42,-2.96,-0.06,
0.626,6.12,-2.15,-5.50,-1.42,-2.96,-0.06,
0.629,6.12,-2.15,-5.50,-1.10,-3.17,0.08,
0.63,6.12,-2.15,-5.50,-1.10,-3.17,0.08,
0.631,5.67,-1.84,-5.77,-1.10,-3.17,0.08,
0.631,5.67,-1.84,-5.77,-1.10,-3.17,0.08,
0.638,5.67,-1.84,-5.77,-1.16,-3.61,0.04,
0.639,5.67,-1.84,-5.77,-1.16,-3.61,0.04,
0.639,4.95,-1.75,-5.72,-1.16,-3.61,0.04,
0.64,4.95,-1.75,-5.72,-1.16,-3.61,0.04,
0.649,4.95,-1.75,-5.72,-0.95,-4.13,-0.16,
0.649,4.95,-1.75,-5.72,-0.95,-4.13,-0.16,
0.65,4.34,-2.05,-5.25,-0.95,-4.13,-0.16,
0.651,4.34,-2.05,-5.25,-0.95,-4.13,-0.16,
0.658,4.34,-2.05,-5.25,-0.55,-4.49,-0.36,
0.659,4.34,-2.05,-5.25,-0.55,-4.49,-0.36,
0.659,4.19,-2.63,-3.50,-0.55,-4.49,-0.36,
0.66,4.19,-2.63,-3.50,-0.55,-4.49,-0.36,
0.667,4.19,-2.63,-3.50,-0.09,-4.46,-0.35,
0.668,4.19,-2.63,-3.50,-0.09,-4.46,-0.35,
0.669,5.79,-4.08,-3.14,-0.09,-4.46,-0.35,
0.669,5.79,-4.08,-3.14,-0.09,-4.46,-0.35,
0.678,5.79,-4.08,-3.14,0.31,-4.03,-0.00,
0.679,5.79,-4.08,-3.14,0.31,-4.03,-0.00,
0.68,5.82,-4.46,-3.08,0.31,-4.03,-0.00,
0.68,5.82,-4.46,-3.08,0.31,-4.03,-0.00,
0.687,5.82,-4.46,-3.08,0.49,-3.43,0.60,
0.688,5.82,-4.46,-3.08,0.49,-3.43,0.60,
0.688,5.49,-5.00,-3.27,0.49,-3.43,0.60,
0.688,5.49,-5.00,-3.27,0.49,-3.43,0.60,
0.696,5.49,-5.00,-3.27,0.40,-2.90,1.29,
0.697,5.49,-5.00,-3.27,0.40,-2.90,1.29,
0.697,3.30,-6.44,-3.52,0.40,-2.90,1.29,
0.698,3.30,-6.44,-3.52,0.40,-2.90,1.29,
0.705,3.30,-6.44,-3.52,0.12,-2.48,1.96,
0.706,3.30,-6.44,-3.52,0.12,-2.48,1.96,
0.711,2.67,-6.72,-3.42,0.12,-2.48,1.96,
0.712,2.67,-6.72,-3.42,0.12,-2.48,1.96,
0.715,2.67,-6.72,-3.42,-0.24,-2.06,2.64,
0.716,2.67,-6.72,-3.42,-0.24,-2.06,2.64,
0.716,2.04,-6.97,-2.83,-0.24,-2.06,2.64,
0.717,2.04,-6.97,-2.83,-0.24,-2.06,2.64,
0.725,2.04,-6.97,-2.83,-0.60,-1.53,3.36,
0.726,2.04,-6.97,-2.83,-0.60,-1.53,3.36,
0.727,1.84,-7.09,-1.21,-0.60,-1.53,3.36,
0.728,1.84,-7.09,-1.21,-0.60,-1.53,3.36,
0.736,1.84,-7.09,-1.21,-0.87,-0.92,4.05,
0.736,1.84,-7.09,-1.21,-0.87,-0.92,4.05,
0.737,2.07,-7.17,-1.02,-0.87,-0.92,4.05,
0.737,2.07,-7.17,-1.02,-0.87,-0.92,4.05,
0.745,2.07,-7.17,-1.02,-0.98,-0.29,4.60,
0.746,2.07,-7.17,-1.02,-0.98,-0.29,4.60,
0.747,2.44,-7.29,-0.96,-0.98,-0.29,4.60,
0.747,2.44,-7.29,-0.96,-0.98,-0.29,4.60,
0.754,2.44,-7.29,-0.96,-0.98,-0.29,4.60,
0.755,2.44,-7.29,-0.96,-0.98,-0.29,4.60,
0.755,2.44,-7.29,-0.96,-0.98,-0.29,4.60,
0.755,2.44,-7.29,-0.96,-0.98,-0.29,4.60,
0.762,2.44,-7.29,-0.96,-0.91,0.22,4.90,
0.763,2.44,-7.29,-0.96,-0.91,0.22,4.90,
0.763,3.46,-7.65,-1.17,-0.91,0.22,4.90,
0.764,3.46,-7.65,-1.17,-0.91,0.22,4.90,
0.773,3.46,-7.65,-1.17,-0.75,0.47,4.97,
0.774,3.46,-7.65,-1.17,-0.75,0.47,4.97,
0.774,4.99,-7.61,-1.21,-0.75,0.47,4.97,
0.774,4.99,-7.61,-1.21,-0.75,0.47,4.97,
0.782,4.99,-7.61,-1.21,-0.58,0.35,4.85,
0.783,4.99,-7.61,-1.21,-0.58,0.35,4.85,
0.783,5.21,-7.38,-1.12,-0.58,0.35,4.85,
0.784,5.21,-7.38,-1.12,-0.58,0.35,4.85,
0.792,5.21,-7.38,-1.12,-0.41,-0.13,4.57,
0.794,5.21,-7.38,-1.12,-0.41,-0.13,4.57,
0.795,6.60,-6.90,-0.87,-0.41,-0.13,4.57,
0.796,6.60,-6.90,-0.87,-0.41,-0.13,4.57,
0.8,6.60,-6.90,-0.87,-0.20,-0.80,4.17,
0.801,6.60,-6.90,-0.87,-0.20,-0.80,4.17,
0.802,6.89,-6.30,-0.63,-0.20,-0.80,4.17,
0.802,6.89,-6.30,-0.63,-0.20,-0.80,4.17,
0.811,6.89,-6.30,-0.63,0.10,-1.51,3.71,
0.812,6.89,-6.30,-0.63,0.10,-1.51,3.71,
0.813,7.24,-5.74,-0.53,0.10,-1.51,3.71,
0.814,7.24,-5.74,-0.53,0.10,-1.51,3.71,
0.823,7.24,-5.74,-0.53,0.50,-2.15,3.23,
0.824,7.24,-5.74,-0.53,0.50,-2.15,3.23,
0.824,7.52,-5.28,-0.64,0.50,-2.15,3.23,
0.825,7.52,-5.28,-0.64,0.50,-2.15,3.23,
0.829,7.52,-5.28,-0.64,0.96,-2.66,2.76,
0.83,7.52,-5.28,-0.64,0.96,-2.66,2.76,
0.83,7.59,-5.05,-1.14,0.96,-2.66,2.76,
0.831,7.59,-5.05,-1.14,0.96,-2.66,2.76,
0.838,7.59,-5.05,-1.14,1.44,-3.04,2.38,
0.839,7.59,-5.05,-1.14,1.44,-3.04,2.38,
0.84,7.48,-4.96,-2.66,1.44,-3.04,2.38,
0.841,7.48,-4.96,-2.66,1.44,-3.04,2.38,
0.848,7.48,-4.96,-2.66,1.88,-3.37,2.11,
0.849,7.48,-4.96,-2.66,1.88,-3.37,2.11,
0.849,7.19,-4.87,-4.30,1.88,-3.37,2.11,
0.85,7.19,-4.87,-4.30,1.88,-3.37,2.11,
0.857,7.19,-4.87,-4.30,2.20,-3.71,1.96,
0.859,7.19,-4.87,-4.30,2.20,-3.71,1.96,
0.859,6.80,-4.74,-4.61,2.20,-3.71,1.96,
0.859,6.80,-4.74,-4.61,2.20,-3.71,1.96,
0.868,6.80,-4.74,-4.61,2.38,-4.09,1.91,
0.869,6.80,-4.74,-4.61,2.38,-4.09,1.91,
0.869,6.49,-4.47,-6.00,2.38,-4.09,1.91,
0.869,6.49,-4.47,-6.00,2.38,-4.09,1.91,
0.878,6.49,-4.47,-6.00,2.44,-4.52,1.92,
0.879,6.49,-4.47,-6.00,2.44,-4.52,1.92,
0.88,6.46,-4.05,-6.41,2.44,-4.52,1.92,
0.88,6.46,-4.05,-6.41,2.44,-4.52,1.92,
0.887,6.46,-4.05,-6.41,2.45,-4.95,1.95,
0.887,6.46,-4.05,-6.41,2.45,-4.95,1.95,
0.888,6.85,-3.53,-7.74,2.45,-4.95,1.95,
0.888,6.85,-3.53,-7.74,2.45,-4.95,1.95,
0.896,6.85,-3.53,-7.74,2.44,-5.38,1.95,
0.897,6.85,-3.53,-7.74,2.44,-5.38,1.95,
0.897,8.55,-2.99,-7.99,2.44,-5.38,1.95,
0.898,8.55,-2.99,-7.99,2.44,-5.38,1.95,
0.905,8.55,-2.99,-7.99,2.43,-5.82,1.84,
0.905,8.55,-2.99,-7.99,2.43,-5.82,1.84,
0.906,10.00,-2.56,-8.32,2.43,-5.82,1.84,
0.906,10.00,-2.56,-8.32,2.43,-5.82,1.84,
0.914,10.00,-2.56,-8.32,2.45,-6.26,1.58,
0.915,10.00,-2.56,-8.32,2.45,-6.26,1.58,
0.916,10.04,-2.40,-8.62,2.45,-6.26,1.58,
0.917,10.04,-2.40,-8.62,2.45,-6.26,1.58,
0.926,10.04,-2.40,-8.62,2.51,-6.65,1.17,
0.927,10.04,-2.40,-8.62,2.51,-6.65,1.17,
0.928,9.81,-2.44,-8.82,2.51,-6.65,1.17,
0.928,9.81,-2.44,-8.82,2.51,-6.65,1.17,
0.937,9.81,-2.44,-8.82,2.62,-6.89,0.73,
0.938,9.81,-2.44,-8.82,2.62,-6.89,0.73,
0.939,8.09,-2.56,-8.92,2.62,-6.89,0.73,
0.939,8.09,-2.56,-8.92,2.62,-6.89,0.73,
0.944,8.09,-2.56,-8.92,2.77,-6.92,0.37,
0.944,8.09,-2.56,-8.92,2.77,-6.92,0.37,
0.95,7.42,-2.71,-8.96,2.77,-6.92,0.37,
0.95,7.42,-2.71,-8.96,2.77,-6.92,0.37,
0.953,7.42,-2.71,-8.96,2.77,-6.92,0.37,
0.954,7.42,-2.71,-8.96,2.77,-6.92,0.37,
0.955,7.42,-2.71,-8.96,2.77,-6.92,0.37,
0.955,7.42,-2.71,-8.96,2.77,-6.92,0.37,
0.963,7.42,-2.71,-8.96,2.87,-6.77,0.17,
0.963,7.42,-2.71,-8.96,2.87,-6.77,0.17,
0.964,5.19,-2.91,-9.20,2.87,-6.77,0.17,
0.964,5.19,-2.91,-9.20,2.87,-6.77,0.17,
0.973,5.19,-2.91,-9.20,2.89,-6.49,0.14,
0.974,5.19,-2.91,-9.20,2.89,-6.49,0.14,
0.974,4.88,-2.93,-9.28,2.89,-6.49,0.14,
0.974,4.88,-2.93,-9.28,2.89,-6.49,0.14,
0.982,4.88,-2.93,-9.28,2.79,-6.14,0.25,
0.982,4.88,-2.93,-9.28,2.79,-6.14,0.25,
0.983,4.81,-2.93,-9.41,2.79,-6.14,0.25,
0.984,4.81,-2.93,-9.41,2.79,-6.14,0.25,
0.991,4.81,-2.93,-9.41,2.61,-5.78,0.44,
0.994,4.81,-2.93,-9.41,2.61,-5.78,0.44,
0.995,4.82,-2.92,-9.53,2.61,-5.78,0.44,
0.995,4.82,-2.92,-9.53,2.61,-5.78,0.44,
1.0,4.82,-2.92,-9.53,2.39,-5.44,0.65,
1.001,4.82,-2.92,-9.53,2.39,-5.44,0.65,
1.001,4.81,-2.90,-9.51,2.39,-5.44,0.65,
1.002,4.81,-2.90,-9.51,2.39,-5.44,0.65,
1.01,4.81,-2.90,-9.51,2.18,-5.14,0.80,
1.011,4.81,-2.90,-9.51,2.18,-5.14,0.80,
1.011,4.74,-2.69,-9.60,2.18,-5.14,0.80,
1.012,4.74,-2.69,-9.60,2.18,-5.14,0.80,
1.024,4.74,-2.69,-9.60,2.01,-4.87,0.87,
1.025,4.74,-2.69,-9.60,2.01,-4.87,0.87,
1.026,4.50,-2.34,-11.06,2.01,-4.87,0.87,
1.027,4.50,-2.34,-11.06,2.01,-4.87,0.87,
1.03,4.50,-2.34,-11.06,1.86,-4.64,0.88,
1.03,4.50,-2.34,-11.06,1.86,-4.64,0.88,
1.031,4.11,-1.91,-12.54,1.86,-4.64,0.88,
1.031,4.11,-1.91,-12.54,1.86,-4.64,0.88,
1.038,4.11,-1.91,-12.54,1.67,-4.53,0.81,
1.039,4.11,-1.91,-12.54,1.67,-4.53,0.81,
1.04,3.48,-1.52,-12.64,1.67,-4.53,0.81,
1.041,3.48,-1.52,-12.64,1.67,-4.53,0.81,
1.049,3.48,-1.52,-12.64,1.41,-4.59,0.69,
1.05,3.48,-1.52,-12.64,1.41,-4.59,0.69,
1.05,1.80,-1.39,-12.06,1.41,-4.59,0.69,
1.051,1.80,-1.39,-12.06,1.41,-4.59,0.69,
1.059,1.80,-1.39,-12.06,1.13,-4.75,0.54,
1.061,1.80,-1.39,-12.06,1.13,-4.75,0.54,
1.062,1.28,-1.36,-9.31,1.13,-4.75,0.54,
1.062,1.28,-1.36,-9.31,1.13,-4.75,0.54,
1.067,1.28,-1.36,-9.31,0.87,-4.83,0.43,
1.067,1.28,-1.36,-9.31,0.87,-4.83,0.43,
1.068,0.69,-1.36,-6.46,0.87,-4.83,0.43,
1.068,0.69,-1.36,-6.46,0.87,-4.83,0.43,
1.077,0.69,-1.36,-6.46,0.73,-4.65,0.40,
1.078,0.69,-1.36,-6.46,0.73,-4.65,0.40,
1.079,0.31,-1.31,-5.53,0.73,-4.65,0.40,
1.079,0.31,-1.31,-5.53,0.73,-4.65,0.40,
1.087,0.31,-1.31,-5.53,0.79,-4.09,0.45,
1.089,0.31,-1.31,-5.53,0.79,-4.09,0.45,
1.089,0.24,-1.21,-4.69,0.79,-4.09,0.45,
1.09,0.24,-1.21,-4.69,0.79,-4.09,0.45,
1.096,0.24,-1.21,-4.69,1.03,-3.24,0.53,
1.096,0.24,-1.21,-4.69,1.03,-3.24,0.53,
1.097,0.32,-1.13,-3.83,1.03,-3.24,0.53,
1.098,0.32,-1.13,-3.83,1.03,-3.24,0.53,
1.105,0.32,-1.13,-3.83,1.36,-2.27,0.60,
1.106,0.32,-1.13,-3.83,1.36,-2.27,0.60,
1.106,0.45,-1.10,-1.88,1.36,-2.27,0.60,
1.107,0.45,-1.10,-1.88,1.36,-2.27,0.60,
1.115,0.45,-1.10,-1.88,1.71,-1.33,0.64,
1.115,0.45,-1.10,-1.88,1.71,-1.33,0.64,
1.116,0.53,-1.09,-1.40,1.71,-1.33,0.64,
1.117,0.53,-1.09,-1.40,1.71,-1.33,0.64,
1.125,0.53,-1.09,-1.40,2.09,-0.90,0.63,
1.126,0.53,-1.09,-1.40,2.09,-0.90,0.63,
1.127,0.45,-1.14,-0.97,2.09,-0.90,0.63,
1.128,0.45,-1.14,-0.97,2.09,-0.90,0.63,
1.135,0.45,-1.14,-0.97,2.26,-0.43,0.58,
1.135,0.45,-1.14,-0.97,2.26,-0.43,0.58,
1.136,0.16,-1.26,-0.72,2.26,-0.43,0.58,
1.137,0.16,-1.26,-0.72,2.26,-0.43,0.58,
1.145,0.16,-1.26,-0.72,2.39,0.44,0.53,
1.146,0.16,-1.26,-0.72,2.39,0.44,0.53,
1.146,-0.32,-1.39,-0.70,2.39,0.44,0.53,
1.147,-0.32,-1.39,-0.70,2.39,0.44,0.53,
1.153,-0.32,-1.39,-0.70,2.39,0.44,0.53,
1.154,-0.32,-1.39,-0.70,2.39,0.44,0.53,
1.154,-0.32,-1.39,-0.70,2.39,0.44,0.53,
1.155,-0.32,-1.39,-0.70,2.39,0.44,0.53,
1.162,-0.32,-1.39,-0.70,2.61,1.09,0.52,
1.163,-0.32,-1.39,-0.70,2.61,1.09,0.52,
1.164,-1.24,-1.37,-1.16,2.61,1.09,0.52,
1.165,-1.24,-1.37,-1.16,2.61,1.09,0.52,
1.171,-1.24,-1.37,-1.16,2.63,1.49,0.57,
1.172,-1.24,-1.37,-1.16,2.63,1.49,0.57,
1.173,-1.33,-1.19,-1.38,2.63,1.49,0.57,
1.173,-1.33,-1.19,-1.38,2.63,1.49,0.57,
1.182,-1.33,-1.19,-1.38,2.47,1.65,0.67,
1.182,-1.33,-1.19,-1.38,2.47,1.65,0.67,
1.189,-1.28,-1.07,-1.65,2.47,1.65,0.67,
1.19,-1.28,-1.07,-1.65,2.47,1.65,0.67,
1.193,-1.28,-1.07,-1.65,2.19,1.57,0.78,
1.194,-1.28,-1.07,-1.65,2.19,1.57,0.78,
1.195,-1.28,-1.13,-1.76,2.19,1.57,0.78,
1.195,-1.28,-1.13,-1.76,2.19,1.57,0.78,
1.201,-1.28,-1.13,-1.76,1.86,1.32,0.85,
1.201,-1.28,-1.13,-1.76,1.86,1.32,0.85,
1.202,-1.68,-1.53,-1.72,1.86,1.32,0.85,
1.202,-1.68,-1.53,-1.72,1.86,1.32,0.85,
1.21,-1.68,-1.53,-1.72,1.50,0.97,0.87,
1.211,-1.68,-1.53,-1.72,1.50,0.97,0.87,
1.211,-2.24,-3.26,-1.47,1.50,0.97,0.87,
1.211,-2.24,-3.26,-1.47,1.50,0.97,0.87,
1.223,-2.24,-3.26,-1.47,1.10,0.65,0.94,
1.224,-2.24,-3.26,-1.47,1.10,0.65,0.94,
1.225,-2.60,-3.51,-1.03,1.10,0.65,0.94,
1.225,-2.60,-3.51,-1.03,1.10,0.65,0.94,
1.229,-2.60,-3.51,-1.03,0.63,0.46,1.20,
1.23,-2.60,-3.51,-1.03,0.63,0.46,1.20,
1.23,-2.75,-3.87,-0.51,0.63,0.46,1.20,
1.231,-2.75,-3.87,-0.51,0.63,0.46,1.20,
1.238,-2.75,-3.87,-0.51,0.14,0.47,1.64,
1.241,-2.75,-3.87,-0.51,0.14,0.47,1.64,
1.242,-2.53,-4.14,0.03,0.14,0.47,1.64,
1.243,-2.53,-4.14,0.03,0.14,0.47,1.64,
1.247,-2.53,-4.14,0.03,-0.23,0.52,2.13,
1.249,-2.53,-4.14,0.03,-0.23,0.52,2.13,
1.25,-2.03,-4.24,0.51,-0.23,0.52,2.13,
1.25,-2.03,-4.24,0.51,-0.23,0.52,2.13,
1.258,-2.03,-4.24,0.51,-0.41,0.64,2.51,
1.259,-2.03,-4.24,0.51,-0.41,0.64,2.51,
1.259,-1.41,-4.22,0.98,-0.41,0.64,2.51,
1.26,-1.41,-4.22,0.98,-0.41,0.64,2.51,
1.267,-1.41,-4.22,0.98,-0.42,0.58,2.68,
1.268,-1.41,-4.22,0.98,-0.42,0.58,2.68,
1.269,0.49,-4.04,1.49,-0.42,0.58,2.68,
1.269,0.49,-4.04,1.49,-0.42,0.58,2.68,
1.277,0.49,-4.04,1.49,-0.23,0.46,2.59,
1.278,0.49,-4.04,1.49,-0.23,0.46,2.59,
1.279,2.53,-3.68,5.08,-0.23,0.46,2.59,
1.28,2.53,-3.68,5.08,-0.23,0.46,2.59,
1.286,2.53,-3.68,5.08,0.19,0.52,2.19,
1.287,2.53,-3.68,5.08,0.19,0.52,2.19,
1.288,2.98,-3.31,5.59,0.19,0.52,2.19,
1.288,2.98,-3.31,5.59,0.19,0.52,2.19,
1.308,2.98,-3.31,5.59,0.88,0.57,1.52,
1.309,2.98,-3.31,5.59,0.88,0.57,1.52,
1.31,1.48,-3.31,3.26,0.88,0.57,1.52,
1.311,1.48,-3.31,3.26,0.88,0.57,1.52,
1.312,1.48,-3.31,3.26,1.64,0.68,0.77,
1.313,1.48,-3.31,3.26,1.64,0.68,0.77,
1.314,1.48,-3.31,3.26,1.64,0.68,0.77,
1.314,-1.14,-3.63,1.02,1.64,0.68,0.77,
1.315,-1.14,-3.63,1.02,1.64,0.68,0.77,
1.316,-1.14,-3.63,1.02,1.64,0.68,0.77,
1.323,-1.14,-3.63,1.02,2.09,0.72,0.28,
1.325,-1.14,-3.63,1.02,2.09,0.72,0.28,
1.325,-4.51,-3.95,-2.50,2.09,0.72,0.28,
1.326,-4.51,-3.95,-2.50,2.09,0.72,0.28,
1.33,-4.51,-3.95,-2.50,1.95,0.57,0.19,
1.331,-4.51,-3.95,-2.50,1.95,0.57,0.19,
1.331,-4.97,-3.80,-2.50,1.95,0.57,0.19,
1.332,-4.97,-3.80,-2.50,1.95,0.57,0.19,
1.339,-4.97,-3.80,-2.50,1.14,0.20,0.51,
1.34,-4.97,-3.80,-2.50,1.14,0.20,0.51,
1.341,-5.31,-3.25,-0.55,1.14,0.20,0.51,
1.341,-5.31,-3.25,-0.55,1.14,0.20,0.51,
1.348,-5.31,-3.25,-0.55,-0.08,-0.12,0.59,
1.349,-5.31,-3.25,-0.55,-0.08,-0.12,0.59,
1.349,-5.60,-2.62,-0.00,-0.08,-0.12,0.59,
1.35,-5.60,-2.62,-0.00,-0.08,-0.12,0.59,
1.358,-5.60,-2.62,-0.00,-1.29,-0.18,0.22,
1.359,-5.60,-2.62,-0.00,-1.29,-0.18,0.22,
1.36,-5.83,-2.15,0.35,-1.29,-0.18,0.22,
1.361,-5.83,-2.15,0.35,-1.29,-0.18,0.22,
1.367,-5.83,-2.15,0.35,-1.57,-0.29,0.49,
1.368,-5.83,-2.15,0.35,-1.57,-0.29,0.49,
1.369,-5.81,-1.54,0.59,-1.57,-0.29,0.49,
1.369,-5.81,-1.54,0.59,-1.57,-0.29,0.49,
1.377,-5.81,-1.54,0.59,-1.45,-0.16,1.25,
1.379,-5.81,-1.54,0.59,-1.45,-0.16,1.25,
1.379,-5.57,0.29,0.84,-1.45,-0.16,1.25,
1.38,-5.57,0.29,0.84,-1.45,-0.16,1.25,
1.386,-5.57,0.29,0.84,-1.58,0.29,1.71,
1.387,-5.57,0.29,0.84,-1.58,0.29,1.71,
1.387,-5.40,0.64,1.09,-1.58,0.29,1.71,
1.388,-5.40,0.64,1.09,-1.58,0.29,1.71,
1.395,-5.40,0.64,1.09,-1.46,0.58,1.85,
1.396,-5.40,0.64,1.09,-1.46,0.58,1.85,
1.397,-5.52,1.05,1.18,-1.46,0.58,1.85,
1.397,-5.52,1.05,1.18,-1.46,0.58,1.85,
1.405,-5.52,1.05,1.18,-1.14,0.71,1.72,
1.405,-5.52,1.05,1.18,-1.14,0.71,1.72,
1.406,-5.95,1.38,1.02,-1.14,0.71,1.72,
1.407,-5.95,1.38,1.02,-1.14,0.71,1.72,
1.415,-5.95,1.38,1.02,-0.73,0.73,1.43,
1.416,-5.95,1.38,1.02,-0.73,0.73,1.43,
1.417,-6.40,1.52,0.70,-0.73,0.73,1.43,
1.417,-6.40,1.52,0.70,-0.73,0.73,1.43,
1.429,-6.40,1.52,0.70,-0.36,0.72,1.17,
1.43,-6.40,1.52,0.70,-0.36,0.72,1.17,
1.43,-6.57,1.52,0.23,-0.36,0.72,1.17,
1.431,-6.57,1.52,0.23,-0.36,0.72,1.17,
1.435,-6.57,1.52,0.23,-0.13,0.72,1.06,
1.435,-6.57,1.52,0.23,-0.13,0.72,1.06,
1.435,-6.14,1.63,-0.38,-0.13,0.72,1.06,
1.436,-6.14,1.63,-0.38,-0.13,0.72,1.06,
1.443,-6.14,1.63,-0.38,-0.13,0.72,1.06,
1.444,-6.14,1.63,-0.38,-0.13,0.72,1.06,
1.444,-6.14,1.63,-0.38,-0.13,0.72,1.06,
1.445,-6.14,1.63,-0.38,-0.13,0.72,1.06,
1.453,-6.14,1.63,-0.38,-0.11,0.70,1.08,
1.454,-6.14,1.63,-0.38,-0.11,0.70,1.08,
1.454,-0.61,1.67,-2.27,-0.11,0.70,1.08,
1.454,-0.61,1.67,-2.27,-0.11,0.70,1.08,
1.462,-0.61,1.67,-2.27,-0.35,0.49,0.99,
1.463,-0.61,1.67,-2.27,-0.35,0.49,0.99,
1.464,-2.11,1.26,-2.17,-0.35,0.49,0.99,
1.464,-2.11,1.26,-2.17,-0.35,0.49,0.99,
1.472,-2.11,1.26,-2.17,-0.77,-0.14,0.40,
1.473,-2.11,1.26,-2.17,-0.77,-0.14,0.40,
1.474,-3.99,-0.38,0.45,-0.77,-0.14,0.40,
1.474,-3.99,-0.38,0.45,-0.77,-0.14,0.40,
1.481,-3.99,-0.38,0.45,-1.08,-1.00,-0.53,
1.482,-3.99,-0.38,0.45,-1.08,-1.00,-0.53,
1.483,-4.45,-0.23,4.08,-1.08,-1.00,-0.53,
1.484,-4.45,-0.23,4.08,-1.08,-1.00,-0.53,
1.491,-4.45,-0.23,4.08,-0.85,-1.44,-1.14,
1.493,-4.45,-0.23,4.08,-0.85,-1.44,-1.14,
1.493,-4.02,1.75,7.36,-0.85,-1.44,-1.14,
1.494,-4.02,1.75,7.36,-0.85,-1.44,-1.14,
1.501,-4.02,1.75,7.36,0.24,-1.30,-1.07,
1.502,-4.02,1.75,7.36,0.24,-1.30,-1.07,
1.503,1.60,3.84,7.40,0.24,-1.30,-1.07,
1.503,1.60,3.84,7.40,0.24,-1.30,-1.07,
1.51,1.60,3.84,7.40,2.25,-0.46,-0.93,
1.511,1.60,3.84,7.40,2.25,-0.46,-0.93,
1.512,2.27,4.22,5.30,2.25,-0.46,-0.93,
1.512,2.27,4.22,5.30,2.25,-0.46,-0.93,
1.523,2.27,4.22,5.30,4.58,0.68,-1.51,
1.524,2.27,4.22,5.30,4.58,0.68,-1.51,
1.525,2.63,2.73,2.03,4.58,0.68,-1.51,
1.525,2.63,2.73,2.03,4.58,0.68,-1.51,
1.529,2.63,2.73,2.03,6.15,1.10,-2.72,
1.529,2.63,2.73,2.03,6.15,1.10,-2.72,
1.53,1.12,-0.48,-1.29,6.15,1.10,-2.72,
1.53,1.12,-0.48,-1.29,6.15,1.10,-2.72,
1.538,1.12,-0.48,-1.29,6.30,0.64,-3.69,
1.539,1.12,-0.48,-1.29,6.30,0.64,-3.69,
1.54,0.68,-2.24,-1.51,6.30,0.64,-3.69,
1.54,0.68,-2.24,-1.51,6.30,0.64,-3.69,
1.548,0.68,-2.24,-1.51,5.17,-0.42,-3.74,
1.549,0.68,-2.24,-1.51,5.17,-0.42,-3.74,
1.55,2.17,-4.08,-1.65,5.17,-0.42,-3.74,
1.55,2.17,-4.08,-1.65,5.17,-0.42,-3.74,
1.558,2.17,-4.08,-1.65,3.38,-1.56,-2.88,
1.56,2.17,-4.08,-1.65,3.38,-1.56,-2.88,
1.56,3.89,-6.55,-1.87,3.38,-1.56,-2.88,
1.561,3.89,-6.55,-1.87,3.38,-1.56,-2.88,
1.567,3.89,-6.55,-1.87,1.51,-2.03,-2.40,
1.568,3.89,-6.55,-1.87,1.51,-2.03,-2.40,
1.569,3.80,-8.96,-1.89,1.51,-2.03,-2.40,
1.569,3.80,-8.96,-1.89,1.51,-2.03,-2.40,
1.577,3.80,-8.96,-1.89,-0.02,-2.03,-1.78,
1.579,3.80,-8.96,-1.89,-0.02,-2.03,-1.78,
1.579,1.90,-10.74,-1.79,-0.02,-2.03,-1.78,
1.58,1.90,-10.74,-1.79,-0.02,-2.03,-1.78,
1.586,1.90,-10.74,-1.79,-1.13,-1.96,-0.41,
1.587,1.90,-10.74,-1.79,-1.13,-1.96,-0.41,
1.587,-0.51,-10.82,0.02,-1.13,-1.96,-0.41,
1.588,-0.51,-10.82,0.02,-1.13,-1.96,-0.41,
1.595,-0.51,-10.82,0.02,-1.84,-1.53,0.83,
1.596,-0.51,-10.82,0.02,-1.84,-1.53,0.83,
1.597,-2.50,-10.34,1.67,-1.84,-1.53,0.83,
1.597,-2.50,-10.34,1.67,-1.84,-1.53,0.83,
1.605,-2.50,-10.34,1.67,-2.18,-0.83,1.97,
1.605,-2.50,-10.34,1.67,-2.18,-0.83,1.97,
1.606,-2.68,-6.42,1.63,-2.18,-0.83,1.97,
1.606,-2.68,-6.42,1.63,-2.18,-0.83,1.97,
1.615,-2.68,-6.42,1.63,-2.15,-0.02,2.94,
1.616,-2.68,-6.42,1.63,-2.15,-0.02,2.94,
1.616,-2.27,-3.46,1.12,-2.15,-0.02,2.94,
1.617,-2.27,-3.46,1.12,-2.15,-0.02,2.94,
1.625,-2.27,-3.46,1.12,-1.84,0.66,3.54,
1.626,-2.27,-3.46,1.12,-1.84,0.66,3.54,
1.626,-0.42,-1.04,-0.51,-1.84,0.66,3.54,
1.627,-0.42,-1.04,-0.51,-1.84,0.66,3.54,
1.633,-0.42,-1.04,-0.51,-1.84,0.66,3.54,
1.634,-0.42,-1.04,-0.51,-1.84,0.66,3.54,
1.634,-0.42,-1.04,-0.51,-1.84,0.66,3.54,
1.634,-0.42,-1.04,-0.51,-1.84,0.66,3.54,
1.644,-0.42,-1.04,-0.51,-1.42,1.02,3.65,
1.645,-0.42,-1.04,-0.51,-1.42,1.02,3.65,
1.646,-0.03,-0.10,-0.83,-1.42,1.02,3.65,
1.646,-0.03,-0.10,-0.83,-1.42,1.02,3.65,
1.653,-0.03,-0.10,-0.83,-1.08,1.01,3.27,
1.655,-0.03,-0.10,-0.83,-1.08,1.01,3.27,
1.655,-0.25,-0.12,-0.38,-1.08,1.01,3.27,
1.656,-0.25,-0.12,-0.38,-1.08,1.01,3.27,
1.662,-0.25,-0.12,-0.38,-0.86,0.71,2.55,
1.663,-0.25,-0.12,-0.38,-0.86,0.71,2.55,
1.663,-0.62,-0.46,0.16,-0.86,0.71,2.55,
1.664,-0.62,-0.46,0.16,-0.86,0.71,2.55,
1.672,-0.62,-0.46,0.16,-0.69,0.53,1.76,
1.673,-0.62,-0.46,0.16,-0.69,0.53,1.76,
1.673,-0.86,-0.79,0.59,-0.69,0.53,1.76,
1.673,-0.86,-0.79,0.59,-0.69,0.53,1.76,
1.682,-0.86,-0.79,0.59,-0.58,0.36,1.11,
1.683,-0.86,-0.79,0.59,-0.58,0.36,1.11,
1.684,-1.01,-1.00,0.74,-0.58,0.36,1.11,
1.684,-1.01,-1.00,0.74,-0.58,0.36,1.11,
1.691,-1.01,-1.00,0.74,-0.40,0.06,0.71,
1.693,-1.01,-1.00,0.74,-0.40,0.06,0.71,
1.694,-1.16,-1.05,0.73,-0.40,0.06,0.71,
1.695,-1.16,-1.05,0.73,-0.40,0.06,0.71,
1.703,-1.16,-1.05,0.73,-0.09,-0.11,0.52,
1.707,-1.16,-1.05,0.73,-0.09,-0.11,0.52,
1.707,-1.24,-0.81,0.65,-0.09,-0.11,0.52,
1.707,-1.24,-0.81,0.65,-0.09,-0.11,0.52,
1.71,-1.24,-0.81,0.65,0.17,-0.19,0.47,
1.71,-1.24,-0.81,0.65,0.17,-0.19,0.47,
1.71,-1.32,-0.50,0.44,0.17,-0.19,0.47,
1.711,-1.32,-0.50,0.44,0.17,-0.19,0.47,
1.719,-1.32,-0.50,0.44,0.36,-0.25,0.49,
1.72,-1.32,-0.50,0.44,0.36,-0.25,0.49,
1.72,-1.41,-0.28,0.10,0.36,-0.25,0.49,
1.721,-1.41,-0.28,0.10,0.36,-0.25,0.49,
1.729,-1.41,-0.28,0.10,0.46,-0.30,0.52,
1.729,-1.41,-0.28,0.10,0.46,-0.30,0.52,
1.73,-1.45,-0.19,-0.28,0.46,-0.30,0.52,
1.731,-1.45,-0.19,-0.28,0.46,-0.30,0.52,
1.74,-1.45,-0.19,-0.28,0.46,-0.38,0.55,
1.741,-1.45,-0.19,-0.28,0.46,-0.38,0.55,
1.742,-1.56,-0.27,-0.57,0.46,-0.38,0.55,
1.742,-1.56,-0.27,-0.57,0.46,-0.38,0.55,
1.748,-1.56,-0.27,-0.57,0.36,-0.48,0.57,
1.749,-1.56,-0.27,-0.57,0.36,-0.48,0.57,
1.749,-1.74,-0.33,-0.60,0.36,-0.48,0.57,
1.75,-1.74,-0.33,-0.60,0.36,-0.48,0.57,
1.757,-1.74,-0.33,-0.60,0.19,-0.58,0.60,
1.758,-1.74,-0.33,-0.60,0.19,-0.58,0.60,
1.758,-1.88,-0.21,-0.45,0.19,-0.58,0.60,
1.758,-1.88,-0.21,-0.45,0.19,-0.58,0.60,
1.766,-1.88,-0.21,-0.45,-0.01,-0.64,0.66,
1.767,-1.88,-0.21,-0.45,-0.01,-0.64,0.66,
1.767,-1.90,0.24,-0.23,-0.01,-0.64,0.66,
1.768,-1.90,0.24,-0.23,-0.01,-0.64,0.66,
1.776,-1.90,0.24,-0.23,-0.18,-0.64,0.73,
1.777,-1.90,0.24,-0.23,-0.18,-0.64,0.73,
1.777,-2.09,1.87,-0.14,-0.18,-0.64,0.73,
1.778,-2.09,1.87,-0.14,-0.18,-0.64,0.73,
1.785,-2.09,1.87,-0.14,-0.27,-0.58,0.78,
1.786,-2.09,1.87,-0.14,-0.27,-0.58,0.78,
1.786,-2.47,3.58,-0.25,-0.27,-0.58,0.78,
1.787,-2.47,3.58,-0.25,-0.27,-0.58,0.78,
1.795,-2.47,3.58,-0.25,-0.28,-0.52,0.74,
1.796,-2.47,3.58,-0.25,-0.28,-0.52,0.74,
1.797,-3.01,7.40,-0.43,-0.28,-0.52,0.74,
1.797,-3.01,7.40,-0.43,-0.28,-0.52,0.74,
1.805,-3.01,7.40,-0.43,-0.23,-0.52,0.53,
1.805,-3.01,7.40,-0.43,-0.23,-0.52,0.53,
1.806,-4.71,8.96,-0.37,-0.23,-0.52,0.53,
1.807,-4.71,8.96,-0.37,-0.23,-0.52,0.53,
1.814,-4.71,8.96,-0.37,-0.15,-0.59,0.15,
1.815,-4.71,8.96,-0.37,-0.15,-0.59,0.15,
1.815,-4.63,9.53,0.12,-0.15,-0.59,0.15,
1.816,-4.63,9.53,0.12,-0.15,-0.59,0.15,
1.824,-4.63,9.53,0.12,-0.06,-0.73,-0.38,
1.825,-4.63,9.53,0.12,-0.06,-0.73,-0.38,
1.825,-4.49,9.58,1.98,-0.06,-0.73,-0.38,
1.826,-4.49,9.58,1.98,-0.06,-0.73,-0.38,
1.834,-4.49,9.58,1.98,0.21,-0.85,-1.01,
1.834,-4.49,9.58,1.98,0.21,-0.85,-1.01,
1.835,-4.29,6.52,2.35,0.21,-0.85,-1.01,
1.835,-4.29,6.52,2.35,0.21,-0.85,-1.01,
1.843,-4.29,6.52,2.35,0.21,-0.85,-1.01,
1.844,-4.29,6.52,2.35,0.21,-0.85,-1.01,
1.844,-4.29,6.52,2.35,0.21,-0.85,-1.01,
1.844,-4.29,6.52,2.35,0.21,-0.85,-1.01,
1.852,-4.29,6.52,2.35,0.96,-0.68,-1.61,
1.853,-4.29,6.52,2.35,0.96,-0.68,-1.61,
1.854,-4.55,0.24,2.73,0.96,-0.68,-1.61,
1.854,-4.55,0.24,2.73,0.96,-0.68,-1.61,
1.863,-4.55,0.24,2.73,2.14,-0.54,-1.60,
1.863,-4.55,0.24,2.73,2.14,-0.54,-1.60,
1.864,-5.01,-2.90,2.38,2.14,-0.54,-1.60,
1.865,-5.01,-2.90,2.38,2.14,-0.54,-1.60,
1.872,-5.01,-2.90,2.38,2.62,-0.70,-0.18,
1.873,-5.01,-2.90,2.38,2.62,-0.70,-0.18,
1.873,-5.60,-4.68,0.59,2.62,-0.70,-0.18,
1.874,-5.60,-4.68,0.59,2.62,-0.70,-0.18,
1.882,-5.60,-4.68,0.59,1.97,-0.19,2.18,
1.883,-5.60,-4.68,0.59,1.97,-0.19,2.18,
1.883,-5.99,-6.68,0.26,1.97,-0.19,2.18,
1.884,-5.99,-6.68,0.26,1.97,-0.19,2.18,
1.891,-5.99,-6.68,0.26,0.87,0.66,4.10,
1.893,-5.99,-6.68,0.26,0.87,0.66,4.10,
1.893,-5.79,-6.78,-0.21,0.87,0.66,4.10,
1.894,-5.79,-6.78,-0.21,0.87,0.66,4.10,
1.902,-5.79,-6.78,-0.21,-0.33,0.98,5.04,
1.903,-3.83,-2.52,-0.57,-0.33,0.98,5.04,
1.903,-3.83,-2.52,-0.57,-0.33,0.98,5.04,
1.903,-3.83,-2.52,-0.57,-0.33,0.98,5.04,
1.91,-3.83,-2.52,-0.57,-1.20,0.96,5.16,
1.91,-3.83,-2.52,-0.57,-1.20,0.96,5.16,
1.911,-1.91,0.68,-0.83,-1.20,0.96,5.16,
1.911,-1.91,0.68,-0.83,-1.20,0.96,5.16,
1.919,-1.91,0.68,-0.83,-1.68,0.67,4.64,
1.92,-1.91,0.68,-0.83,-1.68,0.67,4.64,
1.92,-0.19,3.11,-0.99,-1.68,0.67,4.64,
1.921,-0.19,3.11,-0.99,-1.68,0.67,4.64,
1.929,-0.19,3.11,-0.99,-1.89,0.09,3.60,
1.93,-0.19,3.11,-0.99,-1.89,0.09,3.60,
1.93,-0.53,3.16,-1.05,-1.89,0.09,3.60,
1.931,-0.53,3.16,-1.05,-1.89,0.09,3.60,
1.941,-0.53,3.16,-1.05,-1.92,-0.72,2.18,
1.942,-0.53,3.16,-1.05,-1.92,-0.72,2.18,
1.942,-2.35,-0.59,-1.04,-1.92,-0.72,2.18,
1.943,-2.35,-0.59,-1.04,-1.92,-0.72,2.18,
1.95,-2.35,-0.59,-1.04,-1.85,-1.61,0.70,
1.951,-2.35,-0.59,-1.04,-1.85,-1.61,0.70,
1.951,-4.30,-2.26,-0.84,-1.85,-1.61,0.70,
1.952,-4.30,-2.26,-0.84,-1.85,-1.61,0.70,
1.958,-4.30,-2.26,-0.84,-1.73,-2.24,-0.30,
1.959,-4.30,-2.26,-0.84,-1.73,-2.24,-0.30,
1.959,-5.90,-4.19,-0.39,-1.73,-2.24,-0.30,
1.959,-5.90,-4.19,-0.39,-1.73,-2.24,-0.30,
1.967,-5.90,-4.19,-0.39,-1.58,-2.32,-0.36,
1.968,-5.90,-4.19,-0.39,-1.58,-2.32,-0.36,
1.969,-5.87,-4.44,-0.08,-1.58,-2.32,-0.36,
1.969,-5.87,-4.44,-0.08,-1.58,-2.32,-0.36,
1.977,-5.87,-4.44,-0.08,-1.41,-1.89,0.39,
1.978,-5.87,-4.44,-0.08,-1.41,-1.89,0.39,
1.978,-5.63,-2.90,0.40,-1.41,-1.89,0.39,
1.979,-5.63,-2.90,0.40,-1.41,-1.89,0.39,
1.986,-5.63,-2.90,0.40,-1.17,-1.28,1.37,
1.987,-5.63,-2.90,0.40,-1.17,-1.28,1.37,
1.987,-5.32,-1.06,0.61,-1.17,-1.28,1.37,
1.987,-5.32,-1.06,0.61,-1.17,-1.28,1.37,
1.995,-5.32,-1.06,0.61,-0.84,-0.80,2.10,
1.996,-5.32,-1.06,0.61,-0.84,-0.80,2.10,
1.997,-5.05,-0.52,0.42,-0.84,-0.80,2.10,
1.997,-5.05,-0.52,0.42,-0.84,-0.80,2.10,
2.005,-5.05,-0.52,0.42,-0.50,-0.54,2.45,
2.006,-5.05,-0.52,0.42,-0.50,-0.54,2.45,
2.007,-4.68,1.09,0.09,-0.50,-0.54,2.45,
2.007,-4.68,1.09,0.09,-0.50,-0.54,2.45,
2.014,-4.68,1.09,0.09,-0.21,-0.49,2.51,
2.015,-4.68,1.09,0.09,-0.21,-0.49,2.51,
2.015,-4.30,1.34,-0.42,-0.21,-0.49,2.51,
2.016,-4.30,1.34,-0.42,-0.21,-0.49,2.51,
2.025,-4.30,1.34,-0.42,-0.05,-0.56,2.40,
2.026,-4.30,1.34,-0.42,-0.05,-0.56,2.40,
2.027,-3.74,1.34,-0.61,-0.05,-0.56,2.40,
2.027,-3.74,1.34,-0.61,-0.05,-0.56,2.40,
2.035,-3.74,1.34,-0.61,-0.02,-0.71,2.08,
2.036,-3.74,1.34,-0.61,-0.02,-0.71,2.08,
2.036,-2.22,-3.19,-0.24,-0.02,-0.71,2.08,
2.037,-2.22,-3.19,-0.24,-0.02,-0.71,2.08,
2.045,-2.22,-3.19,-0.24,-0.10,-0.93,1.65,
2.048,-2.22,-3.19,-0.24,-0.10,-0.93,1.65,
2.049,-2.28,-10.37,1.65,-0.10,-0.93,1.65,
2.049,-2.28,-10.37,1.65,-0.10,-0.93,1.65,
2.053,-2.28,-10.37,1.65,-0.10,-0.93,1.65,
2.053,-2.28,-10.37,1.65,-0.10,-0.93,1.65,
2.054,-2.28,-10.37,1.65,-0.10,-0.93,1.65,
2.054,-2.28,-10.37,1.65,-0.10,-0.93,1.65,
2.063,-2.28,-10.37,1.65,-0.14,-1.21,1.19,
2.063,-2.28,-10.37,1.65,-0.14,-1.21,1.19,
2.064,-2.40,-19.47,2.29,-0.14,-1.21,1.19,
2.065,-2.40,-19.47,2.29,-0.14,-1.21,1.19,
2.072,-2.40,-19.47,2.29,-0.04,-1.52,0.67,
2.073,-2.40,-19.47,2.29,-0.04,-1.52,0.67,
2.073,-1.86,-17.13,2.01,-0.04,-1.52,0.67,
2.074,-1.86,-17.13,2.01,-0.04,-1.52,0.67,
2.082,-1.86,-17.13,2.01,0.20,-1.74,0.26,
2.083,-1.86,-17.13,2.01,0.20,-1.74,0.26,
2.083,0.47,-10.06,0.48,0.20,-1.74,0.26,
2.083,0.47,-10.06,0.48,0.20,-1.74,0.26,
2.092,0.47,-10.06,0.48,0.44,-1.86,-0.01,
2.093,0.47,-10.06,0.48,0.44,-1.86,-0.01,
2.093,2.04,-2.76,0.06,0.44,-1.86,-0.01,
2.094,2.04,-2.76,0.06,0.44,-1.86,-0.01,
2.101,2.04,-2.76,0.06,0.50,-1.96,-0.28,
2.102,2.04,-2.76,0.06,0.50,-1.96,-0.28,
2.102,1.91,1.16,-0.16,0.50,-1.96,-0.28,
2.103,1.91,1.16,-0.16,0.50,-1.96,-0.28,
2.109,1.91,1.16,-0.16,0.43,-2.09,-0.68,
2.11,1.91,1.16,-0.16,0.43,-2.09,-0.68,
2.111,-0.02,1.73,-0.06,0.43,-2.09,-0.68,
2.111,-0.02,1.73,-0.06,0.43,-2.09,-0.68,
2.123,-0.02,1.73,-0.06,0.33,-2.26,-1.17,
2.124,-0.02,1.73,-0.06,0.33,-2.26,-1.17,
2.125,-2.14,2.21,0.34,0.33,-2.26,-1.17,
2.125,-2.14,2.21,0.34,0.33,-2.26,-1.17,
2.129,-2.14,2.21,0.34,0.25,-2.34,-1.54,
2.129,-2.14,2.21,0.34,0.25,-2.34,-1.54,
2.13,-3.75,2.19,0.97,0.25,-2.34,-1.54,
2.13,-3.75,2.19,0.97,0.25,-2.34,-1.54,
2.139,-3.75,2.19,0.97,0.22,-2.23,-1.53,
2.14,-3.75,2.19,0.97,0.22,-2.23,-1.53,
2.141,-4.17,1.76,1.55,0.22,-2.23,-1.53,
2.141,-4.17,1.76,1.55,0.22,-2.23,-1.53,
2.148,-4.17,1.76,1.55,0.27,-1.84,-1.05,
2.148,-4.17,1.76,1.55,0.27,-1.84,-1.05,
2.149,-4.39,1.30,1.83,0.27,-1.84,-1.05,
2.15,-4.39,1.30,1.83,0.27,-1.84,-1.05,
2.157,-4.39,1.30,1.83,0.42,-1.23,-0.21,
2.158,-4.39,1.30,1.83,0.42,-1.23,-0.21,
2.159,-4.35,0.93,1.73,0.42,-1.23,-0.21,
2.16,-4.35,0.93,1.73,0.42,-1.23,-0.21,
2.167,-4.35,0.93,1.73,0.66,-0.54,0.72,
2.167,-4.35,0.93,1.73,0.66,-0.54,0.72,
2.168,-4.13,0.62,1.35,0.66,-0.54,0.72,
2.168,-4.13,0.62,1.35,0.66,-0.54,0.72,
2.177,-4.13,0.62,1.35,0.90,0.09,1.53,
2.178,-4.13,0.62,1.35,0.90,0.09,1.53,
2.178,-3.69,0.43,0.90,0.90,0.09,1.53,
2.179,-3.69,0.43,0.90,0.90,0.09,1.53,
2.186,-3.69,0.43,0.90,1.04,0.57,2.09,
2.187,-3.69,0.43,0.90,1.04,0.57,2.09,
2.187,-3.16,0.19,0.54,1.04,0.57,2.09,
2.187,-3.16,0.19,0.54,1.04,0.57,2.09,
2.195,-3.16,0.19,0.54,1.01,0.89,2.38,
2.196,-3.16,0.19,0.54,1.01,0.89,2.38,
2.197,-2.57,-0.11,0.32,1.01,0.89,2.38,
2.197,-2.57,-0.11,0.32,1.01,0.89,2.38,
2.205,-2.57,-0.11,0.32,0.82,1.05,2.40,
2.206,-2.57,-0.11,0.32,0.82,1.05,2.40,
2.206,-1.87,-0.34,0.25,0.82,1.05,2.40,
2.207,-1.87,-0.34,0.25,0.82,1.05,2.40,
2.215,-1.87,-0.34,0.25,0.54,1.05,2.19,
2.216,-1.87,-0.34,0.25,0.54,1.05,2.19,
2.217,-1.25,-0.49,0.28,0.54,1.05,2.19,
2.217,-1.25,-0.49,0.28,0.54,1.05,2.19,
2.225,-1.25,-0.49,0.28,0.24,0.91,1.81,
2.225,-1.25,-0.49,0.28,0.24,0.91,1.81,
2.226,-0.77,-0.51,0.34,0.24,0.91,1.81,
2.226,-0.77,-0.51,0.34,0.24,0.91,1.81,
2.234,-0.77,-0.51,0.34,-0.02,0.67,1.32,
2.235,-0.77,-0.51,0.34,-0.02,0.67,1.32,
2.235,-0.41,-0.38,0.46,-0.02,0.67,1.32,
2.236,-0.41,-0.38,0.46,-0.02,0.67,1.32,
2.244,-0.41,-0.38,0.46,-0.19,0.41,0.79,
2.245,-0.41,-0.38,0.46,-0.19,0.41,0.79,
2.245,-0.24,-0.17,0.60,-0.19,0.41,0.79,
2.246,-0.24,-0.17,0.60,-0.19,0.41,0.79,
2.253,-0.24,-0.17,0.60,-0.19,0.41,0.79,
2.254,-0.24,-0.17,0.60,-0.19,0.41,0.79,
2.254,-0.24,-0.17,0.60,-0.19,0.41,0.79,
2.254,-0.24,-0.17,0.60,-0.19,0.41,0.79,
2.262,-0.24,-0.17,0.60,-0.27,0.17,0.31,
2.263,-0.24,-0.17,0.60,-0.27,0.17,0.31,
2.263,-0.39,0.17,0.83,-0.27,0.17,0.31,
2.264,-0.39,0.17,0.83,-0.27,0.17,0.31,
2.272,-0.39,0.17,0.83,-0.27,-0.02,-0.08,
2.273,-0.39,0.17,0.83,-0.27,-0.02,-0.08,
2.273,-0.46,0.30,0.96,-0.27,-0.02,-0.08,
2.274,-0.46,0.30,0.96,-0.27,-0.02,-0.08,
2.282,-0.46,0.30,0.96,-0.19,-0.14,-0.34,
2.283,-0.46,0.30,0.96,-0.19,-0.14,-0.34,
2.283,-0.52,0.34,1.06,-0.19,-0.14,-0.34,
2.284,-0.52,0.34,1.06,-0.19,-0.14,-0.34,
2.291,-0.52,0.34,1.06,-0.05,-0.19,-0.45,
2.292,-0.52,0.34,1.06,-0.05,-0.19,-0.45,
2.292,-0.50,0.37,1.17,-0.05,-0.19,-0.45,
2.293,-0.50,0.37,1.17,-0.05,-0.19,-0.45,
2.313,-0.50,0.37,1.17,0.10,-0.18,-0.46,
2.313,-0.50,0.37,1.17,0.10,-0.18,-0.46,
2.314,-0.42,0.40,1.24,0.10,-0.18,-0.46,
2.315,-0.42,0.40,1.24,0.10,-0.18,-0.46,
2.315,-0.42,0.40,1.24,0.39,-0.13,-0.34,
2.316,-0.42,0.40,1.24,0.39,-0.13,-0.34,
2.316,-0.42,0.40,1.24,0.39,-0.13,-0.34,
2.317,-0.31,0.40,1.18,0.39,-0.13,-0.34,
2.317,-0.31,0.40,1.18,0.39,-0.13,-0.34,
2.318,-0.31,0.40,1.18,0.39,-0.13,-0.34,
2.324,-0.31,0.40,1.18,0.64,-0.14,-0.24,
2.325,-0.31,0.40,1.18,0.64,-0.14,-0.24,
2.326,-0.19,0.39,1.08,0.64,-0.14,-0.24,
2.326,-0.19,0.39,1.08,0.64,-0.14,-0.24,
2.334,-0.19,0.39,1.08,0.64,-0.14,-0.24,
2.334,-0.19,0.39,1.08,0.64,-0.14,-0.24,
2.335,-0.19,0.39,1.08,0.64,-0.14,-0.24,
2.335,-0.19,0.39,1.08,0.64,-0.14,-0.24,
2.343,-0.19,0.39,1.08,0.64,-0.14,-0.24,
2.344,-0.19,0.39,1.08,0.64,-0.14,-0.24,
2.344,-0.19,0.39,1.08,0.64,-0.14,-0.24,
2.345,-0.19,0.39,1.08,0.64,-0.14,-0.24,
2.353,-0.19,0.39,1.08,0.68,-0.19,-0.20,
2.354,-0.19,0.39,1.08,0.68,-0.19,-0.20,
2.354,-0.26,0.16,0.70,0.68,-0.19,-0.20,
2.354,-0.26,0.16,0.70,0.68,-0.19,-0.20,
2.362,-0.26,0.16,0.70,0.61,-0.20,-0.18,
2.363,-0.26,0.16,0.70,0.61,-0.20,-0.18,
2.363,-0.31,0.10,0.62,0.61,-0.20,-0.18,
2.364,-0.31,0.10,0.62,0.61,-0.20,-0.18,
2.372,-0.31,0.10,0.62,0.48,-0.19,-0.14,
2.373,-0.31,0.10,0.62,0.48,-0.19,-0.14,
2.379,-0.31,0.09,0.60,0.48,-0.19,-0.14,
2.379,-0.31,0.09,0.60,0.48,-0.19,-0.14,
2.381,-0.31,0.09,0.60,0.35,-0.19,-0.09,
2.382,-0.31,0.09,0.60,0.35,-0.19,-0.09,
2.382,-0.32,0.11,0.70,0.35,-0.19,-0.09,
2.383,-0.32,0.11,0.70,0.35,-0.19,-0.09,
2.391,-0.32,0.11,0.70,0.24,-0.19,-0.03,
2.392,-0.32,0.11,0.70,0.24,-0.19,-0.03,
2.393,-0.32,0.15,0.83,0.24,-0.19,-0.03,
2.393,-0.32,0.15,0.83,0.24,-0.19,-0.03,
2.401,-0.32,0.15,0.83,0.17,-0.18,0.02,
2.402,-0.32,0.15,0.83,0.17,-0.18,0.02,
2.402,-0.36,0.19,0.92,0.17,-0.18,0.02,
2.403,-0.36,0.19,0.92,0.17,-0.18,0.02,
2.41,-0.36,0.19,0.92,0.15,-0.17,0.07,
2.411,-0.36,0.19,0.92,0.15,-0.17,0.07,
2.412,-0.46,0.21,0.98,0.15,-0.17,0.07,
2.412,-0.46,0.21,0.98,0.15,-0.17,0.07,
2.424,-0.46,0.21,0.98,0.18,-0.16,0.12,
2.425,-0.46,0.21,0.98,0.18,-0.16,0.12,
2.425,-0.59,0.26,0.96,0.18,-0.16,0.12,
2.426,-0.59,0.26,0.96,0.18,-0.16,0.12,
2.429,-0.59,0.26,0.96,0.24,-0.14,0.18,
2.43,-0.59,0.26,0.96,0.24,-0.14,0.18,
2.43,-0.75,0.30,0.90,0.24,-0.14,0.18,
2.431,-0.75,0.30,0.90,0.24,-0.14,0.18,
2.439,-0.75,0.30,0.90,0.31,-0.12,0.25,
2.44,-0.75,0.30,0.90,0.31,-0.12,0.25,
2.44,-0.86,0.34,0.77,0.31,-0.12,0.25,
2.441,-0.86,0.34,0.77,0.31,-0.12,0.25,
2.448,-0.86,0.34,0.77,0.35,-0.08,0.35,
2.449,-0.86,0.34,0.77,0.35,-0.08,0.35,
2.45,-0.92,0.37,0.58,0.35,-0.08,0.35,
2.45,-0.92,0.37,0.58,0.35,-0.08,0.35,
2.458,-0.92,0.37,0.58,0.36,-0.04,0.45,
2.459,-0.92,0.37,0.58,0.36,-0.04,0.45,
2.459,-0.90,0.33,0.39,0.36,-0.04,0.45,
2.46,-0.90,0.33,0.39,0.36,-0.04,0.45,
2.467,-0.90,0.33,0.39,0.32,0.01,0.54,
2.467,-0.90,0.33,0.39,0.32,0.01,0.54,
2.468,-0.82,0.27,0.21,0.32,0.01,0.54,
2.468,-0.82,0.27,0.21,0.32,0.01,0.54,
2.477,-0.82,0.27,0.21,0.24,0.05,0.61,
2.478,-0.82,0.27,0.21,0.24,0.05,0.61,
2.478,-0.73,0.16,0.14,0.24,0.05,0.61,
2.479,-0.73,0.16,0.14,0.24,0.05,0.61,
2.486,-0.73,0.16,0.14,0.13,0.07,0.64,
2.486,-0.73,0.16,0.14,0.13,0.07,0.64,
2.487,-0.64,0.05,0.13,0.13,0.07,0.64,
2.487,-0.64,0.05,0.13,0.13,0.07,0.64,
2.496,-0.64,0.05,0.13,0.01,0.07,0.61,
2.497,-0.64,0.05,0.13,0.01,0.07,0.61,
2.497,-0.57,-0.05,0.15,0.01,0.07,0.61,
2.498,-0.57,-0.05,0.15,0.01,0.07,0.61,
2.505,-0.57,-0.05,0.15,-0.09,0.05,0.55,
2.506,-0.57,-0.05,0.15,-0.09,0.05,0.55,
2.506,-0.49,-0.11,0.19,-0.09,0.05,0.55,
2.507,-0.49,-0.11,0.19,-0.09,0.05,0.55,
2.514,-0.49,-0.11,0.19,-0.17,0.01,0.46,
2.515,-0.49,-0.11,0.19,-0.17,0.01,0.46,
2.515,-0.39,-0.10,0.19,-0.17,0.01,0.46,
2.515,-0.39,-0.10,0.19,-0.17,0.01,0.46,
2.525,-0.39,-0.10,0.19,-0.20,-0.04,0.35,
2.526,-0.39,-0.10,0.19,-0.20,-0.04,0.35,
2.527,-0.30,-0.06,0.15,-0.20,-0.04,0.35,
2.527,-0.30,-0.06,0.15,-0.20,-0.04,0.35,
2.54,-0.30,-0.06,0.15,-0.20,-0.09,0.23,
2.541,-0.30,-0.06,0.15,-0.20,-0.09,0.23,
2.541,-0.22,0.01,0.07,-0.20,-0.09,0.23,
2.542,-0.22,0.01,0.07,-0.20,-0.09,0.23,
2.544,-0.22,0.01,0.07,-0.20,-0.09,0.23,
2.545,-0.22,0.01,0.07,-0.20,-0.09,0.23,
2.545,-0.22,0.01,0.07,-0.20,-0.09,0.23,
2.545,-0.22,0.01,0.07,-0.20,-0.09,0.23,
2.554,-0.22,0.01,0.07,-0.19,-0.14,0.12,
2.554,-0.22,0.01,0.07,-0.19,-0.14,0.12,
2.555,-0.08,0.21,-0.26,-0.19,-0.14,0.12,
2.555,-0.08,0.21,-0.26,-0.19,-0.14,0.12,
2.562,-0.08,0.21,-0.26,-0.19,-0.18,0.01,
2.565,-0.08,0.21,-0.26,-0.19,-0.18,0.01,
2.566,-0.01,0.27,-0.44,-0.19,-0.18,0.01,
2.568,-0.01,0.27,-0.44,-0.19,-0.18,0.01,
2.572,-0.01,0.27,-0.44,-0.21,-0.22,-0.10,
2.573,-0.01,0.27,-0.44,-0.21,-0.22,-0.10,
2.573,0.06,0.25,-0.57,-0.21,-0.22,-0.10,
2.574,0.06,0.25,-0.57,-0.21,-0.22,-0.10,
2.581,0.06,0.25,-0.57,-0.28,-0.26,-0.19,
2.582,0.06,0.25,-0.57,-0.28,-0.26,-0.19,
2.582,0.11,0.18,-0.60,-0.28,-0.26,-0.19,
2.582,0.11,0.18,-0.60,-0.28,-0.26,-0.19,
2.591,0.11,0.18,-0.60,-0.37,-0.31,-0.27,
2.592,0.11,0.18,-0.60,-0.37,-0.31,-0.27,
2.592,0.13,0.03,-0.50,-0.37,-0.31,-0.27,
2.593,0.13,0.03,-0.50,-0.37,-0.31,-0.27,
2.6,0.13,0.03,-0.50,-0.45,-0.34,-0.34,
2.6,0.13,0.03,-0.50,-0.45,-0.34,-0.34,
2.601,0.13,-0.07,-0.31,-0.45,-0.34,-0.34,
2.601,0.13,-0.07,-0.31,-0.45,-0.34,-0.34,
2.609,0.13,-0.07,-0.31,-0.49,-0.36,-0.38,
2.61,0.13,-0.07,-0.31,-0.49,-0.36,-0.38,
2.614,0.14,-0.10,-0.10,-0.49,-0.36,-0.38,
2.615,0.14,-0.10,-0.10,-0.49,-0.36,-0.38,
2.623,0.14,-0.10,-0.10,-0.47,-0.38,-0.40,
2.624,0.14,-0.10,-0.10,-0.47,-0.38,-0.40,
2.625,0.15,-0.06,0.05,-0.47,-0.38,-0.40,
2.625,0.15,-0.06,0.05,-0.47,-0.38,-0.40,
2.629,0.15,-0.06,0.05,-0.38,-0.40,-0.40,
2.631,0.15,-0.06,0.05,-0.38,-0.40,-0.40,
2.632,0.13,0.01,0.17,-0.38,-0.40,-0.40,
2.632,0.13,0.01,0.17,-0.38,-0.40,-0.40,
2.639,0.13,0.01,0.17,-0.24,-0.42,-0.38,
2.64,0.13,0.01,0.17,-0.24,-0.42,-0.38,
2.64,0.08,0.12,0.14,-0.24,-0.42,-0.38,
2.641,0.08,0.12,0.14,-0.24,-0.42,-0.38,
2.648,0.08,0.12,0.14,-0.09,-0.44,-0.35,
2.648,0.08,0.12,0.14,-0.09,-0.44,-0.35,
2.649,-0.08,0.21,0.04,-0.09,-0.44,-0.35,
2.649,-0.08,0.21,0.04,-0.09,-0.44,-0.35,
2.658,-0.08,0.21,0.04,0.05,-0.44,-0.30,
2.659,-0.08,0.21,0.04,0.05,-0.44,-0.30,
2.659,-0.28,0.29,-0.04,0.05,-0.44,-0.30,
2.659,-0.28,0.29,-0.04,0.05,-0.44,-0.30,
2.669,-0.28,0.29,-0.04,0.14,-0.43,-0.22,
2.67,-0.28,0.29,-0.04,0.14,-0.43,-0.22,
2.67,-0.49,0.38,-0.20,0.14,-0.43,-0.22,
2.67,-0.49,0.38,-0.20,0.14,-0.43,-0.22,
2.677,-0.49,0.38,-0.20,0.18,-0.38,-0.11,
2.678,-0.49,0.38,-0.20,0.18,-0.38,-0.11,
2.678,-0.70,0.43,-0.29,0.18,-0.38,-0.11,
2.679,-0.70,0.43,-0.29,0.18,-0.38,-0.11,
2.686,-0.70,0.43,-0.29,0.17,-0.30,0.03,
2.687,-0.70,0.43,-0.29,0.17,-0.30,0.03,
2.687,-0.87,0.43,-0.30,0.17,-0.30,0.03,
2.687,-0.87,0.43,-0.30,0.17,-0.30,0.03,
2.696,-0.87,0.43,-0.30,0.12,-0.18,0.20,
2.696,-0.87,0.43,-0.30,0.12,-0.18,0.20,
2.697,-1.04,0.38,-0.24,0.12,-0.18,0.20,
2.697,-1.04,0.38,-0.24,0.12,-0.18,0.20,
2.705,-1.04,0.38,-0.24,0.07,-0.04,0.38,
2.706,-1.04,0.38,-0.24,0.07,-0.04,0.38,
2.707,-1.19,0.29,-0.11,0.07,-0.04,0.38,
2.707,-1.19,0.29,-0.11,0.07,-0.04,0.38,
2.715,-1.19,0.29,-0.11,0.02,0.09,0.55,
2.716,-1.19,0.29,-0.11,0.02,0.09,0.55,
2.716,-1.27,0.20,0.06,0.02,0.09,0.55,
2.717,-1.27,0.20,0.06,0.02,0.09,0.55,
2.724,-1.27,0.20,0.06,0.02,0.21,0.71,
2.725,-1.27,0.20,0.06,0.02,0.21,0.71,
2.725,-1.28,0.13,0.21,0.02,0.21,0.71,
2.726,-1.28,0.13,0.21,0.02,0.21,0.71,
2.74,-1.28,0.13,0.21,0.06,0.30,0.83,
2.742,-1.28,0.13,0.21,0.06,0.30,0.83,
2.742,-1.20,0.09,0.28,0.06,0.30,0.83,
2.743,-1.20,0.09,0.28,0.06,0.30,0.83,
2.743,-1.20,0.09,0.28,0.06,0.30,0.83,
2.744,-1.20,0.09,0.28,0.06,0.30,0.83,
2.745,-1.20,0.09,0.28,0.06,0.30,0.83,
2.746,-1.20,0.09,0.28,0.06,0.30,0.83,
2.753,-1.20,0.09,0.28,0.12,0.35,0.91,
2.754,-1.20,0.09,0.28,0.12,0.35,0.91,
2.755,-0.99,0.09,0.22,0.12,0.35,0.91,
2.755,-0.99,0.09,0.22,0.12,0.35,0.91,
2.763,-0.99,0.09,0.22,0.20,0.37,0.93,
2.763,-0.99,0.09,0.22,0.20,0.37,0.93,
2.764,-0.89,0.13,0.20,0.20,0.37,0.93,
2.764,-0.89,0.13,0.20,0.20,0.37,0.93,
2.773,-0.89,0.13,0.20,0.25,0.34,0.88,
2.774,-0.89,0.13,0.20,0.25,0.34,0.88,
2.774,-0.83,0.16,0.20,0.25,0.34,0.88,
2.775,-0.83,0.16,0.20,0.25,0.34,0.88,
2.782,-0.83,0.16,0.20,0.28,0.29,0.78,
2.782,-0.83,0.16,0.20,0.28,0.29,0.78,
2.783,-0.79,0.17,0.28,0.28,0.29,0.78,
2.783,-0.79,0.17,0.28,0.28,0.29,0.78,
2.792,-0.79,0.17,0.28,0.28,0.22,0.66,
2.793,-0.79,0.17,0.28,0.28,0.22,0.66,
2.793,-0.75,0.16,0.36,0.28,0.22,0.66,
2.794,-0.75,0.16,0.36,0.28,0.22,0.66,
2.801,-0.75,0.16,0.36,0.28,0.15,0.54,
2.802,-0.75,0.16,0.36,0.28,0.15,0.54,
2.802,-0.68,0.09,0.37,0.28,0.15,0.54,
2.802,-0.68,0.09,0.37,0.28,0.15,0.54,
2.81,-0.68,0.09,0.37,0.29,0.11,0.42,
2.811,-0.68,0.09,0.37,0.29,0.11,0.42,
2.811,-0.55,0.06,0.35,0.29,0.11,0.42,
2.811,-0.55,0.06,0.35,0.29,0.11,0.42,
2.819,-0.55,0.06,0.35,0.30,0.07,0.31,
2.819,-0.55,0.06,0.35,0.30,0.07,0.31,
2.82,-0.39,0.06,0.28,0.30,0.07,0.31,
2.82,-0.39,0.06,0.28,0.30,0.07,0.31,
2.829,-0.39,0.06,0.28,0.29,0.04,0.21,
2.829,-0.39,0.06,0.28,0.29,0.04,0.21,
2.83,-0.20,0.09,0.22,0.29,0.04,0.21,
2.83,-0.20,0.09,0.22,0.29,0.04,0.21,
2.839,-0.20,0.09,0.22,0.27,-0.01,0.09,
2.84,-0.20,0.09,0.22,0.27,-0.01,0.09,
2.841,-0.04,0.16,0.17,0.27,-0.01,0.09,
2.841,-0.04,0.16,0.17,0.27,-0.01,0.09,
2.848,-0.04,0.16,0.17,0.23,-0.07,-0.03,
2.848,-0.04,0.16,0.17,0.23,-0.07,-0.03,
2.853,0.07,0.17,0.19,0.23,-0.07,-0.03,
2.854,0.07,0.17,0.19,0.23,-0.07,-0.03,
2.858,0.07,0.17,0.19,0.17,-0.13,-0.16,
2.859,0.07,0.17,0.19,0.17,-0.13,-0.16,
2.859,0.10,0.19,0.23,0.17,-0.13,-0.16,
2.859,0.10,0.19,0.23,0.17,-0.13,-0.16,
2.867,0.10,0.19,0.23,0.12,-0.17,-0.28,
2.868,0.10,0.19,0.23,0.12,-0.17,-0.28,
2.868,0.07,0.20,0.25,0.12,-0.17,-0.28,
2.869,0.07,0.20,0.25,0.12,-0.17,-0.28,
2.877,0.07,0.20,0.25,0.09,-0.21,-0.38,
2.878,0.07,0.20,0.25,0.09,-0.21,-0.38,
2.878,0.00,0.18,0.22,0.09,-0.21,-0.38,
2.879,0.00,0.18,0.22,0.09,-0.21,-0.38,
2.886,0.00,0.18,0.22,0.07,-0.23,-0.44,
2.887,0.00,0.18,0.22,0.07,-0.23,-0.44,
2.887,-0.05,0.15,0.08,0.07,-0.23,-0.44,
2.887,-0.05,0.15,0.08,0.07,-0.23,-0.44,
2.895,-0.05,0.15,0.08,0.05,-0.22,-0.45,
2.896,-0.05,0.15,0.08,0.05,-0.22,-0.45,
2.897,-0.00,0.12,-0.09,0.05,-0.22,-0.45,
2.897,-0.00,0.12,-0.09,0.05,-0.22,-0.45,
2.905,-0.00,0.12,-0.09,0.03,-0.18,-0.43,
2.906,-0.00,0.12,-0.09,0.03,-0.18,-0.43,
2.906,0.08,0.10,-0.24,0.03,-0.18,-0.43,
2.907,0.08,0.10,-0.24,0.03,-0.18,-0.43,
2.914,0.08,0.10,-0.24,-0.03,-0.14,-0.39,
2.915,0.08,0.10,-0.24,-0.03,-0.14,-0.39,
2.916,0.18,0.10,-0.28,-0.03,-0.14,-0.39,
2.917,0.18,0.10,-0.28,-0.03,-0.14,-0.39,
2.924,0.18,0.10,-0.28,-0.11,-0.11,-0.36,
2.925,0.18,0.10,-0.28,-0.11,-0.11,-0.36,
2.925,0.19,0.13,-0.23,-0.11,-0.11,-0.36,
2.926,0.19,0.13,-0.23,-0.11,-0.11,-0.36,
2.939,0.19,0.13,-0.23,-0.11,-0.11,-0.36,
2.94,0.19,0.13,-0.23,-0.11,-0.11,-0.36,
2.941,0.19,0.13,-0.23,-0.11,-0.11,-0.36,
2.941,0.19,0.13,-0.23,-0.11,-0.11,-0.36,
2.943,0.19,0.13,-0.23,-0.19,-0.10,-0.33,
2.944,0.19,0.13,-0.23,-0.19,-0.10,-0.33,
2.945,-0.01,0.11,-0.10,-0.19,-0.10,-0.33,
2.945,-0.01,0.11,-0.10,-0.19,-0.10,-0.33,
2.954,-0.01,0.11,-0.10,-0.26,-0.09,-0.31,
2.954,-0.01,0.11,-0.10,-0.26,-0.09,-0.31,
2.955,-0.14,0.07,-0.05,-0.26,-0.09,-0.31,
2.955,-0.14,0.07,-0.05,-0.26,-0.09,-0.31,
2.963,-0.14,0.07,-0.05,-0.27,-0.06,-0.28,
2.963,-0.14,0.07,-0.05,-0.27,-0.06,-0.28,
2.964,-0.21,0.06,-0.02,-0.27,-0.06,-0.28,
2.964,-0.21,0.06,-0.02,-0.27,-0.06,-0.28,
2.973,-0.21,0.06,-0.02,-0.25,-0.01,-0.20,
2.974,-0.21,0.06,-0.02,-0.25,-0.01,-0.20,
2.974,-0.22,0.09,-0.01,-0.25,-0.01,-0.20,
2.975,-0.22,0.09,-0.01,-0.25,-0.01,-0.20,
2.982,-0.22,0.09,-0.01,-0.20,0.05,-0.11,
2.983,-0.22,0.09,-0.01,-0.20,0.05,-0.11,
2.983,-0.11,0.15,-0.04,-0.20,0.05,-0.11,
2.984,-0.11,0.15,-0.04,-0.20,0.05,-0.11,
2.991,-0.11,0.15,-0.04,-0.14,0.11,-0.02,
2.992,-0.11,0.15,-0.04,-0.14,0.11,-0.02,
2.993,0.05,0.21,-0.13,-0.14,0.11,-0.02,
2.993,0.05,0.21,-0.13,-0.14,0.11,-0.02,
3.0,0.05,0.21,-0.13,-0.09,0.15,0.05,
3.001,0.05,0.21,-0.13,-0.09,0.15,0.05,
3.001,0.25,0.26,-0.28,-0.09,0.15,0.05,
3.001,0.25,0.26,-0.28,-0.09,0.15,0.05,
3.01,0.25,0.26,-0.28,-0.07,0.16,0.07,
3.011,0.25,0.26,-0.28,-0.07,0.16,0.07,
3.011,0.43,0.24,-0.40,-0.07,0.16,0.07,
3.012,0.43,0.24,-0.40,-0.07,0.16,0.07,
3.021,0.43,0.24,-0.40,-0.08,0.14,0.03,
3.022,0.43,0.24,-0.40,-0.08,0.14,0.03,
3.022,0.53,0.18,-0.49,-0.08,0.14,0.03,
3.023,0.53,0.18,-0.49,-0.08,0.14,0.03,
3.029,0.53,0.18,-0.49,-0.12,0.10,-0.05,
3.029,0.53,0.18,-0.49,-0.12,0.10,-0.05,
3.03,0.52,0.10,-0.52,-0.12,0.10,-0.05,
3.03,0.52,0.10,-0.52,-0.12,0.10,-0.05,
3.038,0.52,0.10,-0.52,-0.19,0.04,-0.15,
3.039,0.52,0.10,-0.52,-0.19,0.04,-0.15,
3.039,0.45,0.01,-0.55,-0.19,0.04,-0.15,
3.04,0.45,0.01,-0.55,-0.19,0.04,-0.15,
3.049,0.45,0.01,-0.55,-0.25,-0.02,-0.24,
3.049,0.45,0.01,-0.55,-0.25,-0.02,-0.24,
3.05,0.36,-0.05,-0.57,-0.25,-0.02,-0.24,
3.05,0.36,-0.05,-0.57,-0.25,-0.02,-0.24,
3.058,0.36,-0.05,-0.57,-0.31,-0.06,-0.29,
3.059,0.36,-0.05,-0.57,-0.31,-0.06,-0.29,
3.059,0.28,-0.06,-0.61,-0.31,-0.06,-0.29,
3.059,0.28,-0.06,-0.61,-0.31,-0.06,-0.29,
3.068,0.28,-0.06,-0.61,-0.34,-0.07,-0.30,
3.069,0.28,-0.06,-0.61,-0.34,-0.07,-0.30,
3.069,0.27,-0.06,-0.64,-0.34,-0.07,-0.30,
3.07,0.27,-0.06,-0.64,-0.34,-0.07,-0.30,
3.076,0.27,-0.06,-0.64,-0.37,-0.06,-0.28,
3.077,0.27,-0.06,-0.64,-0.37,-0.06,-0.28,
3.078,0.28,-0.05,-0.65,-0.37,-0.06,-0.28,
3.078,0.28,-0.05,-0.65,-0.37,-0.06,-0.28,
3.086,0.28,-0.05,-0.65,-0.38,-0.05,-0.23,
3.087,0.28,-0.05,-0.65,-0.38,-0.05,-0.23,
3.093,0.31,-0.03,-0.65,-0.38,-0.05,-0.23,
3.093,0.31,-0.03,-0.65,-0.38,-0.05,-0.23,
3.095,0.31,-0.03,-0.65,-0.38,-0.04,-0.18,
3.096,0.31,-0.03,-0.65,-0.38,-0.04,-0.18,
3.096,0.37,0.02,-0.65,-0.38,-0.04,-0.18,
3.097,0.37,0.02,-0.65,-0.38,-0.04,-0.18,
3.106,0.37,0.02,-0.65,-0.37,-0.04,-0.15,
3.108,0.37,0.02,-0.65,-0.37,-0.04,-0.15,
3.109,0.41,0.05,-0.64,-0.37,-0.04,-0.15,
3.11,0.41,0.05,-0.64,-0.37,-0.04,-0.15,
3.114,0.41,0.05,-0.64,-0.35,-0.04,-0.13,
3.116,0.41,0.05,-0.64,-0.35,-0.04,-0.13,
3.118,0.44,0.10,-0.63,-0.35,-0.04,-0.13,
3.118,0.44,0.10,-0.63,-0.35,-0.04,-0.13,
3.124,0.44,0.10,-0.63,-0.33,-0.04,-0.13,
3.124,0.44,0.10,-0.63,-0.33,-0.04,-0.13,
3.125,0.47,0.13,-0.62,-0.33,-0.04,-0.13,
3.126,0.47,0.13,-0.62,-0.33,-0.04,-0.13,
3.138,0.47,0.13,-0.62,-0.33,-0.04,-0.13,
3.138,0.47,0.13,-0.62,-0.33,-0.04,-0.13,
3.139,0.47,0.13,-0.62,-0.33,-0.04,-0.13,
3.139,0.47,0.13,-0.62,-0.33,-0.04,-0.13,
3.143,0.47,0.13,-0.62,-0.30,-0.04,-0.14,
3.144,0.47,0.13,-0.62,-0.30,-0.04,-0.14,
3.145,0.50,0.15,-0.52,-0.30,-0.04,-0.14,
3.145,0.50,0.15,-0.52,-0.30,-0.04,-0.14,
3.152,0.50,0.15,-0.52,-0.26,-0.05,-0.15,
3.153,0.50,0.15,-0.52,-0.26,-0.05,-0.15,
3.154,0.48,0.16,-0.43,-0.26,-0.05,-0.15,
3.154,0.48,0.16,-0.43,-0.26,-0.05,-0.15,
3.162,0.48,0.16,-0.43,-0.22,-0.07,-0.17,
3.163,0.48,0.16,-0.43,-0.22,-0.07,-0.17,
3.163,0.41,0.18,-0.33,-0.22,-0.07,-0.17,
3.164,0.41,0.18,-0.33,-0.22,-0.07,-0.17,
3.172,0.41,0.18,-0.33,-0.16,-0.10,-0.18,
3.173,0.41,0.18,-0.33,-0.16,-0.10,-0.18,
3.173,0.30,0.23,-0.16,-0.16,-0.10,-0.18,
3.174,0.30,0.23,-0.16,-0.16,-0.10,-0.18,
3.182,0.30,0.23,-0.16,-0.09,-0.14,-0.18,
3.183,0.30,0.23,-0.16,-0.09,-0.14,-0.18,
3.183,0.10,0.21,-0.00,-0.09,-0.14,-0.18,
3.184,0.10,0.21,-0.00,-0.09,-0.14,-0.18,
3.191,0.10,0.21,-0.00,0.01,-0.15,-0.14,
3.192,0.10,0.21,-0.00,0.01,-0.15,-0.14,
3.192,-0.08,0.14,0.11,0.01,-0.15,-0.14,
3.193,-0.08,0.14,0.11,0.01,-0.15,-0.14,
3.201,-0.08,0.14,0.11,0.11,-0.14,-0.08,
3.202,-0.08,0.14,0.11,0.11,-0.14,-0.08,
3.202,-0.14,0.05,0.14,0.11,-0.14,-0.08,
3.202,-0.14,0.05,0.14,0.11,-0.14,-0.08,
3.21,-0.14,0.05,0.14,0.22,-0.10,0.01,
3.211,-0.14,0.05,0.14,0.22,-0.10,0.01,
3.211,-0.07,0.02,0.08,0.22,-0.10,0.01,
3.212,-0.07,0.02,0.08,0.22,-0.10,0.01,
3.219,-0.07,0.02,0.08,0.32,-0.05,0.11,
3.22,-0.07,0.02,0.08,0.32,-0.05,0.11,
3.22,0.10,0.08,-0.03,0.32,-0.05,0.11,
3.221,0.10,0.08,-0.03,0.32,-0.05,0.11,
3.229,0.10,0.08,-0.03,0.37,-0.02,0.18,
3.23,0.10,0.08,-0.03,0.37,-0.02,0.18,
3.23,0.30,0.25,-0.08,0.37,-0.02,0.18,
3.231,0.30,0.25,-0.08,0.37,-0.02,0.18,
3.239,0.30,0.25,-0.08,0.37,-0.02,0.21,
3.24,0.30,0.25,-0.08,0.37,-0.02,0.21,
3.24,0.29,0.40,-0.01,0.37,-0.02,0.21,
3.241,0.29,0.40,-0.01,0.37,-0.02,0.21,
3.248,0.29,0.40,-0.01,0.33,-0.07,0.17,
3.249,0.29,0.40,-0.01,0.33,-0.07,0.17,
3.249,0.05,0.47,0.18,0.33,-0.07,0.17,
3.249,0.05,0.47,0.18,0.33,-0.07,0.17,
3.258,0.05,0.47,0.18,0.29,-0.12,0.11,
3.259,0.05,0.47,0.18,0.29,-0.12,0.11,
3.259,-0.35,0.40,0.41,0.29,-0.12,0.11,
3.259,-0.35,0.40,0.41,0.29,-0.12,0.11,
3.268,-0.35,0.40,0.41,0.28,-0.15,0.08,
3.268,-0.35,0.40,0.41,0.28,-0.15,0.08,
3.269,-0.76,0.27,0.57,0.28,-0.15,0.08,
3.269,-0.76,0.27,0.57,0.28,-0.15,0.08,
3.276,-0.76,0.27,0.57,0.31,-0.12,0.12,
3.277,-0.76,0.27,0.57,0.31,-0.12,0.12,
3.277,-1.05,0.14,0.61,0.31,-0.12,0.12,
3.278,-1.05,0.14,0.61,0.31,-0.12,0.12,
3.286,-1.05,0.14,0.61,0.38,-0.03,0.25,
3.288,-1.05,0.14,0.61,0.38,-0.03,0.25,
3.288,-1.11,0.05,0.50,0.38,-0.03,0.25,
3.288,-1.11,0.05,0.50,0.38,-0.03,0.25,
3.308,-1.11,0.05,0.50,0.45,0.09,0.43,
3.309,-1.11,0.05,0.50,0.45,0.09,0.43,
3.309,-0.92,0.04,0.28,0.45,0.09,0.43,
3.31,-0.92,0.04,0.28,0.45,0.09,0.43,
3.31,-0.92,0.04,0.28,0.45,0.09,0.43,
3.31,-0.92,0.04,0.28,0.45,0.09,0.43,
3.311,-0.92,0.04,0.28,0.45,0.09,0.43,
3.311,-0.92,0.04,0.28,0.45,0.09,0.43,
3.312,-0.92,0.04,0.28,0.45,0.09,0.43,
3.312,-0.92,0.04,0.28,0.45,0.09,0.43,
3.319,-0.92,0.04,0.28,0.44,0.29,0.68,
3.32,-0.92,0.04,0.28,0.44,0.29,0.68,
3.321,-0.13,0.10,-0.11,0.44,0.29,0.68,
3.322,-0.13,0.10,-0.11,0.44,0.29,0.68,
3.329,-0.13,0.10,-0.11,0.32,0.28,0.63,
3.33,-0.13,0.10,-0.11,0.32,0.28,0.63,
3.33,0.08,0.12,-0.12,0.32,0.28,0.63,
3.33,0.08,0.12,-0.12,0.32,0.28,0.63,
3.339,0.08,0.12,-0.12,0.14,0.19,0.47,
3.34,0.08,0.12,-0.12,0.14,0.19,0.47,
3.341,0.11,0.14,-0.05,0.14,0.19,0.47,
3.341,0.11,0.14,-0.05,0.14,0.19,0.47,
3.348,0.11,0.14,-0.05,-0.03,0.06,0.25,
3.349,0.11,0.14,-0.05,-0.03,0.06,0.25,
3.349,0.02,0.14,0.04,-0.03,0.06,0.25,
3.349,0.02,0.14,0.04,-0.03,0.06,0.25,
3.357,0.02,0.14,0.04,-0.15,-0.06,0.06,
3.358,0.02,0.14,0.04,-0.15,-0.06,0.06,
3.359,-0.15,0.17,0.18,-0.15,-0.06,0.06,
3.359,-0.15,0.17,0.18,-0.15,-0.06,0.06,
3.367,-0.15,0.17,0.18,-0.21,-0.15,-0.08,
3.369,-0.15,0.17,0.18,-0.21,-0.15,-0.08,
3.369,-0.33,0.17,0.33,-0.21,-0.15,-0.08,
3.37,-0.33,0.17,0.33,-0.21,-0.15,-0.08,
3.376,-0.33,0.17,0.33,-0.20,-0.18,-0.15,
3.377,-0.33,0.17,0.33,-0.20,-0.18,-0.15,
3.377,-0.46,0.17,0.44,-0.20,-0.18,-0.15,
3.378,-0.46,0.17,0.44,-0.20,-0.18,-0.15,
3.386,-0.46,0.17,0.44,-0.15,-0.18,-0.15,
3.387,-0.46,0.17,0.44,-0.15,-0.18,-0.15,
3.387,-0.52,0.16,0.51,-0.15,-0.18,-0.15,
3.388,-0.52,0.16,0.51,-0.15,-0.18,-0.15,
3.396,-0.52,0.16,0.51,-0.06,-0.14,-0.10,
3.397,-0.52,0.16,0.51,-0.06,-0.14,-0.10,
3.397,-0.52,0.16,0.51,-0.06,-0.14,-0.10,
3.398,-0.52,0.16,0.51,-0.06,-0.14,-0.10,
3.405,-0.52,0.16,0.51,0.04,-0.08,-0.02,
3.406,-0.52,0.16,0.51,0.04,-0.08,-0.02,
3.407,-0.45,0.16,0.44,0.04,-0.08,-0.02,
3.407,-0.45,0.16,0.44,0.04,-0.08,-0.02,
3.415,-0.45,0.16,0.44,0.12,-0.02,0.06,
3.415,-0.45,0.16,0.44,0.12,-0.02,0.06,
3.416,-0.32,0.17,0.35,0.12,-0.02,0.06,
3.417,-0.32,0.17,0.35,0.12,-0.02,0.06,
3.424,-0.32,0.17,0.35,0.18,0.01,0.11,
3.425,-0.32,0.17,0.35,0.18,0.01,0.11,
3.426,-0.23,0.19,0.25,0.18,0.01,0.11,
3.426,-0.23,0.19,0.25,0.18,0.01,0.11,
3.439,-0.23,0.19,0.25,0.19,0.02,0.12,
3.44,-0.23,0.19,0.25,0.19,0.02,0.12,
3.441,-0.16,0.19,0.15,0.19,0.02,0.12,
3.441,-0.16,0.19,0.15,0.19,0.02,0.12,
3.444,-0.16,0.19,0.15,0.16,0.00,0.09,
3.445,-0.16,0.19,0.15,0.16,0.00,0.09,
3.445,-0.15,0.20,0.10,0.16,0.00,0.09,
3.446,-0.15,0.20,0.10,0.16,0.00,0.09,
3.454,-0.15,0.20,0.10,0.16,0.00,0.09,
3.455,-0.15,0.20,0.10,0.16,0.00,0.09,
3.455,-0.15,0.20,0.10,0.16,0.00,0.09,
3.456,-0.15,0.20,0.10,0.16,0.00,0.09,
3.463,-0.15,0.20,0.10,0.10,-0.02,0.04,
3.463,-0.15,0.20,0.10,0.10,-0.02,0.04,
3.464,-0.22,0.19,0.03,0.10,-0.02,0.04,
3.464,-0.22,0.19,0.03,0.10,-0.02,0.04,
3.472,-0.22,0.19,0.03,0.04,-0.05,-0.00,
3.473,-0.22,0.19,0.03,0.04,-0.05,-0.00,
3.474,-0.21,0.18,0.06,0.04,-0.05,-0.00,
3.474,-0.21,0.18,0.06,0.04,-0.05,-0.00,
3.482,-0.21,0.18,0.06,-0.02,-0.06,-0.04,
3.483,-0.21,0.18,0.06,-0.02,-0.06,-0.04,
3.484,-0.14,0.14,0.09,-0.02,-0.06,-0.04,
3.484,-0.14,0.14,0.09,-0.02,-0.06,-0.04,
3.491,-0.14,0.14,0.09,-0.07,-0.06,-0.05,
3.493,-0.14,0.14,0.09,-0.07,-0.06,-0.05,
3.493,-0.02,0.12,0.19,-0.07,-0.06,-0.05,
3.494,-0.02,0.12,0.19,-0.07,-0.06,-0.05,
3.501,-0.02,0.12,0.19,-0.09,-0.06,-0.07,
3.502,-0.02,0.12,0.19,-0.09,-0.06,-0.07,
3.503,0.09,0.11,0.26,-0.09,-0.06,-0.07,
3.503,0.09,0.11,0.26,-0.09,-0.06,-0.07,
3.511,0.09,0.11,0.26,-0.09,-0.06,-0.09,
3.511,0.09,0.11,0.26,-0.09,-0.06,-0.09,
3.512,0.17,0.12,0.27,-0.09,-0.06,-0.09,
3.513,0.17,0.12,0.27,-0.09,-0.06,-0.09,
3.519,0.17,0.12,0.27,-0.06,-0.07,-0.13,
3.52,0.17,0.12,0.27,-0.06,-0.07,-0.13,
3.521,0.18,0.15,0.27,-0.06,-0.07,-0.13,
3.521,0.18,0.15,0.27,-0.06,-0.07,-0.13,
3.529,0.18,0.15,0.27,-0.02,-0.09,-0.18,
3.53,0.18,0.15,0.27,-0.02,-0.09,-0.18,
3.531,0.14,0.16,0.23,-0.02,-0.09,-0.18,
3.531,0.14,0.16,0.23,-0.02,-0.09,-0.18,
3.54,0.14,0.16,0.23,0.03,-0.10,-0.23,
3.541,0.14,0.16,0.23,0.03,-0.10,-0.23,
3.542,0.14,0.16,0.24,0.03,-0.10,-0.23,
3.543,0.14,0.16,0.24,0.03,-0.10,-0.23,
3.548,0.14,0.16,0.24,0.06,-0.09,-0.26,
3.549,0.14,0.16,0.24,0.06,-0.09,-0.26,
3.549,0.10,0.14,0.21,0.06,-0.09,-0.26,
3.55,0.10,0.14,0.21,0.06,-0.09,-0.26,
3.558,0.10,0.14,0.21,0.08,-0.06,-0.27,
3.559,0.10,0.14,0.21,0.08,-0.06,-0.27,
3.559,0.04,0.10,0.09,0.08,-0.06,-0.27,
3.56,0.04,0.10,0.09,0.08,-0.06,-0.27,
3.568,0.04,0.10,0.09,0.09,-0.03,-0.26,
3.569,0.04,0.10,0.09,0.09,-0.03,-0.26,
3.57,-0.03,0.06,-0.12,0.09,-0.03,-0.26,
3.57,-0.03,0.06,-0.12,0.09,-0.03,-0.26,
3.576,-0.03,0.06,-0.12,0.08,-0.01,-0.22,
3.577,-0.03,0.06,-0.12,0.08,-0.01,-0.22,
3.577,-0.12,0.03,-0.35,0.08,-0.01,-0.22,
3.578,-0.12,0.03,-0.35,0.08,-0.01,-0.22,
3.586,-0.12,0.03,-0.35,0.03,0.03,-0.17,
3.586,-0.12,0.03,-0.35,0.03,0.03,-0.17,
3.587,-0.17,0.02,-0.52,0.03,0.03,-0.17,
3.587,-0.17,0.02,-0.52,0.03,0.03,-0.17,
3.596,-0.17,0.02,-0.52,-0.07,0.07,-0.10,
3.597,-0.17,0.02,-0.52,-0.07,0.07,-0.10,
3.597,-0.17,0.02,-0.56,-0.07,0.07,-0.10,
3.597,-0.17,0.02,-0.56,-0.07,0.07,-0.10,
3.606,-0.17,0.02,-0.56,-0.19,0.12,-0.03,
3.606,-0.17,0.02,-0.56,-0.19,0.12,-0.03,
3.607,-0.14,0.06,-0.53,-0.19,0.12,-0.03,
3.608,-0.14,0.06,-0.53,-0.19,0.12,-0.03,
3.616,-0.14,0.06,-0.53,-0.31,0.15,0.03,
3.617,-0.14,0.06,-0.53,-0.31,0.15,0.03,
3.617,-0.12,0.10,-0.48,-0.31,0.15,0.03,
3.618,-0.12,0.10,-0.48,-0.31,0.15,0.03,
3.625,-0.12,0.10,-0.48,-0.39,0.17,0.08,
3.626,-0.12,0.10,-0.48,-0.39,0.17,0.08,
3.626,-0.09,0.14,-0.41,-0.39,0.17,0.08,
3.627,-0.09,0.14,-0.41,-0.39,0.17,0.08,
3.639,-0.09,0.14,-0.41,-0.43,0.18,0.11,
3.64,-0.09,0.14,-0.41,-0.43,0.18,0.11,
3.641,-0.08,0.20,-0.32,-0.43,0.18,0.11,
3.641,-0.08,0.20,-0.32,-0.43,0.18,0.11,
3.643,-0.08,0.20,-0.32,-0.43,0.18,0.11,
3.644,-0.08,0.20,-0.32,-0.43,0.18,0.11,
3.644,-0.08,0.20,-0.32,-0.43,0.18,0.11,
3.645,-0.08,0.20,-0.32,-0.43,0.18,0.11,
3.653,-0.08,0.20,-0.32,-0.42,0.18,0.12,
3.653,-0.08,0.20,-0.32,-0.42,0.18,0.12,
3.654,-0.04,0.23,-0.20,-0.42,0.18,0.12,
3.654,-0.04,0.23,-0.20,-0.42,0.18,0.12,
3.662,-0.04,0.23,-0.20,-0.37,0.16,0.12,
3.663,-0.04,0.23,-0.20,-0.37,0.16,0.12,
3.664,-0.01,0.22,-0.19,-0.37,0.16,0.12,
3.664,-0.01,0.22,-0.19,-0.37,0.16,0.12,
3.672,-0.01,0.22,-0.19,-0.29,0.13,0.11,
3.673,-0.01,0.22,-0.19,-0.29,0.13,0.11,
3.674,0.05,0.20,-0.19,-0.29,0.13,0.11,
3.674,0.05,0.20,-0.19,-0.29,0.13,0.11,
3.682,0.05,0.20,-0.19,-0.19,0.10,0.09,
3.683,0.05,0.20,-0.19,-0.19,0.10,0.09,
3.684,0.11,0.16,-0.20,-0.19,0.10,0.09,
3.684,0.11,0.16,-0.20,-0.19,0.10,0.09,
3.692,0.11,0.16,-0.20,-0.11,0.06,0.07,
3.693,0.11,0.16,-0.20,-0.11,0.06,0.07,
3.694,0.15,0.13,-0.18,-0.11,0.06,0.07,
3.694,0.15,0.13,-0.18,-0.11,0.06,0.07,
3.702,0.15,0.13,-0.18,-0.05,0.02,0.03,
3.703,0.15,0.13,-0.18,-0.05,0.02,0.03,
3.703,0.18,0.12,-0.12,-0.05,0.02,0.03,
3.704,0.18,0.12,-0.12,-0.05,0.02,0.03,
3.71,0.18,0.12,-0.12,-0.00,-0.01,-0.01,
3.71,0.16,0.10,-0.09,-0.00,-0.01,-0.01,
3.711,0.16,0.10,-0.09,-0.00,-0.01,-0.01,
3.712,0.16,0.10,-0.09,-0.00,-0.01,-0.01,
3.719,0.16,0.10,-0.09,0.03,-0.04,-0.05,
3.72,0.16,0.10,-0.09,0.03,-0.04,-0.05,
3.721,0.12,0.12,-0.06,0.03,-0.04,-0.05,
3.721,0.12,0.12,-0.06,0.03,-0.04,-0.05,
3.73,0.12,0.12,-0.06,0.07,-0.07,-0.07,
3.731,0.12,0.12,-0.06,0.07,-0.07,-0.07,
3.731,0.04,0.14,-0.03,0.07,-0.07,-0.07,
3.732,0.04,0.14,-0.03,0.07,-0.07,-0.07,
3.739,0.04,0.14,-0.03,0.10,-0.09,-0.08,
3.74,0.04,0.14,-0.03,0.10,-0.09,-0.08,
3.741,-0.05,0.13,-0.02,0.10,-0.09,-0.08,
3.742,-0.05,0.13,-0.02,0.10,-0.09,-0.08,
3.749,-0.05,0.13,-0.02,0.13,-0.10,-0.07,
3.75,-0.05,0.13,-0.02,0.13,-0.10,-0.07,
3.75,-0.12,0.14,-0.01,0.13,-0.10,-0.07,
3.751,-0.12,0.14,-0.01,0.13,-0.10,-0.07,
3.757,-0.12,0.14,-0.01,0.15,-0.10,-0.04,
3.758,-0.12,0.14,-0.01,0.15,-0.10,-0.04,
3.758,-0.16,0.13,0.03,0.15,-0.10,-0.04,
3.759,-0.16,0.13,0.03,0.15,-0.10,-0.04,
3.768,-0.16,0.13,0.03,0.16,-0.08,0.01,
3.768,-0.16,0.13,0.03,0.16,-0.08,0.01,
3.769,-0.19,0.13,0.05,0.16,-0.08,0.01,
3.769,-0.19,0.13,0.05,0.16,-0.08,0.01,
3.777,-0.19,0.13,0.05,0.17,-0.05,0.06,
3.778,-0.19,0.13,0.05,0.17,-0.05,0.06,
3.779,-0.21,0.15,0.06,0.17,-0.05,0.06,
3.779,-0.21,0.15,0.06,0.17,-0.05,0.06,
3.786,-0.21,0.15,0.06,0.18,-0.02,0.11,
3.788,-0.21,0.15,0.06,0.18,-0.02,0.11,
3.788,-0.20,0.15,0.05,0.18,-0.02,0.11,
3.789,-0.20,0.15,0.05,0.18,-0.02,0.11,
3.796,-0.20,0.15,0.05,0.18,0.00,0.15,
3.797,-0.20,0.15,0.05,0.18,0.00,0.15,
3.797,-0.20,0.17,0.04,0.18,0.00,0.15,
3.798,-0.20,0.17,0.04,0.18,0.00,0.15,
3.807,-0.20,0.17,0.04,0.18,0.02,0.18,
3.808,-0.20,0.17,0.04,0.18,0.02,0.18,
3.809,-0.13,0.17,0.02,0.18,0.02,0.18,
3.809,-0.13,0.17,0.02,0.18,0.02,0.18,
3.815,-0.13,0.17,0.02,0.17,0.03,0.18,
3.816,-0.13,0.17,0.02,0.17,0.03,0.18,
3.816,-0.02,0.18,0.01,0.17,0.03,0.18,
3.817,-0.02,0.18,0.01,0.17,0.03,0.18,
3.824,-0.02,0.18,0.01,0.16,0.03,0.17,
3.824,-0.02,0.18,0.01,0.16,0.03,0.17,
3.825,0.06,0.17,-0.01,0.16,0.03,0.17,
3.825,0.06,0.17,-0.01,0.16,0.03,0.17,
3.834,0.06,0.17,-0.01,0.13,0.02,0.14,
3.835,0.06,0.17,-0.01,0.13,0.02,0.14,
3.835,0.12,0.14,-0.04,0.13,0.02,0.14,
3.836,0.12,0.14,-0.04,0.13,0.02,0.14,
3.844,0.12,0.14,-0.04,0.13,0.02,0.14,
3.845,0.12,0.14,-0.04,0.13,0.02,0.14,
3.845,0.12,0.14,-0.04,0.13,0.02,0.14,
3.845,0.12,0.14,-0.04,0.13,0.02,0.14,
3.854,0.12,0.14,-0.04,0.11,0.01,0.09,
3.854,0.12,0.14,-0.04,0.11,0.01,0.09,
3.855,0.13,0.06,-0.15,0.11,0.01,0.09,
3.855,0.13,0.06,-0.15,0.11,0.01,0.09,
3.862,0.13,0.06,-0.15,0.07,-0.01,0.02,
3.863,0.13,0.06,-0.15,0.07,-0.01,0.02,
3.863,0.14,0.05,-0.14,0.07,-0.01,0.02,
3.864,0.14,0.05,-0.14,0.07,-0.01,0.02,
3.872,0.14,0.05,-0.14,0.03,-0.03,-0.04,
3.873,0.14,0.05,-0.14,0.03,-0.03,-0.04,
3.874,0.10,0.07,-0.12,0.03,-0.03,-0.04,
3.874,0.10,0.07,-0.12,0.03,-0.03,-0.04,
3.882,0.10,0.07,-0.12,-0.02,-0.04,-0.09,
3.883,0.10,0.07,-0.12,-0.02,-0.04,-0.09,
3.883,0.07,0.10,-0.07,-0.02,-0.04,-0.09,
3.883,0.07,0.10,-0.07,-0.02,-0.04,-0.09,
3.891,0.07,0.10,-0.07,-0.07,-0.04,-0.12,
3.893,0.07,0.10,-0.07,-0.07,-0.04,-0.12,
3.893,0.05,0.10,-0.00,-0.07,-0.04,-0.12,
3.894,0.05,0.10,-0.00,-0.07,-0.04,-0.12,
3.9,0.05,0.10,-0.00,-0.08,-0.01,-0.13,
3.901,0.05,0.10,-0.00,-0.08,-0.01,-0.13,
3.901,0.02,0.11,0.05,-0.08,-0.01,-0.13,
3.902,0.02,0.11,0.05,-0.08,-0.01,-0.13,
3.91,0.02,0.11,0.05,-0.08,0.01,-0.12,
3.911,0.02,0.11,0.05,-0.08,0.01,-0.12,
3.912,0.04,0.10,0.07,-0.08,0.01,-0.12,
3.912,0.04,0.10,0.07,-0.08,0.01,-0.12,
3.919,0.04,0.10,0.07,-0.05,0.03,-0.10,
3.92,0.04,0.10,0.07,-0.05,0.03,-0.10,
3.92,0.05,0.10,0.12,-0.05,0.03,-0.10,
3.921,0.05,0.10,0.12,-0.05,0.03,-0.10,
3.93,0.05,0.10,0.12,-0.02,0.04,-0.08,
3.931,0.05,0.10,0.12,-0.02,0.04,-0.08,
3.932,0.09,0.10,0.12,-0.02,0.04,-0.08,
3.933,0.09,0.10,0.12,-0.02,0.04,-0.08,
3.943,0.09,0.10,0.12,0.02,0.04,-0.07,
3.944,0.09,0.10,0.12,0.02,0.04,-0.07,
3.944,0.10,0.12,0.10,0.02,0.04,-0.07,
3.945,0.10,0.12,0.10,0.02,0.04,-0.07,
3.949,0.10,0.12,0.10,0.05,0.04,-0.06,
3.95,0.10,0.12,0.10,0.05,0.04,-0.06,
3.95,0.08,0.15,0.09,0.05,0.04,-0.06,
3.951,0.08,0.15,0.09,0.05,0.04,-0.06,
3.961,0.08,0.15,0.09,0.08,0.03,-0.06,
3.962,0.08,0.15,0.09,0.08,0.03,-0.06,
3.962,0.08,0.21,0.04,0.08,0.03,-0.06,
3.963,0.08,0.21,0.04,0.08,0.03,-0.06,
3.969,0.08,0.21,0.04,0.09,0.02,-0.06,
3.97,0.08,0.21,0.04,0.09,0.02,-0.06,
3.97,0.05,0.23,0.06,0.09,0.02,-0.06,
3.97,0.05,0.23,0.06,0.09,0.02,-0.06,
3.977,0.05,0.23,0.06,0.08,0.02,-0.06,
3.978,0.05,0.23,0.06,0.08,0.02,-0.06,
3.979,0.02,0.24,0.04,0.08,0.02,-0.06,
3.979,0.02,0.24,0.04,0.08,0.02,-0.06,
3.987,0.02,0.24,0.04,0.08,0.03,-0.05,
3.989,0.02,0.24,0.04,0.08,0.03,-0.05,
3.99,0.01,0.22,0.02,0.08,0.03,-0.05,
3.991,0.01,0.22,0.02,0.08,0.03,-0.05,
3.996,0.01,0.22,0.02,0.06,0.04,-0.04,
3.997,0.01,0.22,0.02,0.06,0.04,-0.04,
3.998,-0.03,0.18,0.03,0.06,0.04,-0.04,
3.999,-0.03,0.18,0.03,0.06,0.04,-0.04,
4.006,-0.03,0.18,0.03,0.05,0.05,-0.02,
4.008,-0.03,0.18,0.03,0.05,0.05,-0.02,
4.009,-0.04,0.17,0.02,0.05,0.05,-0.02,
4.01,-0.04,0.17,0.02,0.05,0.05,-0.02,
4.014,-0.04,0.17,0.02,0.04,0.06,0.00,
4.015,-0.04,0.17,0.02,0.04,0.06,0.00,
4.015,-0.07,0.16,-0.02,0.04,0.06,0.00,
4.016,-0.07,0.16,-0.02,0.04,0.06,0.00,
4.024,-0.07,0.16,-0.02,0.03,0.06,0.02,
4.025,-0.07,0.16,-0.02,0.03,0.06,0.02,
4.025,-0.10,0.17,-0.05,0.03,0.06,0.02,
4.026,-0.10,0.17,-0.05,0.03,0.06,0.02,
4.037,-0.10,0.17,-0.05,0.01,0.07,0.04,
4.037,-0.10,0.17,-0.05,0.01,0.07,0.04,
4.038,-0.09,0.18,-0.07,0.01,0.07,0.04,
4.038,-0.09,0.18,-0.07,0.01,0.07,0.04,
4.043,-0.09,0.18,-0.07,0.01,0.07,0.04,
4.044,-0.09,0.18,-0.07,0.01,0.07,0.04,
4.045,-0.09,0.18,-0.07,0.01,0.07,0.04,
4.045,-0.09,0.18,-0.07,0.01,0.07,0.04,
4.053,-0.09,0.18,-0.07,-0.00,0.08,0.06,
4.054,-0.09,0.18,-0.07,-0.00,0.08,0.06,
4.054,-0.03,0.21,-0.04,-0.00,0.08,0.06,
4.054,-0.03,0.21,-0.04,-0.00,0.08,0.06,
4.062,-0.03,0.21,-0.04,-0.02,0.07,0.08,
4.063,-0.03,0.21,-0.04,-0.02,0.07,0.08,
4.064,0.03,0.17,0.02,-0.02,0.07,0.08,
4.065,0.03,0.17,0.02,-0.02,0.07,0.08,
4.071,0.03,0.17,0.02,-0.03,0.06,0.08,
4.072,0.03,0.17,0.02,-0.03,0.06,0.08,
4.073,0.07,0.13,-0.01,-0.03,0.06,0.08,
4.073,0.07,0.13,-0.01,-0.03,0.06,0.08,
4.082,0.07,0.13,-0.01,-0.04,0.03,0.07,
4.082,0.07,0.13,-0.01,-0.04,0.03,0.07,
4.082,0.08,0.13,-0.01,-0.04,0.03,0.07,
4.083,0.08,0.13,-0.01,-0.04,0.03,0.07,
4.091,0.08,0.13,-0.01,-0.03,0.01,0.04,
4.092,0.08,0.13,-0.01,-0.03,0.01,0.04,
4.093,0.07,0.13,-0.01,-0.03,0.01,0.04,
4.093,0.07,0.13,-0.01,-0.03,0.01,0.04,
4.101,0.07,0.13,-0.01,-0.03,0.01,0.01,
4.101,0.07,0.13,-0.01,-0.03,0.01,0.01,
4.102,0.07,0.13,-0.02,-0.03,0.01,0.01,
4.102,0.07,0.13,-0.02,-0.03,0.01,0.01,
4.11,0.07,0.13,-0.02,-0.02,0.01,-0.02,
4.111,0.07,0.13,-0.02,-0.02,0.01,-0.02,
4.111,0.07,0.13,-0.02,-0.02,0.01,-0.02,
4.111,0.07,0.13,-0.02,-0.02,0.01,-0.02,
4.119,0.07,0.13,-0.02,-0.01,0.02,-0.04,
4.12,0.07,0.13,-0.02,-0.01,0.02,-0.04,
4.12,0.07,0.13,-0.02,-0.01,0.02,-0.04,
4.121,0.07,0.13,-0.02,-0.01,0.02,-0.04,
4.129,0.07,0.13,-0.02,-0.01,0.02,-0.06,
4.13,0.07,0.13,-0.02,-0.01,0.02,-0.06,
4.13,0.06,0.13,-0.02,-0.01,0.02,-0.06,
4.131,0.06,0.13,-0.02,-0.01,0.02,-0.06,
4.139,0.06,0.13,-0.02,-0.00,0.03,-0.06,
4.14,0.06,0.13,-0.02,-0.00,0.03,-0.06,
4.141,0.06,0.13,-0.02,-0.00,0.03,-0.06,
4.141,0.06,0.13,-0.02,-0.00,0.03,-0.06,
4.148,0.06,0.13,-0.02,-0.00,0.02,-0.06,
4.148,0.06,0.13,-0.02,-0.00,0.02,-0.06,
4.148,0.06,0.14,-0.02,-0.00,0.02,-0.06,
4.149,0.06,0.14,-0.02,-0.00,0.02,-0.06,
4.158,0.06,0.14,-0.02,-0.00,0.02,-0.05,
4.158,0.06,0.14,-0.02,-0.00,0.02,-0.05,
4.159,0.05,0.13,-0.02,-0.00,0.02,-0.05,
4.159,0.05,0.13,-0.02,-0.00,0.02,-0.05,
4.167,0.05,0.13,-0.02,-0.00,0.02,-0.04,
4.168,0.05,0.13,-0.02,-0.00,0.02,-0.04,
4.168,0.05,0.13,-0.03,-0.00,0.02,-0.04,
4.168,0.05,0.13,-0.03,-0.00,0.02,-0.04,
4.177,0.05,0.13,-0.03,-0.00,0.01,-0.03,
4.178,0.05,0.13,-0.03,-0.00,0.01,-0.03,
4.178,0.05,0.13,-0.03,-0.00,0.01,-0.03,
4.179,0.05,0.13,-0.03,-0.00,0.01,-0.03,
4.186,0.05,0.13,-0.03,-0.00,0.01,-0.03,
4.187,0.05,0.13,-0.03,-0.00,0.01,-0.03,
4.188,0.04,0.13,-0.03,-0.00,0.01,-0.03,
4.189,0.04,0.13,-0.03,-0.00,0.01,-0.03,
4.196,0.04,0.13,-0.03,-0.00,0.01,-0.02,
4.197,0.04,0.13,-0.03,-0.00,0.01,-0.02,
4.198,0.04,0.13,-0.03,-0.00,0.01,-0.02,
4.198,0.04,0.13,-0.03,-0.00,0.01,-0.02,
4.205,0.04,0.13,-0.03,-0.00,0.01,-0.02,
4.207,0.04,0.13,-0.03,-0.00,0.01,-0.02,
4.207,0.04,0.13,-0.03,-0.00,0.01,-0.02,
4.208,0.04,0.13,-0.03,-0.00,0.01,-0.02,
4.214,0.04,0.13,-0.03,-0.00,0.01,-0.01,
4.215,0.04,0.13,-0.03,-0.00,0.01,-0.01,
4.215,0.04,0.13,-0.03,-0.00,0.01,-0.01,
4.216,0.04,0.13,-0.03,-0.00,0.01,-0.01,
4.224,0.04,0.13,-0.03,-0.00,0.00,-0.01,
4.225,0.04,0.13,-0.03,-0.00,0.00,-0.01,
4.225,0.04,0.14,-0.03,-0.00,0.00,-0.01,
4.226,0.04,0.14,-0.03,-0.00,0.00,-0.01,
4.237,0.04,0.14,-0.03,-0.00,0.00,-0.01,
4.237,0.04,0.14,-0.03,-0.00,0.00,-0.01,
4.238,0.04,0.14,-0.03,-0.00,0.00,-0.01,
4.238,0.04,0.14,-0.03,-0.00,0.00,-0.01,
4.244,0.04,0.14,-0.03,-0.00,0.00,-0.01,
4.244,0.04,0.14,-0.03,-0.00,0.00,-0.01,
4.245,0.03,0.14,-0.03,-0.00,0.00,-0.01,
4.245,0.03,0.14,-0.03,-0.00,0.00,-0.01,
4.253,0.03,0.14,-0.03,-0.00,0.00,-0.01,
4.253,0.03,0.14,-0.03,-0.00,0.00,-0.01,
4.254,0.03,0.14,-0.03,-0.00,0.00,-0.01,
4.254,0.03,0.14,-0.03,-0.00,0.00,-0.01,
4.263,0.03,0.14,-0.03,-0.00,0.00,-0.01,
4.263,0.03,0.14,-0.03,-0.00,0.00,-0.01,
4.264,0.03,0.14,-0.03,-0.00,0.00,-0.01,
4.264,0.03,0.14,-0.03,-0.00,0.00,-0.01,
4.273,0.03,0.14,-0.03,-0.00,0.00,-0.01,
4.274,0.03,0.14,-0.03,-0.00,0.00,-0.01,
4.274,0.03,0.14,-0.03,-0.00,0.00,-0.01,
4.275,0.03,0.14,-0.03,-0.00,0.00,-0.01,
4.282,0.03,0.14,-0.03,-0.00,0.00,-0.00,
4.283,0.03,0.14,-0.03,-0.00,0.00,-0.00,
4.283,0.03,0.14,-0.03,-0.00,0.00,-0.00,
4.283,0.03,0.14,-0.03,-0.00,0.00,-0.00,
4.291,0.03,0.14,-0.03,-0.00,0.00,-0.00,
4.292,0.03,0.14,-0.03,-0.00,0.00,-0.00,
4.293,0.03,0.14,-0.03,-0.00,0.00,-0.00,
4.293,0.03,0.14,-0.03,-0.00,0.00,-0.00,
4.313,0.03,0.14,-0.03,-0.00,0.00,-0.00,
4.314,0.03,0.14,-0.03,-0.00,0.00,-0.00,
4.315,0.03,0.14,-0.03,-0.00,0.00,-0.00,
4.315,0.03,0.14,-0.03,-0.00,0.00,-0.00,
4.316,0.03,0.14,-0.03,-0.00,0.00,-0.00,
4.316,0.03,0.14,-0.03,-0.00,0.00,-0.00,
4.317,0.03,0.14,-0.03,-0.00,0.00,-0.00,
4.317,0.03,0.14,-0.02,-0.00,0.00,-0.00,
4.318,0.03,0.14,-0.02,-0.00,0.00,-0.00,
4.318,0.03,0.14,-0.02,-0.00,0.00,-0.00,
4.324,0.03,0.14,-0.02,0.00,-0.00,0.00,
4.325,0.03,0.14,-0.02,0.00,-0.00,0.00,
4.325,0.02,0.14,-0.02,0.00,-0.00,0.00,
4.326,0.02,0.14,-0.02,0.00,-0.00,0.00,
4.338,0.02,0.14,-0.02,0.00,-0.00,0.00,
4.339,0.02,0.14,-0.02,0.00,-0.00,0.00,
4.339,0.02,0.14,-0.02,0.00,-0.00,0.00,
4.34,0.02,0.14,-0.02,0.00,-0.00,0.00,
4.344,0.02,0.14,-0.02,-0.00,0.00,-0.00,
4.345,0.02,0.14,-0.02,-0.00,0.00,-0.00,
4.345,0.02,0.14,-0.02,-0.00,0.00,-0.00,
4.345,0.02,0.14,-0.02,-0.00,0.00,-0.00,
4.353,0.02,0.14,-0.02,-0.00,0.00,-0.00,
4.354,0.02,0.14,-0.02,-0.00,0.00,-0.00,
4.354,0.02,0.14,-0.02,-0.00,0.00,-0.00,
4.354,0.02,0.14,-0.02,-0.00,0.00,-0.00,
4.363,0.02,0.14,-0.02,0.00,0.00,-0.00,
4.364,0.02,0.14,-0.02,0.00,0.00,-0.00,
4.364,0.02,0.14,-0.02,0.00,0.00,-0.00,
4.364,0.02,0.14,-0.02,0.00,0.00,-0.00,
4.372,0.02,0.14,-0.02,0.00,-0.00,0.00,
4.373,0.02,0.14,-0.02,0.00,-0.00,0.00,
4.374,-0.10,0.33,0.05,0.00,-0.00,0.00,
4.374,-0.10,0.33,0.05,0.00,-0.00,0.00,
4.381,-0.10,0.33,0.05,0.00,0.00,0.00,
4.382,-0.10,0.33,0.05,0.00,0.00,0.00,
4.383,-0.15,0.32,-0.03,0.00,0.00,0.00,
4.383,-0.15,0.32,-0.03,0.00,0.00,0.00,
4.391,-0.15,0.32,-0.03,0.00,0.00,0.00,
4.393,-0.15,0.32,-0.03,0.00,0.00,0.00,
4.393,-0.19,0.30,-0.06,0.00,0.00,0.00,
4.394,-0.19,0.30,-0.06,0.00,0.00,0.00,
4.401,-0.19,0.30,-0.06,-0.00,-0.00,0.00,
4.402,-0.19,0.30,-0.06,-0.00,-0.00,0.00,
4.402,-0.20,0.26,-0.08,-0.00,-0.00,0.00,
4.403,-0.20,0.26,-0.08,-0.00,-0.00,0.00,
4.41,-0.20,0.26,-0.08,-0.00,0.00,0.00,
4.411,-0.20,0.26,-0.08,-0.00,0.00,0.00,
4.411,-0.20,0.24,-0.08,-0.00,0.00,0.00,
4.412,-0.20,0.24,-0.08,-0.00,0.00,0.00,
4.419,-0.20,0.24,-0.08,0.00,0.00,0.00,
4.42,-0.20,0.24,-0.08,0.00,0.00,0.00,
4.42,-0.19,0.24,-0.08,0.00,0.00,0.00,
4.421,-0.19,0.24,-0.08,0.00,0.00,0.00,
4.429,-0.19,0.24,-0.08,0.00,-0.00,-0.00,
4.43,-0.19,0.24,-0.08,0.00,-0.00,-0.00,
4.431,-0.18,0.24,-0.05,0.00,-0.00,-0.00,
4.431,-0.18,0.24,-0.05,0.00,-0.00,-0.00,
4.439,-0.18,0.24,-0.05,0.00,-0.00,-0.00,
4.44,-0.18,0.24,-0.05,0.00,-0.00,-0.00,
4.44,-0.17,0.27,-0.06,0.00,-0.00,-0.00,
4.441,-0.17,0.27,-0.06,0.00,-0.00,-0.00,
4.448,-0.17,0.27,-0.06,0.00,-0.00,0.00,
4.449,-0.17,0.27,-0.06,0.00,-0.00,0.00,
4.449,-0.22,0.28,-0.06,0.00,-0.00,0.00,
4.45,-0.22,0.28,-0.06,0.00,-0.00,0.00,
4.458,-0.22,0.28,-0.06,-0.00,0.00,0.00,
4.459,-0.22,0.28,-0.06,-0.00,0.00,0.00,
4.459,-0.32,0.32,-0.04,-0.00,0.00,0.00,
4.46,-0.32,0.32,-0.04,-0.00,0.00,0.00,
4.467,-0.32,0.32,-0.04,0.00,0.00,-0.00,
4.468,-0.32,0.32,-0.04,0.00,0.00,-0.00,
4.468,-0.44,0.40,-0.06,0.00,0.00,-0.00,
4.468,-0.44,0.40,-0.06,0.00,0.00,-0.00,
4.477,-0.44,0.40,-0.06,-0.01,0.13,0.15,
4.477,-0.44,0.40,-0.06,-0.01,0.13,0.15,
4.478,-0.62,0.52,-0.04,-0.01,0.13,0.15,
4.479,-0.62,0.52,-0.04,-0.01,0.13,0.15,
4.486,-0.62,0.52,-0.04,0.00,0.14,0.18,
4.487,-0.62,0.52,-0.04,0.00,0.14,0.18,
4.488,-0.84,0.64,-0.02,0.00,0.14,0.18,
4.488,-0.84,0.64,-0.02,0.00,0.14,0.18,
4.496,-0.84,0.64,-0.02,0.02,0.16,0.25,
4.496,-0.84,0.64,-0.02,0.02,0.16,0.25,
4.497,-1.05,0.73,-0.00,0.02,0.16,0.25,
4.498,-1.05,0.73,-0.00,0.02,0.16,0.25,
4.505,-1.05,0.73,-0.00,0.04,0.20,0.35,
4.507,-1.05,0.73,-0.00,0.04,0.20,0.35,
4.507,-1.22,0.73,0.04,0.04,0.20,0.35,
4.508,-1.22,0.73,0.04,0.04,0.20,0.35,
4.514,-1.22,0.73,0.04,0.06,0.26,0.48,
4.515,-1.22,0.73,0.04,0.06,0.26,0.48,
4.524,-1.36,0.67,-0.01,0.06,0.26,0.48,
4.525,-1.36,0.67,-0.01,0.06,0.26,0.48,
4.526,-1.36,0.67,-0.01,0.09,0.32,0.62,
4.526,-1.36,0.67,-0.01,0.09,0.32,0.62,
4.527,-1.39,0.57,-0.16,0.09,0.32,0.62,
4.528,-1.39,0.57,-0.16,0.09,0.32,0.62,
4.537,-1.39,0.57,-0.16,0.10,0.37,0.75,
4.538,-1.39,0.57,-0.16,0.10,0.37,0.75,
4.539,-1.32,0.44,-0.38,0.10,0.37,0.75,
4.54,-1.32,0.44,-0.38,0.10,0.37,0.75,
4.544,-1.32,0.44,-0.38,0.09,0.41,0.85,
4.545,-1.32,0.44,-0.38,0.09,0.41,0.85,
4.546,-1.19,0.32,-0.67,0.09,0.41,0.85,
4.546,-1.19,0.32,-0.67,0.09,0.41,0.85,
4.553,-1.19,0.32,-0.67,0.09,0.41,0.85,
4.554,-1.19,0.32,-0.67,0.09,0.41,0.85,
4.554,-1.19,0.32,-0.67,0.09,0.41,0.85,
4.554,-1.19,0.32,-0.67,0.09,0.41,0.85,
4.563,-1.19,0.32,-0.67,0.02,0.42,0.89,
4.563,-1.19,0.32,-0.67,0.02,0.42,0.89,
4.564,-0.75,0.14,-1.08,0.02,0.42,0.89,
4.565,-0.75,0.14,-1.08,0.02,0.42,0.89,
4.572,-0.75,0.14,-1.08,-0.12,0.40,0.85,
4.573,-0.75,0.14,-1.08,-0.12,0.40,0.85,
4.574,-0.55,0.04,-1.20,-0.12,0.40,0.85,
4.575,-0.55,0.04,-1.20,-0.12,0.40,0.85,
4.582,-0.55,0.04,-1.20,-0.32,0.34,0.73,
4.583,-0.55,0.04,-1.20,-0.32,0.34,0.73,
4.583,-0.43,-0.05,-1.28,-0.32,0.34,0.73,
4.584,-0.43,-0.05,-1.28,-0.32,0.34,0.73,
4.591,-0.43,-0.05,-1.28,-0.55,0.27,0.53,
4.592,-0.43,-0.05,-1.28,-0.55,0.27,0.53,
4.593,-0.39,-0.15,-1.35,-0.55,0.27,0.53,
4.593,-0.39,-0.15,-1.35,-0.55,0.27,0.53,
4.601,-0.39,-0.15,-1.35,-0.76,0.17,0.30,
4.602,-0.39,-0.15,-1.35,-0.76,0.17,0.30,
4.603,-0.41,-0.20,-1.38,-0.76,0.17,0.30,
4.604,-0.41,-0.20,-1.38,-0.76,0.17,0.30,
4.61,-0.41,-0.20,-1.38,-0.91,0.09,0.08,
4.611,-0.41,-0.20,-1.38,-0.91,0.09,0.08,
4.612,-0.43,-0.14,-1.37,-0.91,0.09,0.08,
4.613,-0.43,-0.14,-1.37,-0.91,0.09,0.08,
4.619,-0.43,-0.14,-1.37,-1.00,0.02,-0.08,
4.621,-0.43,-0.14,-1.37,-1.00,0.02,-0.08,
4.622,-0.44,0.02,-1.37,-1.00,0.02,-0.08,
4.623,-0.44,0.02,-1.37,-1.00,0.02,-0.08,
4.629,-0.44,0.02,-1.37,-1.03,-0.02,-0.18,
4.63,-0.44,0.02,-1.37,-1.03,-0.02,-0.18,
4.631,-0.38,0.20,-1.39,-1.03,-0.02,-0.18,
4.632,-0.38,0.20,-1.39,-1.03,-0.02,-0.18,
4.643,-0.38,0.20,-1.39,-1.02,-0.04,-0.24,
4.644,-0.38,0.20,-1.39,-1.02,-0.04,-0.24,
4.644,-0.29,0.36,-1.45,-1.02,-0.04,-0.24,
4.645,-0.29,0.36,-1.45,-1.02,-0.04,-0.24,
4.649,-0.29,0.36,-1.45,-0.98,-0.04,-0.26,
4.649,-0.29,0.36,-1.45,-0.98,-0.04,-0.26,
4.65,-0.16,0.48,-1.58,-0.98,-0.04,-0.26,
4.65,-0.16,0.48,-1.58,-0.98,-0.04,-0.26,
4.658,-0.16,0.48,-1.58,-0.92,-0.04,-0.27,
4.659,-0.16,0.48,-1.58,-0.92,-0.04,-0.27,
4.659,-0.01,0.47,-1.72,-0.92,-0.04,-0.27,
4.66,-0.01,0.47,-1.72,-0.92,-0.04,-0.27,
4.667,-0.01,0.47,-1.72,-0.88,-0.03,-0.28,
4.668,-0.01,0.47,-1.72,-0.88,-0.03,-0.28,
4.669,0.09,0.41,-1.89,-0.88,-0.03,-0.28,
4.669,0.09,0.41,-1.89,-0.88,-0.03,-0.28,
4.677,0.09,0.41,-1.89,-0.86,-0.02,-0.32,
4.678,0.09,0.41,-1.89,-0.86,-0.02,-0.32,
4.679,0.18,0.31,-2.09,-0.86,-0.02,-0.32,
4.679,0.18,0.31,-2.09,-0.86,-0.02,-0.32,
4.687,0.18,0.31,-2.09,-0.88,-0.02,-0.37,
4.688,0.18,0.31,-2.09,-0.88,-0.02,-0.37,
4.689,0.22,0.17,-2.28,-0.88,-0.02,-0.37,
4.69,0.22,0.17,-2.28,-0.88,-0.02,-0.37,
4.696,0.22,0.17,-2.28,-0.93,-0.02,-0.42,
4.697,0.22,0.17,-2.28,-0.93,-0.02,-0.42,
4.698,0.27,0.07,-2.52,-0.93,-0.02,-0.42,
4.699,0.27,0.07,-2.52,-0.93,-0.02,-0.42,
4.706,0.27,0.07,-2.52,-1.00,-0.01,-0.47,
4.708,0.27,0.07,-2.52,-1.00,-0.01,-0.47,
4.709,0.37,0.01,-2.74,-1.00,-0.01,-0.47,
4.71,0.37,0.01,-2.74,-1.00,-0.01,-0.47,
4.714,0.37,0.01,-2.74,-1.09,0.00,-0.51,
4.715,0.37,0.01,-2.74,-1.09,0.00,-0.51,
4.716,0.54,0.01,-2.97,-1.09,0.00,-0.51,
4.716,0.54,0.01,-2.97,-1.09,0.00,-0.51,
4.724,0.54,0.01,-2.97,-1.20,0.02,-0.55,
4.725,0.54,0.01,-2.97,-1.20,0.02,-0.55,
4.725,0.80,0.03,-3.20,-1.20,0.02,-0.55,
4.726,0.80,0.03,-3.20,-1.20,0.02,-0.55,
4.737,0.80,0.03,-3.20,-1.33,0.04,-0.59,
4.738,0.80,0.03,-3.20,-1.33,0.04,-0.59,
4.739,1.09,0.07,-3.39,-1.33,0.04,-0.59,
4.739,1.09,0.07,-3.39,-1.33,0.04,-0.59,
4.747,1.09,0.07,-3.39,-1.46,0.04,-0.65,
4.747,1.09,0.07,-3.39,-1.46,0.04,-0.65,
4.748,1.29,0.08,-3.56,-1.46,0.04,-0.65,
4.748,1.29,0.08,-3.56,-1.46,0.04,-0.65,
4.753,1.29,0.08,-3.56,-1.46,0.04,-0.65,
4.754,1.29,0.08,-3.56,-1.46,0.04,-0.65,
4.759,1.29,0.08,-3.56,-1.46,0.04,-0.65,
4.759,1.29,0.08,-3.56,-1.46,0.04,-0.65,
4.763,1.29,0.08,-3.56,-1.59,0.03,-0.75,
4.764,1.29,0.08,-3.56,-1.59,0.03,-0.75,
4.764,1.42,0.12,-3.61,-1.59,0.03,-0.75,
4.765,1.42,0.12,-3.61,-1.59,0.03,-0.75,
4.773,1.42,0.12,-3.61,-1.70,-0.01,-0.88,
4.774,1.42,0.12,-3.61,-1.70,-0.01,-0.88,
4.774,1.38,0.11,-3.50,-1.70,-0.01,-0.88,
4.775,1.38,0.11,-3.50,-1.70,-0.01,-0.88,
4.781,1.38,0.11,-3.50,-1.77,-0.06,-0.99,
4.782,1.38,0.11,-3.50,-1.77,-0.06,-0.99,
4.782,1.43,0.08,-3.35,-1.77,-0.06,-0.99,
4.783,1.43,0.08,-3.35,-1.77,-0.06,-0.99,
4.791,1.43,0.08,-3.35,-1.77,-0.10,-1.07,
4.792,1.43,0.08,-3.35,-1.77,-0.10,-1.07,
4.793,1.58,0.08,-3.24,-1.77,-0.10,-1.07,
4.793,1.58,0.08,-3.24,-1.77,-0.10,-1.07,
4.801,1.58,0.08,-3.24,-1.71,-0.14,-1.11,
4.802,1.58,0.08,-3.24,-1.71,-0.14,-1.11,
4.802,1.78,0.16,-3.28,-1.71,-0.14,-1.11,
4.803,1.78,0.16,-3.28,-1.71,-0.14,-1.11,
4.81,1.78,0.16,-3.28,-1.60,-0.16,-1.12,
4.811,1.78,0.16,-3.28,-1.60,-0.16,-1.12,
4.812,1.96,0.39,-3.46,-1.60,-0.16,-1.12,
4.813,1.96,0.39,-3.46,-1.60,-0.16,-1.12,
4.819,1.96,0.39,-3.46,-1.47,-0.17,-1.12,
4.821,1.96,0.39,-3.46,-1.47,-0.17,-1.12,
4.822,1.98,0.75,-3.72,-1.47,-0.17,-1.12,
4.823,1.98,0.75,-3.72,-1.47,-0.17,-1.12,
4.829,1.98,0.75,-3.72,-1.37,-0.18,-1.14,
4.83,1.98,0.75,-3.72,-1.37,-0.18,-1.14,
4.831,1.78,1.17,-3.99,-1.37,-0.18,-1.14,
4.832,1.78,1.17,-3.99,-1.37,-0.18,-1.14,
4.843,1.78,1.17,-3.99,-1.35,-0.20,-1.16,
4.844,1.78,1.17,-3.99,-1.35,-0.20,-1.16,
4.844,1.35,1.58,-4.05,-1.35,-0.20,-1.16,
4.845,1.35,1.58,-4.05,-1.35,-0.20,-1.16,
4.848,1.35,1.58,-4.05,-1.41,-0.23,-1.14,
4.849,1.35,1.58,-4.05,-1.41,-0.23,-1.14,
4.849,0.81,1.91,-3.87,-1.41,-0.23,-1.14,
4.85,0.81,1.91,-3.87,-1.41,-0.23,-1.14,
4.86,0.81,1.91,-3.87,-1.52,-0.26,-1.02,
4.861,0.81,1.91,-3.87,-1.52,-0.26,-1.02,
4.861,0.25,2.11,-3.42,-1.52,-0.26,-1.02,
4.861,0.25,2.11,-3.42,-1.52,-0.26,-1.02,
4.867,0.25,2.11,-3.42,-1.63,-0.28,-0.77,
4.868,0.25,2.11,-3.42,-1.63,-0.28,-0.77,
4.868,-0.23,2.19,-2.88,-1.63,-0.28,-0.77,
4.869,-0.23,2.19,-2.88,-1.63,-0.28,-0.77,
4.877,-0.23,2.19,-2.88,-1.65,-0.29,-0.38,
4.879,-0.23,2.19,-2.88,-1.65,-0.29,-0.38,
4.879,-0.42,2.21,-2.44,-1.65,-0.29,-0.38,
4.88,-0.42,2.21,-2.44,-1.65,-0.29,-0.38,
4.886,-0.42,2.21,-2.44,-1.56,-0.27,0.09,
4.888,-0.42,2.21,-2.44,-1.56,-0.27,0.09,
4.889,-0.28,2.18,-2.21,-1.56,-0.27,0.09,
4.89,-0.28,2.18,-2.21,-1.56,-0.27,0.09,
4.895,-0.28,2.18,-2.21,-1.33,-0.24,0.56,
4.896,-0.28,2.18,-2.21,-1.33,-0.24,0.56,
4.897,0.22,2.15,-2.25,-1.33,-0.24,0.56,
4.897,0.22,2.15,-2.25,-1.33,-0.24,0.56,
4.905,0.22,2.15,-2.25,-1.05,-0.19,0.93,
4.906,0.22,2.15,-2.25,-1.05,-0.19,0.93,
4.907,1.88,2.14,-2.43,-1.05,-0.19,0.93,
4.907,1.88,2.14,-2.43,-1.05,-0.19,0.93,
4.914,1.88,2.14,-2.43,-0.79,-0.12,1.07,
4.915,1.88,2.14,-2.43,-0.79,-0.12,1.07,
4.915,1.98,2.14,-2.64,-0.79,-0.12,1.07,
4.916,1.98,2.14,-2.64,-0.79,-0.12,1.07,
4.924,1.98,2.14,-2.64,-0.63,-0.04,0.86,
4.925,1.98,2.14,-2.64,-0.63,-0.04,0.86,
4.926,2.10,2.21,-2.81,-0.63,-0.04,0.86,
4.926,2.10,2.21,-2.81,-0.63,-0.04,0.86,
4.938,2.10,2.21,-2.81,-0.59,-0.01,0.38,
4.939,2.10,2.21,-2.81,-0.59,-0.01,0.38,
4.939,2.11,2.33,-2.90,-0.59,-0.01,0.38,
4.94,2.11,2.33,-2.90,-0.59,-0.01,0.38,
4.944,2.11,2.33,-2.90,-0.59,-0.01,0.38,
4.945,2.11,2.33,-2.90,-0.59,-0.01,0.38,
4.945,2.11,2.33,-2.90,-0.59,-0.01,0.38,
4.946,2.11,2.33,-2.90,-0.59,-0.01,0.38,
4.953,2.11,2.33,-2.90,-0.67,0.03,-0.19,
4.954,2.11,2.33,-2.90,-0.67,0.03,-0.19,
4.954,2.14,2.52,-3.21,-0.67,0.03,-0.19,
4.955,2.14,2.52,-3.21,-0.67,0.03,-0.19,
4.963,2.14,2.52,-3.21,-0.83,0.15,-0.66,
4.963,2.14,2.52,-3.21,-0.83,0.15,-0.66,
4.964,2.22,2.50,-3.36,-0.83,0.15,-0.66,
4.965,2.22,2.50,-3.36,-0.83,0.15,-0.66,
4.972,2.22,2.50,-3.36,-1.04,0.24,-0.99,
4.974,2.22,2.50,-3.36,-1.04,0.24,-0.99,
4.974,2.36,2.37,-3.68,-1.04,0.24,-0.99,
4.975,2.36,2.37,-3.68,-1.04,0.24,-0.99,
4.983,2.36,2.37,-3.68,-1.29,0.31,-1.21,
4.983,2.36,2.37,-3.68,-1.29,0.31,-1.21,
4.984,2.53,2.17,-4.13,-1.29,0.31,-1.21,
4.984,2.53,2.17,-4.13,-1.29,0.31,-1.21,
4.991,2.53,2.17,-4.13,-1.56,0.36,-1.35,
4.992,2.53,2.17,-4.13,-1.56,0.36,-1.35,
4.998,2.69,1.99,-4.61,-1.56,0.36,-1.35,
4.999,2.69,1.99,-4.61,-1.56,0.36,-1.35,
5.0,2.69,1.99,-4.61,-1.84,0.41,-1.45,
5.001,2.69,1.99,-4.61,-1.84,0.41,-1.45,
5.002,2.73,1.85,-4.93,-1.84,0.41,-1.45,
5.003,2.73,1.85,-4.93,-1.84,0.41,-1.45,
5.01,2.73,1.85,-4.93,-2.10,0.45,-1.51,
5.011,2.73,1.85,-4.93,-2.10,0.45,-1.51,
5.012,2.56,1.83,-5.00,-2.10,0.45,-1.51,
5.012,2.56,1.83,-5.00,-2.10,0.45,-1.51,
5.019,2.56,1.83,-5.00,-2.34,0.47,-1.53,
5.021,2.56,1.83,-5.00,-2.34,0.47,-1.53,
5.021,2.15,1.91,-4.86,-2.34,0.47,-1.53,
5.021,2.15,1.91,-4.86,-2.34,0.47,-1.53,
5.029,2.15,1.91,-4.86,-2.49,0.45,-1.48,
5.029,2.15,1.91,-4.86,-2.49,0.45,-1.48,
5.03,1.56,2.09,-4.57,-2.49,0.45,-1.48,
5.03,1.56,2.09,-4.57,-2.49,0.45,-1.48,
5.038,1.56,2.09,-4.57,-2.55,0.40,-1.32,
5.039,1.56,2.09,-4.57,-2.55,0.40,-1.32,
5.04,0.89,2.34,-4.31,-2.55,0.40,-1.32,
5.04,0.89,2.34,-4.31,-2.55,0.40,-1.32,
5.051,0.89,2.34,-4.31,-2.52,0.34,-1.05,
5.052,0.89,2.34,-4.31,-2.52,0.34,-1.05,
5.052,0.30,2.60,-4.01,-2.52,0.34,-1.05,
5.053,0.30,2.60,-4.01,-2.52,0.34,-1.05,
5.058,0.30,2.60,-4.01,-2.41,0.30,-0.90,
5.059,0.30,2.60,-4.01,-2.41,0.30,-0.90,
5.059,-0.04,2.84,-3.67,-2.41,0.30,-0.90,
5.059,-0.04,2.84,-3.67,-2.41,0.30,-0.90,
5.067,-0.04,2.84,-3.67,-2.27,0.30,-0.64,
5.068,-0.04,2.84,-3.67,-2.27,0.30,-0.64,
5.068,-0.11,3.04,-3.39,-2.27,0.30,-0.64,
5.068,-0.11,3.04,-3.39,-2.27,0.30,-0.64,
5.077,-0.11,3.04,-3.39,-2.11,0.21,-0.10,
5.078,-0.11,3.04,-3.39,-2.11,0.21,-0.10,
5.078,0.07,3.18,-3.19,-2.11,0.21,-0.10,
5.079,0.07,3.18,-3.19,-2.11,0.21,-0.10,
5.086,0.07,3.18,-3.19,-1.94,0.03,0.34,
5.088,0.07,3.18,-3.19,-1.94,0.03,0.34,
5.089,0.35,3.24,-3.10,-1.94,0.03,0.34,
5.089,0.35,3.24,-3.10,-1.94,0.03,0.34,
5.095,0.35,3.24,-3.10,-1.77,-0.10,0.62,
5.096,0.35,3.24,-3.10,-1.77,-0.10,0.62,
5.097,0.40,3.20,-3.11,-1.77,-0.10,0.62,
5.098,0.40,3.20,-3.11,-1.77,-0.10,0.62,
5.106,0.40,3.20,-3.11,-1.63,-0.18,0.71,
5.107,0.40,3.20,-3.11,-1.63,-0.18,0.71,
5.107,0.21,3.03,-3.17,-1.63,-0.18,0.71,
5.108,0.21,3.03,-3.17,-1.63,-0.18,0.71,
5.115,0.21,3.03,-3.17,-1.51,-0.22,0.67,
5.116,0.21,3.03,-3.17,-1.51,-0.22,0.67,
5.116,-0.04,2.83,-3.09,-1.51,-0.22,0.67,
5.117,-0.04,2.83,-3.09,-1.51,-0.22,0.67,
5.124,-0.04,2.83,-3.09,-1.41,-0.23,0.59,
5.125,-0.04,2.83,-3.09,-1.41,-0.23,0.59,
5.125,-0.14,2.62,-2.92,-1.41,-0.23,0.59,
5.126,-0.14,2.62,-2.92,-1.41,-0.23,0.59,
5.136,-0.14,2.62,-2.92,-1.41,-0.23,0.59,
5.136,-0.14,2.62,-2.92,-1.41,-0.23,0.59,
5.137,-0.14,2.62,-2.92,-1.31,-0.23,0.52,
5.137,0.31,2.50,-2.91,-1.31,-0.23,0.52,
5.143,0.31,2.50,-2.91,-1.21,-0.23,0.49,
5.144,0.31,2.50,-2.91,-1.21,-0.23,0.49,
5.144,0.55,2.47,-2.81,-1.21,-0.23,0.49,
5.145,0.55,2.47,-2.81,-1.21,-0.23,0.49,
5.154,0.55,2.47,-2.81,-1.21,-0.23,0.49,
5.155,0.55,2.47,-2.81,-1.21,-0.23,0.49,
5.155,0.55,2.47,-2.81,-1.21,-0.23,0.49,
5.156,0.55,2.47,-2.81,-1.21,-0.23,0.49,
5.163,0.55,2.47,-2.81,-1.09,-0.21,0.42,
5.164,0.55,2.47,-2.81,-1.09,-0.21,0.42,
5.164,1.43,2.71,-3.01,-1.09,-0.21,0.42,
5.164,1.43,2.71,-3.01,-1.09,-0.21,0.42,
5.172,1.43,2.71,-3.01,-1.00,-0.14,0.25,
5.174,1.43,2.71,-3.01,-1.00,-0.14,0.25,
5.174,1.47,2.82,-2.94,-1.00,-0.14,0.25,
5.174,1.47,2.82,-2.94,-1.00,-0.14,0.25,
5.181,1.47,2.82,-2.94,-0.96,-0.01,-0.03,
5.181,1.47,2.82,-2.94,-0.96,-0.01,-0.03,
5.182,1.21,2.90,-2.81,-0.96,-0.01,-0.03,
5.182,1.21,2.90,-2.81,-0.96,-0.01,-0.03,
5.191,1.21,2.90,-2.81,-0.99,0.15,-0.37,
5.192,1.21,2.90,-2.81,-0.99,0.15,-0.37,
5.193,0.68,2.91,-2.71,-0.99,0.15,-0.37,
5.193,0.68,2.91,-2.71,-0.99,0.15,-0.37,
5.2,0.68,2.91,-2.71,-1.05,0.27,-0.65,
5.201,0.68,2.91,-2.71,-1.05,0.27,-0.65,
5.201,0.11,2.91,-2.66,-1.05,0.27,-0.65,
5.201,0.11,2.91,-2.66,-1.05,0.27,-0.65,
5.21,0.11,2.91,-2.66,-1.11,0.32,-0.78,
5.211,0.11,2.91,-2.66,-1.11,0.32,-0.78,
5.211,-0.35,2.89,-2.65,-1.11,0.32,-0.78,
5.212,-0.35,2.89,-2.65,-1.11,0.32,-0.78,
5.219,-0.35,2.89,-2.65,-1.16,0.26,-0.72,
5.22,-0.35,2.89,-2.65,-1.16,0.26,-0.72,
5.221,-0.61,2.90,-2.71,-1.16,0.26,-0.72,
5.222,-0.61,2.90,-2.71,-1.16,0.26,-0.72,
5.229,-0.61,2.90,-2.71,-1.20,0.11,-0.53,
5.23,-0.61,2.90,-2.71,-1.20,0.11,-0.53,
5.238,-0.71,2.94,-2.77,-1.20,0.11,-0.53,
5.239,-0.71,2.94,-2.77,-1.20,0.11,-0.53,
5.24,-0.71,2.94,-2.77,-1.24,-0.07,-0.26,
5.241,-0.71,2.94,-2.77,-1.24,-0.07,-0.26,
5.242,-0.71,2.98,-2.84,-1.24,-0.07,-0.26,
5.243,-0.71,2.98,-2.84,-1.24,-0.07,-0.26,
5.251,-0.71,2.98,-2.84,-1.31,-0.23,0.00,
5.252,-0.71,2.98,-2.84,-1.31,-0.23,0.00,
5.252,-0.70,3.01,-2.81,-1.31,-0.23,0.00,
5.252,-0.70,3.01,-2.81,-1.31,-0.23,0.00,
5.258,-0.70,3.01,-2.81,-1.38,-0.36,0.20,
5.258,-0.70,3.01,-2.81,-1.38,-0.36,0.20,
5.259,-0.71,3.01,-2.73,-1.38,-0.36,0.20,
5.259,-0.71,3.01,-2.73,-1.38,-0.36,0.20,
5.267,-0.71,3.01,-2.73,-1.46,-0.44,0.33,
5.268,-0.71,3.01,-2.73,-1.46,-0.44,0.33,
5.268,-0.68,2.98,-2.62,-1.46,-0.44,0.33,
5.268,-0.68,2.98,-2.62,-1.46,-0.44,0.33,
5.277,-0.68,2.98,-2.62,-1.52,-0.47,0.40,
5.278,-0.68,2.98,-2.62,-1.52,-0.47,0.40,
5.278,-0.55,3.00,-2.51,-1.52,-0.47,0.40,
5.278,-0.55,3.00,-2.51,-1.52,-0.47,0.40,
5.286,-0.55,3.00,-2.51,-1.55,-0.47,0.43,
5.287,-0.55,3.00,-2.51,-1.55,-0.47,0.43,
5.287,-0.32,3.09,-2.44,-1.55,-0.47,0.43,
5.288,-0.32,3.09,-2.44,-1.55,-0.47,0.43,
5.309,-0.32,3.09,-2.44,-1.55,-0.43,0.42,
5.31,-0.32,3.09,-2.44,-1.55,-0.43,0.42,
5.311,-0.03,3.24,-2.38,-1.55,-0.43,0.42,
5.311,-0.03,3.24,-2.38,-1.55,-0.43,0.42,
5.312,-0.03,3.24,-2.38,-1.54,-0.35,0.35,
5.313,-0.03,3.24,-2.38,-1.54,-0.35,0.35,
5.313,-0.03,3.24,-2.38,-1.54,-0.35,0.35,
5.314,0.29,3.37,-2.34,-1.54,-0.35,0.35,
5.315,0.29,3.37,-2.34,-1.54,-0.35,0.35,
5.315,0.29,3.37,-2.34,-1.54,-0.35,0.35,
5.32,0.29,3.37,-2.34,-1.54,-0.24,0.23,
5.321,0.29,3.37,-2.34,-1.54,-0.24,0.23,
5.322,0.54,3.44,-2.33,-1.54,-0.24,0.23,
5.323,0.54,3.44,-2.33,-1.54,-0.24,0.23,
5.329,0.54,3.44,-2.33,-1.56,-0.10,0.06,
5.329,0.54,3.44,-2.33,-1.56,-0.10,0.06,
5.33,0.57,3.32,-2.26,-1.56,-0.10,0.06,
5.33,0.57,3.32,-2.26,-1.56,-0.10,0.06,
5.338,0.57,3.32,-2.26,-1.59,0.07,-0.14,
5.339,0.57,3.32,-2.26,-1.59,0.07,-0.14,
5.34,0.56,3.16,-2.18,-1.59,0.07,-0.14,
5.34,0.56,3.16,-2.18,-1.59,0.07,-0.14,
5.351,0.56,3.16,-2.18,-1.60,0.22,-0.31,
5.352,0.56,3.16,-2.18,-1.60,0.22,-0.31,
5.352,0.58,3.03,-2.07,-1.60,0.22,-0.31,
5.353,0.58,3.03,-2.07,-1.60,0.22,-0.31,
5.357,0.58,3.03,-2.07,-1.57,0.34,-0.44,
5.358,0.58,3.03,-2.07,-1.57,0.34,-0.44,
5.359,0.64,2.91,-1.90,-1.57,0.34,-0.44,
5.359,0.64,2.91,-1.90,-1.57,0.34,-0.44,
5.368,0.64,2.91,-1.90,-1.49,0.41,-0.51,
5.369,0.64,2.91,-1.90,-1.49,0.41,-0.51,
5.369,0.73,2.81,-1.79,-1.49,0.41,-0.51,
5.369,0.73,2.81,-1.79,-1.49,0.41,-0.51,
5.377,0.73,2.81,-1.79,-1.37,0.44,-0.53,
5.378,0.73,2.81,-1.79,-1.37,0.44,-0.53,
5.379,0.81,2.73,-1.70,-1.37,0.44,-0.53,
5.379,0.81,2.73,-1.70,-1.37,0.44,-0.53,
5.387,0.81,2.73,-1.70,-1.24,0.47,-0.52,
5.388,0.81,2.73,-1.70,-1.24,0.47,-0.52,
5.389,0.88,2.60,-1.66,-1.24,0.47,-0.52,
5.389,0.88,2.60,-1.66,-1.24,0.47,-0.52,
5.395,0.88,2.60,-1.66,-1.10,0.51,-0.48,
5.396,0.88,2.60,-1.66,-1.10,0.51,-0.48,
5.397,0.93,2.42,-1.66,-1.10,0.51,-0.48,
5.398,0.93,2.42,-1.66,-1.10,0.51,-0.48,
5.405,0.93,2.42,-1.66,-0.98,0.55,-0.43,
5.407,0.93,2.42,-1.66,-0.98,0.55,-0.43,
5.407,1.00,2.27,-1.66,-0.98,0.55,-0.43,
5.408,1.00,2.27,-1.66,-0.98,0.55,-0.43,
5.416,1.00,2.27,-1.66,-0.87,0.58,-0.37,
5.418,1.00,2.27,-1.66,-0.87,0.58,-0.37,
5.418,1.07,2.17,-1.69,-0.87,0.58,-0.37,
5.419,1.07,2.17,-1.69,-0.87,0.58,-0.37,
5.424,1.07,2.17,-1.69,-0.77,0.60,-0.32,
5.425,1.07,2.17,-1.69,-0.77,0.60,-0.32,
5.426,1.13,2.17,-1.70,-0.77,0.60,-0.32,
5.426,1.13,2.17,-1.70,-0.77,0.60,-0.32,
5.434,1.13,2.17,-1.70,-0.69,0.61,-0.28,
5.435,1.13,2.17,-1.70,-0.69,0.61,-0.28,
5.435,1.20,2.29,-1.73,-0.69,0.61,-0.28,
5.436,1.20,2.29,-1.73,-0.69,0.61,-0.28,
5.444,1.20,2.29,-1.73,-0.69,0.61,-0.28,
5.445,1.20,2.29,-1.73,-0.69,0.61,-0.28,
5.445,1.20,2.29,-1.73,-0.69,0.61,-0.28,
5.446,1.20,2.29,-1.73,-0.69,0.61,-0.28,
5.459,1.20,2.29,-1.73,-0.64,0.63,-0.24,
5.461,1.20,2.29,-1.73,-0.64,0.63,-0.24,
5.461,1.25,2.80,-1.83,-0.64,0.63,-0.24,
5.461,1.25,2.80,-1.83,-0.64,0.63,-0.24,
5.463,1.25,2.80,-1.83,-0.65,0.64,-0.23,
5.463,1.25,2.80,-1.83,-0.65,0.64,-0.23,
5.463,1.21,2.99,-1.89,-0.65,0.64,-0.23,
5.464,1.21,2.99,-1.89,-0.65,0.64,-0.23,
5.473,1.21,2.99,-1.89,-0.73,0.64,-0.23,
5.475,1.21,2.99,-1.89,-0.73,0.64,-0.23,
5.476,1.17,3.15,-1.92,-0.73,0.64,-0.23,
5.477,1.17,3.15,-1.92,-0.73,0.64,-0.23,
5.481,1.17,3.15,-1.92,-0.91,0.64,-0.24,
5.482,1.17,3.15,-1.92,-0.91,0.64,-0.24,
5.482,1.15,3.24,-1.88,-0.91,0.64,-0.24,
5.483,1.15,3.24,-1.88,-0.91,0.64,-0.24,
5.491,1.15,3.24,-1.88,-1.12,0.62,-0.24,
5.493,1.15,3.24,-1.88,-1.12,0.62,-0.24,
5.493,1.17,3.34,-1.76,-1.12,0.62,-0.24,
5.494,1.17,3.34,-1.76,-1.12,0.62,-0.24,
5.5,1.17,3.34,-1.76,-1.32,0.58,-0.23,
5.501,1.17,3.34,-1.76,-1.32,0.58,-0.23,
5.501,1.25,3.46,-1.64,-1.32,0.58,-0.23,
5.501,1.25,3.46,-1.64,-1.32,0.58,-0.23,
5.51,1.25,3.46,-1.64,-1.49,0.53,-0.22,
5.511,1.25,3.46,-1.64,-1.49,0.53,-0.22,
5.511,1.44,3.60,-1.56,-1.49,0.53,-0.22,
5.512,1.44,3.60,-1.56,-1.49,0.53,-0.22,
5.519,1.44,3.60,-1.56,-1.61,0.50,-0.22,
5.52,1.44,3.60,-1.56,-1.61,0.50,-0.22,
5.521,1.68,3.76,-1.59,-1.61,0.50,-0.22,
5.521,1.68,3.76,-1.59,-1.61,0.50,-0.22,
5.529,1.68,3.76,-1.59,-1.70,0.50,-0.22,
5.53,1.68,3.76,-1.59,-1.70,0.50,-0.22,
5.531,1.96,3.89,-1.70,-1.70,0.50,-0.22,
5.531,1.96,3.89,-1.70,-1.70,0.50,-0.22,
5.538,1.96,3.89,-1.70,-1.78,0.54,-0.25,
5.539,1.96,3.89,-1.70,-1.78,0.54,-0.25,
5.54,2.24,3.97,-1.74,-1.78,0.54,-0.25,
5.54,2.24,3.97,-1.74,-1.78,0.54,-0.25,
5.554,2.24,3.97,-1.74,-1.86,0.62,-0.32,
5.555,2.24,3.97,-1.74,-1.86,0.62,-0.32,
5.555,2.41,3.99,-1.61,-1.86,0.62,-0.32,
5.556,2.41,3.99,-1.61,-1.86,0.62,-0.32,
5.557,2.41,3.99,-1.61,-1.91,0.74,-0.39,
5.558,2.41,3.99,-1.61,-1.91,0.74,-0.39,
5.558,2.56,3.94,-1.38,-1.91,0.74,-0.39,
5.559,2.56,3.94,-1.38,-1.91,0.74,-0.39,
5.567,2.56,3.94,-1.38,-1.94,0.88,-0.45,
5.568,2.56,3.94,-1.38,-1.94,0.88,-0.45,
5.568,2.68,3.82,-1.18,-1.94,0.88,-0.45,
5.568,2.68,3.82,-1.18,-1.94,0.88,-0.45,
5.576,2.68,3.82,-1.18,-1.92,1.02,-0.50,
5.577,2.68,3.82,-1.18,-1.92,1.02,-0.50,
5.577,2.74,3.60,-1.09,-1.92,1.02,-0.50,
5.578,2.74,3.60,-1.09,-1.92,1.02,-0.50,
5.586,2.74,3.60,-1.09,-1.83,1.14,-0.55,
5.587,2.74,3.60,-1.09,-1.83,1.14,-0.55,
5.588,2.81,3.33,-1.11,-1.83,1.14,-0.55,
5.588,2.81,3.33,-1.11,-1.83,1.14,-0.55,
5.595,2.81,3.33,-1.11,-1.69,1.24,-0.58,
5.596,2.81,3.33,-1.11,-1.69,1.24,-0.58,
5.597,2.85,3.04,-1.16,-1.69,1.24,-0.58,
5.597,2.85,3.04,-1.16,-1.69,1.24,-0.58,
5.606,2.85,3.04,-1.16,-1.50,1.31,-0.55,
5.608,2.85,3.04,-1.16,-1.50,1.31,-0.55,
5.609,2.84,2.82,-1.07,-1.50,1.31,-0.55,
5.609,2.84,2.82,-1.07,-1.50,1.31,-0.55,
5.615,2.84,2.82,-1.07,-1.29,1.34,-0.47,
5.616,2.84,2.82,-1.07,-1.29,1.34,-0.47,
5.617,2.81,2.71,-0.85,-1.29,1.34,-0.47,
5.617,2.81,2.71,-0.85,-1.29,1.34,-0.47,
5.624,2.81,2.71,-0.85,-1.07,1.35,-0.37,
5.625,2.81,2.71,-0.85,-1.07,1.35,-0.37,
5.626,2.72,2.70,-0.59,-1.07,1.35,-0.37,
5.626,2.72,2.70,-0.59,-1.07,1.35,-0.37,
5.634,2.72,2.70,-0.59,-0.86,1.32,-0.27,
5.635,2.72,2.70,-0.59,-0.86,1.32,-0.27,
5.635,2.52,2.72,-0.33,-0.86,1.32,-0.27,
5.636,2.52,2.72,-0.33,-0.86,1.32,-0.27,
5.644,2.52,2.72,-0.33,-0.86,1.32,-0.27,
5.646,2.52,2.72,-0.33,-0.86,1.32,-0.27,
5.647,2.52,2.72,-0.33,-0.86,1.32,-0.27,
5.648,2.52,2.72,-0.33,-0.86,1.32,-0.27,
5.659,2.52,2.72,-0.33,-0.69,1.28,-0.18,
5.66,2.52,2.72,-0.33,-0.69,1.28,-0.18,
5.66,2.00,2.76,-0.19,-0.69,1.28,-0.18,
5.661,2.00,2.76,-0.19,-0.69,1.28,-0.18,
5.663,2.00,2.76,-0.19,-0.58,1.20,-0.09,
5.663,2.00,2.76,-0.19,-0.58,1.20,-0.09,
5.664,1.76,2.60,-0.32,-0.58,1.20,-0.09,
5.664,1.76,2.60,-0.32,-0.58,1.20,-0.09,
5.68,1.76,2.60,-0.32,-0.52,1.07,-0.01,
5.681,1.76,2.60,-0.32,-0.52,1.07,-0.01,
5.681,1.61,2.33,-0.58,-0.52,1.07,-0.01,
5.682,1.61,2.33,-0.58,-0.52,1.07,-0.01,
5.682,1.61,2.33,-0.58,-0.50,0.88,0.09,
5.682,1.61,2.33,-0.58,-0.50,0.88,0.09,
5.682,1.59,1.99,-0.88,-0.50,0.88,0.09,
5.683,1.59,1.99,-0.88,-0.50,0.88,0.09,
5.691,1.59,1.99,-0.88,-0.49,0.65,0.19,
5.692,1.59,1.99,-0.88,-0.49,0.65,0.19,
5.692,1.62,1.62,-1.12,-0.49,0.65,0.19,
5.693,1.62,1.62,-1.12,-0.49,0.65,0.19,
5.7,1.62,1.62,-1.12,-0.45,0.42,0.30,
5.701,1.62,1.62,-1.12,-0.45,0.42,0.30,
5.701,1.62,1.26,-1.24,-0.45,0.42,0.30,
5.701,1.62,1.26,-1.24,-0.45,0.42,0.30,
5.711,1.62,1.26,-1.24,-0.37,0.23,0.39,
5.711,1.62,1.26,-1.24,-0.37,0.23,0.39,
5.712,1.57,1.02,-1.18,-0.37,0.23,0.39,
5.713,1.57,1.02,-1.18,-0.37,0.23,0.39,
5.719,1.57,1.02,-1.18,-0.25,0.09,0.46,
5.721,1.57,1.02,-1.18,-0.25,0.09,0.46,
5.721,1.42,0.94,-0.94,-0.25,0.09,0.46,
5.722,1.42,0.94,-0.94,-0.25,0.09,0.46,
5.731,1.42,0.94,-0.94,-0.11,-0.00,0.51,
5.732,1.42,0.94,-0.94,-0.11,-0.00,0.51,
5.733,1.26,1.06,-0.53,-0.11,-0.00,0.51,
5.733,1.26,1.06,-0.53,-0.11,-0.00,0.51,
5.739,1.26,1.06,-0.53,0.01,-0.05,0.55,
5.74,1.26,1.06,-0.53,0.01,-0.05,0.55,
5.741,1.09,1.35,-0.05,0.01,-0.05,0.55,
5.742,1.09,1.35,-0.05,0.01,-0.05,0.55,
5.754,1.09,1.35,-0.05,0.09,-0.07,0.57,
5.755,1.09,1.35,-0.05,0.09,-0.07,0.57,
5.756,0.91,1.72,0.44,0.09,-0.07,0.57,
5.756,0.91,1.72,0.44,0.09,-0.07,0.57,
5.757,0.91,1.72,0.44,0.09,-0.06,0.56,
5.758,0.91,1.72,0.44,0.09,-0.06,0.56,
5.758,0.73,2.08,0.85,0.09,-0.06,0.56,
5.759,0.73,2.08,0.85,0.09,-0.06,0.56,
5.771,0.73,2.08,0.85,0.01,-0.04,0.51,
5.772,0.73,2.08,0.85,0.01,-0.04,0.51,
5.772,0.55,2.37,1.13,0.01,-0.04,0.51,
5.773,0.55,2.37,1.13,0.01,-0.04,0.51,
5.777,0.55,2.37,1.13,-0.15,-0.02,0.41,
5.778,0.55,2.37,1.13,-0.15,-0.02,0.41,
5.778,0.34,2.53,1.31,-0.15,-0.02,0.41,
5.778,0.34,2.53,1.31,-0.15,-0.02,0.41,
5.787,0.34,2.53,1.31,-0.36,-0.00,0.29,
5.788,0.34,2.53,1.31,-0.36,-0.00,0.29,
5.789,0.17,2.51,1.40,-0.36,-0.00,0.29,
5.79,0.17,2.51,1.40,-0.36,-0.00,0.29,
5.795,0.17,2.51,1.40,-0.60,-0.00,0.18,
5.796,0.17,2.51,1.40,-0.60,-0.00,0.18,
5.797,0.08,2.40,1.45,-0.60,-0.00,0.18,
5.798,0.08,2.40,1.45,-0.60,-0.00,0.18,
5.805,0.08,2.40,1.45,-0.82,-0.02,0.08,
5.806,0.08,2.40,1.45,-0.82,-0.02,0.08,
5.807,0.08,2.21,1.46,-0.82,-0.02,0.08,
5.807,0.08,2.21,1.46,-0.82,-0.02,0.08,
5.815,0.08,2.21,1.46,-0.98,-0.05,0.00,
5.816,0.08,2.21,1.46,-0.98,-0.05,0.00,
5.817,0.18,1.98,1.42,-0.98,-0.05,0.00,
5.818,0.18,1.98,1.42,-0.98,-0.05,0.00,
5.824,0.18,1.98,1.42,-1.07,-0.06,-0.04,
5.825,0.18,1.98,1.42,-1.07,-0.06,-0.04,
5.826,0.35,1.80,1.36,-1.07,-0.06,-0.04,
5.826,0.35,1.80,1.36,-1.07,-0.06,-0.04,
5.834,0.35,1.80,1.36,-1.07,-0.05,-0.06,
5.835,0.35,1.80,1.36,-1.07,-0.05,-0.06,
5.835,0.52,1.67,1.27,-1.07,-0.05,-0.06,
5.836,0.52,1.67,1.27,-1.07,-0.05,-0.06,
5.844,0.52,1.67,1.27,-1.07,-0.05,-0.06,
5.846,0.52,1.67,1.27,-1.07,-0.05,-0.06,
5.846,0.52,1.67,1.27,-1.07,-0.05,-0.06,
5.847,0.52,1.67,1.27,-1.07,-0.05,-0.06,
5.858,0.52,1.67,1.27,-0.99,0.00,-0.08,
5.86,0.52,1.67,1.27,-0.99,0.00,-0.08,
5.861,0.73,1.59,1.17,-0.99,0.00,-0.08,
5.862,0.73,1.59,1.17,-0.99,0.00,-0.08,
5.863,0.73,1.59,1.17,-0.87,0.10,-0.11,
5.864,0.73,1.59,1.17,-0.87,0.10,-0.11,
5.865,0.70,1.53,1.21,-0.87,0.10,-0.11,
5.866,0.70,1.53,1.21,-0.87,0.10,-0.11,
5.872,0.70,1.53,1.21,-0.75,0.24,-0.15,
5.873,0.70,1.53,1.21,-0.75,0.24,-0.15,
5.873,0.64,1.49,1.28,-0.75,0.24,-0.15,
5.874,0.64,1.49,1.28,-0.75,0.24,-0.15,
5.881,0.64,1.49,1.28,-0.63,0.38,-0.19,
5.882,0.64,1.49,1.28,-0.63,0.38,-0.19,
5.882,0.54,1.42,1.35,-0.63,0.38,-0.19,
5.883,0.54,1.42,1.35,-0.63,0.38,-0.19,
5.891,0.54,1.42,1.35,-0.54,0.48,-0.22,
5.892,0.54,1.42,1.35,-0.54,0.48,-0.22,
5.892,0.47,1.37,1.43,-0.54,0.48,-0.22,
5.893,0.47,1.37,1.43,-0.54,0.48,-0.22,
5.901,0.47,1.37,1.43,-0.47,0.55,-0.23,
5.903,0.47,1.37,1.43,-0.47,0.55,-0.23,
5.903,0.38,1.31,1.49,-0.47,0.55,-0.23,
5.904,0.38,1.31,1.49,-0.47,0.55,-0.23,
5.909,0.38,1.31,1.49,-0.41,0.57,-0.24,
5.91,0.38,1.31,1.49,-0.41,0.57,-0.24,
5.911,0.30,1.26,1.52,-0.41,0.57,-0.24,
5.911,0.30,1.26,1.52,-0.41,0.57,-0.24,
5.919,0.30,1.26,1.52,-0.36,0.56,-0.24,
5.92,0.30,1.26,1.52,-0.36,0.56,-0.24,
5.921,0.19,1.23,1.54,-0.36,0.56,-0.24,
5.921,0.19,1.23,1.54,-0.36,0.56,-0.24,
5.929,0.19,1.23,1.54,-0.32,0.53,-0.24,
5.93,0.19,1.23,1.54,-0.32,0.53,-0.24,
5.931,0.09,1.24,1.49,-0.32,0.53,-0.24,
5.931,0.09,1.24,1.49,-0.32,0.53,-0.24,
5.938,0.09,1.24,1.49,-0.28,0.48,-0.23,
5.939,0.09,1.24,1.49,-0.28,0.48,-0.23,
5.94,-0.01,1.25,1.41,-0.28,0.48,-0.23,
5.941,-0.01,1.25,1.41,-0.28,0.48,-0.23,
5.956,-0.01,1.25,1.41,-0.25,0.42,-0.24,
5.958,-0.01,1.25,1.41,-0.25,0.42,-0.24,
5.958,-0.10,1.18,1.34,-0.25,0.42,-0.24,
5.959,-0.10,1.18,1.34,-0.25,0.42,-0.24,
5.96,-0.10,1.18,1.34,-0.24,0.34,-0.25,
5.96,-0.10,1.18,1.34,-0.24,0.34,-0.25,
5.961,-0.17,1.08,1.23,-0.24,0.34,-0.25,
5.961,-0.17,1.08,1.23,-0.24,0.34,-0.25,
5.969,-0.17,1.08,1.23,-0.24,0.25,-0.25,
5.97,-0.17,1.08,1.23,-0.24,0.25,-0.25,
5.97,-0.23,0.91,1.15,-0.24,0.25,-0.25,
5.971,-0.23,0.91,1.15,-0.24,0.25,-0.25,
5.976,-0.23,0.91,1.15,-0.23,0.15,-0.23,
5.977,-0.23,0.91,1.15,-0.23,0.15,-0.23,
5.977,-0.33,0.72,1.10,-0.23,0.15,-0.23,
5.978,-0.33,0.72,1.10,-0.23,0.15,-0.23,
5.986,-0.33,0.72,1.10,-0.20,0.06,-0.18,
5.987,-0.33,0.72,1.10,-0.20,0.06,-0.18,
5.988,-0.47,0.56,1.07,-0.20,0.06,-0.18,
5.988,-0.47,0.56,1.07,-0.20,0.06,-0.18,
5.996,-0.47,0.56,1.07,-0.14,-0.03,-0.11,
5.997,-0.47,0.56,1.07,-0.14,-0.03,-0.11,
5.997,-0.61,0.42,1.13,-0.14,-0.03,-0.11,
5.998,-0.61,0.42,1.13,-0.14,-0.03,-0.11,
6.006,-0.61,0.42,1.13,-0.05,-0.13,-0.04,
6.007,-0.61,0.42,1.13,-0.05,-0.13,-0.04,
6.007,-0.74,0.31,1.23,-0.05,-0.13,-0.04,
6.008,-0.74,0.31,1.23,-0.05,-0.13,-0.04,
6.015,-0.74,0.31,1.23,0.07,-0.22,0.04,
6.016,-0.74,0.31,1.23,0.07,-0.22,0.04,
6.016,-0.85,0.26,1.35,0.07,-0.22,0.04,
6.016,-0.85,0.26,1.35,0.07,-0.22,0.04,
6.024,-0.85,0.26,1.35,0.18,-0.32,0.10,
6.025,-0.85,0.26,1.35,0.18,-0.32,0.10,
6.025,-0.95,0.30,1.39,0.18,-0.32,0.10,
6.026,-0.95,0.30,1.39,0.18,-0.32,0.10,
6.034,-0.95,0.30,1.39,0.27,-0.40,0.16,
6.034,-0.95,0.30,1.39,0.27,-0.40,0.16,
6.035,-1.07,0.38,1.16,0.27,-0.40,0.16,
6.036,-1.07,0.38,1.16,0.27,-0.40,0.16,
6.044,-1.07,0.38,1.16,0.32,-0.47,0.20,
6.045,-1.07,0.38,1.16,0.32,-0.47,0.20,
6.046,-1.22,0.40,-0.55,0.32,-0.47,0.20,
6.047,-1.22,0.40,-0.55,0.32,-0.47,0.20,
6.055,-1.22,0.40,-0.55,0.32,-0.47,0.20,
6.057,-1.22,0.40,-0.55,0.32,-0.47,0.20,
6.057,-1.22,0.40,-0.55,0.32,-0.47,0.20,
6.058,-1.22,0.40,-0.55,0.32,-0.47,0.20,
6.063,-1.22,0.40,-0.55,0.32,-0.56,0.22,
6.063,-1.22,0.40,-0.55,0.32,-0.56,0.22,
6.064,-1.34,-1.53,-2.58,0.32,-0.56,0.22,
6.065,-1.34,-1.53,-2.58,0.32,-0.56,0.22,
6.072,-1.34,-1.53,-2.58,0.30,-0.73,0.28,
6.073,-1.34,-1.53,-2.58,0.30,-0.73,0.28,
6.074,-1.19,-1.98,-2.74,0.30,-0.73,0.28,
6.074,-1.19,-1.98,-2.74,0.30,-0.73,0.28,
6.083,-1.19,-1.98,-2.74,0.37,-0.96,0.40,
6.084,-1.19,-1.98,-2.74,0.37,-0.96,0.40,
6.084,-0.92,-2.50,-2.53,0.37,-0.96,0.40,
6.085,-0.92,-2.50,-2.53,0.37,-0.96,0.40,
6.091,-0.92,-2.50,-2.53,0.60,-1.18,0.57,
6.092,-0.92,-2.50,-2.53,0.60,-1.18,0.57,
6.093,-0.61,-2.72,-0.85,0.60,-1.18,0.57,
6.094,-0.61,-2.72,-0.85,0.60,-1.18,0.57,
6.101,-0.61,-2.72,-0.85,0.93,-1.26,0.71,
6.102,-0.61,-2.72,-0.85,0.93,-1.26,0.71,
6.103,-0.37,-2.41,-0.45,0.93,-1.26,0.71,
6.103,-0.37,-2.41,-0.45,0.93,-1.26,0.71,
6.11,-0.37,-2.41,-0.45,1.24,-1.16,0.76,
6.111,-0.37,-2.41,-0.45,1.24,-1.16,0.76,
6.112,-0.27,-0.86,0.15,1.24,-1.16,0.76,
6.113,-0.27,-0.86,0.15,1.24,-1.16,0.76,
6.12,-0.27,-0.86,0.15,1.44,-0.91,0.71,
6.121,-0.27,-0.86,0.15,1.44,-0.91,0.71,
6.122,-0.33,-0.37,0.71,1.44,-0.91,0.71,
6.123,-0.33,-0.37,0.71,1.44,-0.91,0.71,
6.129,-0.33,-0.37,0.71,1.43,-0.58,0.57,
6.13,-0.33,-0.37,0.71,1.43,-0.58,0.57,
6.13,-0.50,0.18,1.13,1.43,-0.58,0.57,
6.131,-0.50,0.18,1.13,1.43,-0.58,0.57,
6.138,-0.50,0.18,1.13,1.19,-0.27,0.38,
6.139,-0.50,0.18,1.13,1.19,-0.27,0.38,
6.14,-0.69,0.59,1.34,1.19,-0.27,0.38,
6.141,-0.69,0.59,1.34,1.19,-0.27,0.38,
6.154,-0.69,0.59,1.34,0.78,-0.00,0.16,
6.155,-0.69,0.59,1.34,0.78,-0.00,0.16,
6.156,-0.82,0.72,1.38,0.78,-0.00,0.16,
6.156,-0.82,0.72,1.38,0.78,-0.00,0.16,
6.157,-0.82,0.72,1.38,0.32,0.18,-0.06,
6.158,-0.82,0.72,1.38,0.32,0.18,-0.06,
6.158,-0.86,0.61,1.18,0.32,0.18,-0.06,
6.159,-0.86,0.61,1.18,0.32,0.18,-0.06,
6.168,-0.86,0.61,1.18,-0.10,0.28,-0.24,
6.169,-0.86,0.61,1.18,-0.10,0.28,-0.24,
6.169,-0.78,0.30,0.83,-0.10,0.28,-0.24,
6.169,-0.78,0.30,0.83,-0.10,0.28,-0.24,
6.176,-0.78,0.30,0.83,-0.45,0.31,-0.38,
6.177,-0.78,0.30,0.83,-0.45,0.31,-0.38,
6.178,-0.66,-0.08,0.45,-0.45,0.31,-0.38,
6.178,-0.66,-0.08,0.45,-0.45,0.31,-0.38,
6.186,-0.66,-0.08,0.45,-0.67,0.29,-0.46,
6.188,-0.66,-0.08,0.45,-0.67,0.29,-0.46,
6.188,-0.47,-0.43,0.06,-0.67,0.29,-0.46,
6.189,-0.47,-0.43,0.06,-0.67,0.29,-0.46,
6.195,-0.47,-0.43,0.06,-0.73,0.26,-0.47,
6.196,-0.47,-0.43,0.06,-0.73,0.26,-0.47,
6.197,-0.19,-0.69,-0.21,-0.73,0.26,-0.47,
6.197,-0.19,-0.69,-0.21,-0.73,0.26,-0.47,
6.205,-0.19,-0.69,-0.21,-0.66,0.23,-0.43,
6.207,-0.19,-0.69,-0.21,-0.66,0.23,-0.43,
6.207,0.03,-0.84,-0.38,-0.66,0.23,-0.43,
6.208,0.03,-0.84,-0.38,-0.66,0.23,-0.43,
6.215,0.03,-0.84,-0.38,-0.51,0.23,-0.35,
6.216,0.03,-0.84,-0.38,-0.51,0.23,-0.35,
6.216,0.26,-0.90,-0.43,-0.51,0.23,-0.35,
6.216,0.26,-0.90,-0.43,-0.51,0.23,-0.35,
6.224,0.26,-0.90,-0.43,-0.31,0.27,-0.27,
6.224,0.26,-0.90,-0.43,-0.31,0.27,-0.27,
6.225,0.38,-0.83,-0.37,-0.31,0.27,-0.27,
6.225,0.38,-0.83,-0.37,-0.31,0.27,-0.27,
6.234,0.38,-0.83,-0.37,-0.14,0.34,-0.21,
6.235,0.38,-0.83,-0.37,-0.14,0.34,-0.21,
6.235,0.40,-0.71,-0.23,-0.14,0.34,-0.21,
6.235,0.40,-0.71,-0.23,-0.14,0.34,-0.21,
6.243,0.40,-0.71,-0.23,-0.14,0.34,-0.21,
6.244,0.40,-0.71,-0.23,-0.14,0.34,-0.21,
6.245,0.40,-0.71,-0.23,-0.14,0.34,-0.21,
6.246,0.40,-0.71,-0.23,-0.14,0.34,-0.21,
6.255,0.40,-0.71,-0.23,0.00,0.42,-0.18,
6.256,0.40,-0.71,-0.23,0.00,0.42,-0.18,
6.257,0.27,-0.40,0.25,0.00,0.42,-0.18,
6.257,0.27,-0.40,0.25,0.00,0.42,-0.18,
6.262,0.27,-0.40,0.25,0.09,0.49,-0.18,
6.263,0.27,-0.40,0.25,0.09,0.49,-0.18,
6.264,0.18,-0.26,0.51,0.09,0.49,-0.18,
6.265,0.18,-0.26,0.51,0.09,0.49,-0.18,
6.271,0.18,-0.26,0.51,0.12,0.54,-0.21,
6.272,0.18,-0.26,0.51,0.12,0.54,-0.21,
6.273,0.07,-0.14,0.75,0.12,0.54,-0.21,
6.273,0.07,-0.14,0.75,0.12,0.54,-0.21,
6.282,0.07,-0.14,0.75,0.10,0.55,-0.25,
6.283,0.07,-0.14,0.75,0.10,0.55,-0.25,
6.284,-0.04,-0.03,0.91,0.10,0.55,-0.25,
6.284,-0.04,-0.03,0.91,0.10,0.55,-0.25,
6.291,-0.04,-0.03,0.91,0.05,0.54,-0.29,
6.292,-0.04,-0.03,0.91,0.05,0.54,-0.29,
6.293,-0.18,0.07,0.96,0.05,0.54,-0.29,
6.294,-0.18,0.07,0.96,0.05,0.54,-0.29,
6.313,-0.18,0.07,0.96,-0.01,0.50,-0.31,
6.315,-0.18,0.07,0.96,-0.01,0.50,-0.31,
6.316,-0.30,0.09,0.88,-0.01,0.50,-0.31,
6.317,-0.30,0.09,0.88,-0.01,0.50,-0.31,
6.318,-0.30,0.09,0.88,-0.01,0.50,-0.31,
6.319,-0.30,0.09,0.88,-0.01,0.50,-0.31,
6.32,-0.30,0.09,0.88,-0.01,0.50,-0.31,
6.321,-0.30,0.09,0.88,-0.01,0.50,-0.31,
6.322,-0.30,0.09,0.88,-0.01,0.50,-0.31,
6.323,-0.30,0.09,0.88,-0.01,0.50,-0.31,
6.324,-0.30,0.09,0.88,-0.21,-0.03,-0.17,
6.325,-0.30,0.09,0.88,-0.21,-0.03,-0.17,
6.326,-0.39,-0.06,0.46,-0.21,-0.03,-0.17,
6.326,-0.39,-0.06,0.46,-0.21,-0.03,-0.17,
6.333,-0.39,-0.06,0.46,-0.21,-0.03,-0.17,
6.334,-0.39,-0.06,0.46,-0.21,-0.03,-0.17,
6.334,-0.39,-0.06,0.46,-0.21,-0.03,-0.17,
6.335,-0.39,-0.06,0.46,-0.21,-0.03,-0.17,
6.343,-0.39,-0.06,0.46,-0.21,-0.03,-0.17,
6.344,-0.39,-0.06,0.46,-0.21,-0.03,-0.17,
6.345,-0.39,-0.06,0.46,-0.21,-0.03,-0.17,
6.345,-0.39,-0.06,0.46,-0.21,-0.03,-0.17,
6.354,-0.39,-0.06,0.46,-0.18,-0.29,-0.04,
6.355,-0.39,-0.06,0.46,-0.18,-0.29,-0.04,
6.356,-0.11,-0.35,0.35,-0.18,-0.29,-0.04,
6.356,-0.11,-0.35,0.35,-0.18,-0.29,-0.04,
6.362,-0.11,-0.35,0.35,-0.12,-0.32,-0.01,
6.364,-0.11,-0.35,0.35,-0.12,-0.32,-0.01,
6.365,-0.03,-0.38,0.40,-0.12,-0.32,-0.01,
6.366,-0.03,-0.38,0.40,-0.12,-0.32,-0.01,
6.372,-0.03,-0.38,0.40,-0.03,-0.29,0.00,
6.373,-0.03,-0.38,0.40,-0.03,-0.29,0.00,
6.373,-0.01,-0.34,0.48,-0.03,-0.29,0.00,
6.373,-0.01,-0.34,0.48,-0.03,-0.29,0.00,
6.382,-0.01,-0.34,0.48,0.06,-0.23,0.01,
6.384,-0.01,-0.34,0.48,0.06,-0.23,0.01,
6.384,-0.01,-0.28,0.55,0.06,-0.23,0.01,
6.385,-0.01,-0.28,0.55,0.06,-0.23,0.01,
6.391,-0.01,-0.28,0.55,0.14,-0.16,-0.00,
6.391,-0.01,-0.28,0.55,0.14,-0.16,-0.00,
6.392,-0.02,-0.22,0.58,0.14,-0.16,-0.00,
6.393,-0.02,-0.22,0.58,0.14,-0.16,-0.00,
6.4,-0.02,-0.22,0.58,0.19,-0.10,-0.02,
6.401,-0.02,-0.22,0.58,0.19,-0.10,-0.02,
6.401,-0.05,-0.15,0.58,0.19,-0.10,-0.02,
6.402,-0.05,-0.15,0.58,0.19,-0.10,-0.02,
6.41,-0.05,-0.15,0.58,0.21,-0.04,-0.04,
6.411,-0.05,-0.15,0.58,0.21,-0.04,-0.04,
6.411,-0.10,-0.08,0.58,0.21,-0.04,-0.04,
6.412,-0.10,-0.08,0.58,0.21,-0.04,-0.04,
6.42,-0.10,-0.08,0.58,0.20,-0.00,-0.04,
6.421,-0.10,-0.08,0.58,0.20,-0.00,-0.04,
6.429,-0.14,0.01,0.52,0.20,-0.00,-0.04,
6.429,-0.14,0.01,0.52,0.20,-0.00,-0.04,
6.43,-0.14,0.01,0.52,0.16,0.01,-0.04,
6.431,-0.14,0.01,0.52,0.16,0.01,-0.04,
6.431,-0.16,0.10,0.46,0.16,0.01,-0.04,
6.432,-0.16,0.10,0.46,0.16,0.01,-0.04,
6.438,-0.16,0.10,0.46,0.11,0.00,-0.04,
6.439,-0.16,0.10,0.46,0.11,0.00,-0.04,
6.44,-0.18,0.17,0.40,0.11,0.00,-0.04,
6.441,-0.18,0.17,0.40,0.11,0.00,-0.04,
6.452,-0.18,0.17,0.40,0.04,-0.02,-0.06,
6.453,-0.18,0.17,0.40,0.04,-0.02,-0.06,
6.453,-0.20,0.18,0.32,0.04,-0.02,-0.06,
6.454,-0.20,0.18,0.32,0.04,-0.02,-0.06,
6.467,-0.20,0.18,0.32,-0.09,-0.10,-0.09,
6.468,-0.20,0.18,0.32,-0.09,-0.10,-0.09,
6.468,-0.21,0.16,0.33,-0.09,-0.10,-0.09,
6.468,-0.21,0.16,0.33,-0.09,-0.10,-0.09,
6.469,-0.21,0.16,0.33,-0.09,-0.10,-0.09,
6.469,-0.21,0.16,0.33,-0.09,-0.10,-0.09,
6.469,-0.21,0.16,0.33,-0.09,-0.10,-0.09,
6.469,-0.21,0.16,0.33,-0.09,-0.10,-0.09,
6.476,-0.21,0.16,0.33,-0.14,-0.13,-0.09,
6.477,-0.21,0.16,0.33,-0.14,-0.13,-0.09,
6.478,-0.20,0.12,0.39,-0.14,-0.13,-0.09,
6.478,-0.20,0.12,0.39,-0.14,-0.13,-0.09,
6.486,-0.20,0.12,0.39,-0.16,-0.15,-0.08,
6.487,-0.20,0.12,0.39,-0.16,-0.15,-0.08,
6.487,-0.20,0.13,0.42,-0.16,-0.15,-0.08,
6.488,-0.20,0.13,0.42,-0.16,-0.15,-0.08,
6.496,-0.20,0.13,0.42,-0.16,-0.16,-0.07,
6.496,-0.20,0.13,0.42,-0.16,-0.16,-0.07,
6.497,-0.21,0.13,0.39,-0.16,-0.16,-0.07,
6.498,-0.21,0.13,0.39,-0.16,-0.16,-0.07,
6.506,-0.21,0.13,0.39,-0.14,-0.16,-0.08,
6.507,-0.21,0.13,0.39,-0.14,-0.16,-0.08,
6.508,-0.26,0.12,0.38,-0.14,-0.16,-0.08,
6.509,-0.26,0.12,0.38,-0.14,-0.16,-0.08,
6.515,-0.26,0.12,0.38,-0.12,-0.16,-0.09,
6.516,-0.26,0.12,0.38,-0.12,-0.16,-0.09,
6.517,-0.35,0.15,0.36,-0.12,-0.16,-0.09,
6.518,-0.35,0.15,0.36,-0.12,-0.16,-0.09,
6.524,-0.35,0.15,0.36,-0.09,-0.16,-0.09,
6.525,-0.35,0.15,0.36,-0.09,-0.16,-0.09,
6.525,-0.46,0.17,0.35,-0.09,-0.16,-0.09,
6.526,-0.46,0.17,0.35,-0.09,-0.16,-0.09,
6.534,-0.46,0.17,0.35,-0.07,-0.17,-0.10,
6.535,-0.46,0.17,0.35,-0.07,-0.17,-0.10,
6.535,-0.58,0.20,0.38,-0.07,-0.17,-0.10,
6.536,-0.58,0.20,0.38,-0.07,-0.17,-0.10,
6.544,-0.58,0.20,0.38,-0.07,-0.17,-0.10,
6.545,-0.58,0.20,0.38,-0.07,-0.17,-0.10,
6.546,-0.58,0.20,0.38,-0.07,-0.17,-0.10,
6.546,-0.58,0.20,0.38,-0.07,-0.17,-0.10,
6.554,-0.58,0.20,0.38,-0.06,-0.20,-0.10,
6.555,-0.58,0.20,0.38,-0.06,-0.20,-0.10,
6.556,-0.79,0.23,0.42,-0.06,-0.20,-0.10,
6.557,-0.79,0.23,0.42,-0.06,-0.20,-0.10,
6.563,-0.79,0.23,0.42,-0.06,-0.25,-0.09,
6.563,-0.79,0.23,0.42,-0.06,-0.25,-0.09,
6.564,-0.84,0.19,0.45,-0.06,-0.25,-0.09,
6.565,-0.84,0.19,0.45,-0.06,-0.25,-0.09,
6.578,-0.84,0.19,0.45,-0.07,-0.32,-0.06,
6.579,-0.84,0.19,0.45,-0.07,-0.32,-0.06,
6.58,-0.90,0.17,0.45,-0.07,-0.32,-0.06,
6.58,-0.90,0.17,0.45,-0.07,-0.32,-0.06,
6.586,-0.90,0.17,0.45,-0.07,-0.39,-0.04,
6.587,-0.90,0.17,0.45,-0.07,-0.39,-0.04,
6.587,-0.92,0.11,0.48,-0.07,-0.39,-0.04,
6.588,-0.92,0.11,0.48,-0.07,-0.39,-0.04,
6.591,-0.92,0.11,0.48,-0.07,-0.46,-0.01,
6.591,-0.92,0.11,0.48,-0.07,-0.46,-0.01,
6.592,-0.94,0.04,0.49,-0.07,-0.46,-0.01,
6.592,-0.94,0.04,0.49,-0.07,-0.46,-0.01,
6.601,-0.94,0.04,0.49,-0.05,-0.50,0.01,
6.602,-0.94,0.04,0.49,-0.05,-0.50,0.01,
6.603,-0.95,-0.00,0.48,-0.05,-0.50,0.01,
6.603,-0.95,-0.00,0.48,-0.05,-0.50,0.01,
6.61,-0.95,-0.00,0.48,-0.02,-0.53,0.03,
6.611,-0.95,-0.00,0.48,-0.02,-0.53,0.03,
6.612,-0.93,-0.05,0.47,-0.02,-0.53,0.03,
6.613,-0.93,-0.05,0.47,-0.02,-0.53,0.03,
6.62,-0.93,-0.05,0.47,0.03,-0.53,0.04,
6.621,-0.93,-0.05,0.47,0.03,-0.53,0.04,
6.622,-0.94,-0.07,0.46,0.03,-0.53,0.04,
6.622,-0.94,-0.07,0.46,0.03,-0.53,0.04,
6.629,-0.94,-0.07,0.46,0.08,-0.51,0.04,
6.629,-0.94,-0.07,0.46,0.08,-0.51,0.04,
6.63,-0.92,-0.07,0.46,0.08,-0.51,0.04,
6.63,-0.92,-0.07,0.46,0.08,-0.51,0.04,
6.639,-0.92,-0.07,0.46,0.12,-0.49,0.04,
6.639,-0.92,-0.07,0.46,0.12,-0.49,0.04,
6.64,-0.90,-0.06,0.45,0.12,-0.49,0.04,
6.641,-0.90,-0.06,0.45,0.12,-0.49,0.04,
6.653,-0.90,-0.06,0.45,0.15,-0.45,0.05,
6.654,-0.90,-0.06,0.45,0.15,-0.45,0.05,
6.655,-0.91,-0.03,0.42,0.15,-0.45,0.05,
6.655,-0.91,-0.03,0.42,0.15,-0.45,0.05,
6.658,-0.91,-0.03,0.42,0.16,-0.41,0.05,
6.658,-0.91,-0.03,0.42,0.16,-0.41,0.05,
6.664,-0.90,0.03,0.38,0.16,-0.41,0.05,
6.664,-0.90,0.03,0.38,0.16,-0.41,0.05,
6.667,-0.90,0.03,0.38,0.16,-0.36,0.05,
6.668,-0.90,0.03,0.38,0.16,-0.36,0.05,
6.668,-0.90,0.11,0.35,0.16,-0.36,0.05,
6.669,-0.90,0.11,0.35,0.16,-0.36,0.05,
6.676,-0.90,0.11,0.35,0.14,-0.33,0.03,
6.677,-0.90,0.11,0.35,0.14,-0.33,0.03,
6.678,-0.93,0.18,0.34,0.14,-0.33,0.03,
6.678,-0.93,0.18,0.34,0.14,-0.33,0.03,
6.687,-0.93,0.18,0.34,0.10,-0.29,0.00,
6.688,-0.93,0.18,0.34,0.10,-0.29,0.00,
6.689,-0.91,0.21,0.36,0.10,-0.29,0.00,
6.689,-0.91,0.21,0.36,0.10,-0.29,0.00,
6.697,-0.91,0.21,0.36,0.04,-0.27,-0.02,
6.698,-0.91,0.21,0.36,0.04,-0.27,-0.02,
6.699,-0.91,0.23,0.40,0.04,-0.27,-0.02,
6.7,-0.91,0.23,0.40,0.04,-0.27,-0.02,
6.706,-0.91,0.23,0.40,-0.02,-0.26,-0.04,
6.707,-0.91,0.23,0.40,-0.02,-0.26,-0.04,
6.708,-0.91,0.22,0.40,-0.02,-0.26,-0.04,
6.708,-0.91,0.22,0.40,-0.02,-0.26,-0.04,
6.715,-0.91,0.22,0.40,-0.07,-0.24,-0.05,
6.716,-0.91,0.22,0.40,-0.07,-0.24,-0.05,
6.716,-0.94,0.19,0.44,-0.07,-0.24,-0.05,
6.717,-0.94,0.19,0.44,-0.07,-0.24,-0.05,
6.724,-0.94,0.19,0.44,-0.11,-0.23,-0.06,
6.724,-0.94,0.19,0.44,-0.11,-0.23,-0.06,
6.725,-0.95,0.20,0.45,-0.11,-0.23,-0.06,
6.725,-0.95,0.20,0.45,-0.11,-0.23,-0.06,
6.734,-0.95,0.20,0.45,-0.14,-0.23,-0.06,
6.734,-0.95,0.20,0.45,-0.14,-0.23,-0.06,
6.735,-0.95,0.20,0.41,-0.14,-0.23,-0.06,
6.735,-0.95,0.20,0.41,-0.14,-0.23,-0.06,
6.744,-0.95,0.20,0.41,-0.14,-0.23,-0.06,
6.745,-0.95,0.20,0.41,-0.14,-0.23,-0.06,
6.745,-0.95,0.20,0.41,-0.14,-0.23,-0.06,
6.746,-0.95,0.20,0.41,-0.14,-0.23,-0.06,
6.754,-0.95,0.20,0.41,-0.15,-0.23,-0.06,
6.755,-0.95,0.20,0.41,-0.15,-0.23,-0.06,
6.756,-0.88,0.25,0.37,-0.15,-0.23,-0.06,
6.757,-0.88,0.25,0.37,-0.15,-0.23,-0.06,
6.762,-0.88,0.25,0.37,-0.15,-0.23,-0.05,
6.763,-0.88,0.25,0.37,-0.15,-0.23,-0.05,
6.763,-0.84,0.25,0.37,-0.15,-0.23,-0.05,
6.763,-0.84,0.25,0.37,-0.15,-0.23,-0.05,
6.771,-0.84,0.25,0.37,-0.15,-0.23,-0.04,
6.772,-0.84,0.25,0.37,-0.15,-0.23,-0.04,
6.773,-0.78,0.24,0.39,-0.15,-0.23,-0.04,
6.773,-0.78,0.24,0.39,-0.15,-0.23,-0.04,
6.782,-0.78,0.24,0.39,-0.15,-0.23,-0.05,
6.782,-0.78,0.24,0.39,-0.15,-0.23,-0.05,
6.783,-0.73,0.24,0.42,-0.15,-0.23,-0.05,
6.783,-0.73,0.24,0.42,-0.15,-0.23,-0.05,
6.791,-0.73,0.24,0.42,-0.15,-0.21,-0.06,
6.792,-0.73,0.24,0.42,-0.15,-0.21,-0.06,
6.793,-0.68,0.22,0.45,-0.15,-0.21,-0.06,
6.793,-0.68,0.22,0.45,-0.15,-0.21,-0.06,
6.8,-0.68,0.22,0.45,-0.15,-0.18,-0.07,
6.802,-0.68,0.22,0.45,-0.15,-0.18,-0.07,
6.802,-0.64,0.18,0.48,-0.15,-0.18,-0.07,
6.803,-0.64,0.18,0.48,-0.15,-0.18,-0.07,
6.81,-0.64,0.18,0.48,-0.14,-0.14,-0.07,
6.811,-0.64,0.18,0.48,-0.14,-0.14,-0.07,
6.811,-0.61,0.17,0.52,-0.14,-0.14,-0.07,
6.812,-0.61,0.17,0.52,-0.14,-0.14,-0.07,
6.82,-0.61,0.17,0.52,-0.12,-0.10,-0.06,
6.821,-0.61,0.17,0.52,-0.12,-0.10,-0.06,
6.822,-0.59,0.14,0.56,-0.12,-0.10,-0.06,
6.823,-0.59,0.14,0.56,-0.12,-0.10,-0.06,
6.829,-0.59,0.14,0.56,-0.09,-0.07,-0.05,
6.83,-0.59,0.14,0.56,-0.09,-0.07,-0.05,
6.831,-0.53,0.12,0.58,-0.09,-0.07,-0.05,
6.831,-0.53,0.12,0.58,-0.09,-0.07,-0.05,
6.839,-0.53,0.12,0.58,-0.06,-0.04,-0.05,
6.84,-0.53,0.12,0.58,-0.06,-0.04,-0.05,
6.841,-0.45,0.10,0.58,-0.06,-0.04,-0.05,
6.842,-0.45,0.10,0.58,-0.06,-0.04,-0.05,
6.853,-0.45,0.10,0.58,-0.03,-0.01,-0.05,
6.854,-0.45,0.10,0.58,-0.03,-0.01,-0.05,
6.854,-0.36,0.09,0.58,-0.03,-0.01,-0.05,
6.855,-0.36,0.09,0.58,-0.03,-0.01,-0.05,
6.858,-0.36,0.09,0.58,0.00,0.02,-0.05,
6.859,-0.36,0.09,0.58,0.00,0.02,-0.05,
6.86,-0.26,0.11,0.55,0.00,0.02,-0.05,
6.86,-0.26,0.11,0.55,0.00,0.02,-0.05,
6.87,-0.26,0.11,0.55,0.03,0.06,-0.05,
6.871,-0.26,0.11,0.55,0.03,0.06,-0.05,
6.872,-0.17,0.12,0.53,0.03,0.06,-0.05,
6.873,-0.17,0.12,0.53,0.03,0.06,-0.05,
6.877,-0.17,0.12,0.53,0.05,0.10,-0.06,
6.877,-0.17,0.12,0.53,0.05,0.10,-0.06,
6.878,-0.09,0.13,0.52,0.05,0.10,-0.06,
6.879,-0.09,0.13,0.52,0.05,0.10,-0.06,
6.886,-0.09,0.13,0.52,0.06,0.15,-0.08,
6.887,-0.09,0.13,0.52,0.06,0.15,-0.08,
6.887,-0.04,0.15,0.54,0.06,0.15,-0.08,
6.888,-0.04,0.15,0.54,0.06,0.15,-0.08,
6.895,-0.04,0.15,0.54,0.06,0.20,-0.09,
6.896,-0.04,0.15,0.54,0.06,0.20,-0.09,
6.901,0.00,0.14,0.55,0.06,0.20,-0.09,
6.901,0.00,0.14,0.55,0.06,0.20,-0.09,
6.905,0.00,0.14,0.55,0.05,0.24,-0.10,
6.906,0.00,0.14,0.55,0.05,0.24,-0.10,
6.907,0.03,0.14,0.56,0.05,0.24,-0.10,
6.907,0.03,0.14,0.56,0.05,0.24,-0.10,
6.914,0.03,0.14,0.56,0.04,0.27,-0.10,
6.915,0.03,0.14,0.56,0.04,0.27,-0.10,
6.916,0.05,0.16,0.56,0.04,0.27,-0.10,
6.916,0.05,0.16,0.56,0.04,0.27,-0.10,
6.924,0.05,0.16,0.56,0.02,0.28,-0.10,
6.925,0.05,0.16,0.56,0.02,0.28,-0.10,
6.925,0.09,0.16,0.56,0.02,0.28,-0.10,
6.926,0.09,0.16,0.56,0.02,0.28,-0.10,
6.934,0.09,0.16,0.56,0.01,0.29,-0.09,
6.935,0.09,0.16,0.56,0.01,0.29,-0.09,
6.935,0.14,0.16,0.55,0.01,0.29,-0.09,
6.935,0.14,0.16,0.55,0.01,0.29,-0.09,
6.945,0.14,0.16,0.55,-0.00,0.28,-0.09,
6.946,0.14,0.16,0.55,-0.00,0.28,-0.09,
6.946,0.16,0.17,0.56,-0.00,0.28,-0.09,
6.947,0.16,0.17,0.56,-0.00,0.28,-0.09,
6.955,0.16,0.17,0.56,-0.00,0.28,-0.09,
6.956,0.16,0.17,0.56,-0.00,0.28,-0.09,
6.957,0.16,0.17,0.56,-0.00,0.28,-0.09,
6.957,0.16,0.17,0.56,-0.00,0.28,-0.09,
6.962,0.16,0.17,0.56,-0.01,0.27,-0.09,
6.963,0.16,0.17,0.56,-0.01,0.27,-0.09,
6.963,0.16,0.07,0.55,-0.01,0.27,-0.09,
6.964,0.16,0.07,0.55,-0.01,0.27,-0.09,
6.976,0.16,0.07,0.55,-0.02,0.26,-0.08,
6.977,0.16,0.07,0.55,-0.02,0.26,-0.08,
6.977,0.15,0.00,0.57,-0.02,0.26,-0.08,
6.978,0.15,0.00,0.57,-0.02,0.26,-0.08,
6.984,0.15,0.00,0.57,-0.01,0.24,-0.07,
6.985,0.15,0.00,0.57,-0.01,0.24,-0.07,
6.985,0.14,-0.04,0.58,-0.01,0.24,-0.07,
6.986,0.14,-0.04,0.58,-0.01,0.24,-0.07,
6.991,0.14,-0.04,0.58,0.01,0.21,-0.05,
6.992,0.14,-0.04,0.58,0.01,0.21,-0.05,
6.992,0.14,-0.03,0.59,0.01,0.21,-0.05,
6.993,0.14,-0.03,0.59,0.01,0.21,-0.05,
7.0,0.14,-0.03,0.59,0.04,0.18,-0.03,
7.002,0.14,-0.03,0.59,0.04,0.18,-0.03,
7.003,0.12,0.02,0.59,0.04,0.18,-0.03,
7.004,0.12,0.02,0.59,0.04,0.18,-0.03,
7.01,0.12,0.02,0.59,0.06,0.15,-0.00,
7.011,0.12,0.02,0.59,0.06,0.15,-0.00,
7.012,0.11,0.08,0.56,0.06,0.15,-0.00,
7.012,0.11,0.08,0.56,0.06,0.15,-0.00,
7.02,0.11,0.08,0.56,0.07,0.11,0.02,
7.022,0.11,0.08,0.56,0.07,0.11,0.02,
7.022,0.11,0.10,0.56,0.07,0.11,0.02,
7.023,0.11,0.10,0.56,0.07,0.11,0.02,
7.029,0.11,0.10,0.56,0.06,0.09,0.04,
7.03,0.11,0.10,0.56,0.06,0.09,0.04,
7.03,0.08,0.10,0.56,0.06,0.09,0.04,
7.031,0.08,0.10,0.56,0.06,0.09,0.04,
7.038,0.08,0.10,0.56,0.04,0.06,0.05,
7.039,0.08,0.10,0.56,0.04,0.06,0.05,
7.04,0.04,0.08,0.59,0.04,0.06,0.05,
7.041,0.04,0.08,0.59,0.04,0.06,0.05,
7.053,0.04,0.08,0.59,0.02,0.04,0.03,
7.054,0.04,0.08,0.59,0.02,0.04,0.03,
7.055,0.01,0.06,0.63,0.02,0.04,0.03,
7.055,0.01,0.06,0.63,0.02,0.04,0.03,
7.058,0.01,0.06,0.63,0.00,0.02,0.02,
7.059,0.01,0.06,0.63,0.00,0.02,0.02,
7.059,-0.02,0.07,0.63,0.00,0.02,0.02,
7.06,-0.02,0.07,0.63,0.00,0.02,0.02,
7.067,-0.02,0.07,0.63,-0.01,-0.01,0.00,
7.068,-0.02,0.07,0.63,-0.01,-0.01,0.00,
7.068,-0.04,0.09,0.62,-0.01,-0.01,0.00,
7.068,-0.04,0.09,0.62,-0.01,-0.01,0.00,
7.077,-0.04,0.09,0.62,-0.01,-0.03,-0.00,
7.078,-0.04,0.09,0.62,-0.01,-0.03,-0.00,
7.078,-0.06,0.08,0.59,-0.01,-0.03,-0.00,
7.079,-0.06,0.08,0.59,-0.01,-0.03,-0.00,
7.087,-0.06,0.08,0.59,-0.01,-0.04,0.00,
7.088,-0.06,0.08,0.59,-0.01,-0.04,0.00,
7.088,-0.11,0.10,0.55,-0.01,-0.04,0.00,
7.089,-0.11,0.10,0.55,-0.01,-0.04,0.00,
7.095,-0.11,0.10,0.55,-0.02,-0.06,0.01,
7.096,-0.11,0.10,0.55,-0.02,-0.06,0.01,
7.097,-0.15,0.13,0.53,-0.02,-0.06,0.01,
7.097,-0.15,0.13,0.53,-0.02,-0.06,0.01,
7.106,-0.15,0.13,0.53,-0.03,-0.08,0.02,
7.107,-0.15,0.13,0.53,-0.03,-0.08,0.02,
7.107,-0.17,0.14,0.53,-0.03,-0.08,0.02,
7.108,-0.17,0.14,0.53,-0.03,-0.08,0.02,
7.115,-0.17,0.14,0.53,-0.04,-0.10,0.02,
7.116,-0.17,0.14,0.53,-0.04,-0.10,0.02,
7.117,-0.19,0.15,0.55,-0.04,-0.10,0.02,
7.117,-0.19,0.15,0.55,-0.04,-0.10,0.02,
7.124,-0.19,0.15,0.55,-0.05,-0.12,0.03,
7.125,-0.19,0.15,0.55,-0.05,-0.12,0.03,
7.126,-0.18,0.12,0.57,-0.05,-0.12,0.03,
7.127,-0.18,0.12,0.57,-0.05,-0.12,0.03,
7.134,-0.18,0.12,0.57,-0.07,-0.14,0.03,
7.134,-0.18,0.12,0.57,-0.07,-0.14,0.03,
7.14,-0.18,0.10,0.56,-0.07,-0.14,0.03,
