
time,ax,ay,az,wx,wy,wz,
0.001,0.03,-0.05,0.75,0.00,-0.00,0.00,
0.002,0.03,-0.05,0.75,0.00,-0.00,0.00,
0.002,-0.06,-0.11,0.29,0.00,-0.00,0.00,
0.002,-0.06,-0.11,0.29,0.00,-0.00,0.00,
0.006,-0.06,-0.11,0.29,0.00,0.00,-0.00,
0.007,-0.06,-0.11,0.29,0.00,0.00,-0.00,
0.007,-0.15,-0.10,-0.12,0.00,0.00,-0.00,
0.008,-0.15,-0.10,-0.12,0.00,0.00,-0.00,
0.016,-0.15,-0.10,-0.12,0.00,0.00,0.00,
0.017,-0.15,-0.10,-0.12,0.00,0.00,0.00,
0.017,-0.19,-0.04,-0.34,0.00,0.00,0.00,
0.017,-0.19,-0.04,-0.34,0.00,0.00,0.00,
0.026,-0.19,-0.04,-0.34,-0.16,-0.04,-0.07,
0.026,-0.19,-0.04,-0.34,-0.16,-0.04,-0.07,
0.027,-0.13,0.06,-0.35,-0.16,-0.04,-0.07,
0.027,-0.13,0.06,-0.35,-0.16,-0.04,-0.07,
0.036,-0.13,0.06,-0.35,-0.13,0.02,-0.05,
0.037,-0.13,0.06,-0.35,-0.13,0.02,-0.05,
0.037,-0.01,0.16,-0.19,-0.13,0.02,-0.05,
0.038,-0.01,0.16,-0.19,-0.13,0.02,-0.05,
0.044,-0.01,0.16,-0.19,-0.07,0.08,-0.03,
0.045,-0.01,0.16,-0.19,-0.07,0.08,-0.03,
0.046,0.14,0.23,0.02,-0.07,0.08,-0.03,
0.046,0.14,0.23,0.02,-0.07,0.08,-0.03,
0.054,0.14,0.23,0.02,-0.00,0.10,0.01,
0.055,0.14,0.23,0.02,-0.00,0.10,0.01,
0.055,0.20,0.29,0.18,-0.00,0.10,0.01,
0.055,0.20,0.29,0.18,-0.00,0.10,0.01,
0.063,0.20,0.29,0.18,0.07,0.08,0.03,
0.064,0.20,0.29,0.18,0.07,0.08,0.03,
0.065,0.17,0.29,0.25,0.07,0.08,0.03,
0.065,0.17,0.29,0.25,0.07,0.08,0.03,
0.075,0.17,0.29,0.25,0.12,0.03,0.04,
0.076,0.17,0.29,0.25,0.12,0.03,0.04,
0.076,0.05,0.21,0.19,0.12,0.03,0.04,
0.076,0.05,0.21,0.19,0.12,0.03,0.04,
0.083,0.05,0.21,0.19,0.15,-0.03,0.04,
0.084,0.05,0.21,0.19,0.15,-0.03,0.04,
0.084,-0.10,0.11,0.11,0.15,-0.03,0.04,
0.084,-0.10,0.11,0.11,0.15,-0.03,0.04,
0.093,-0.10,0.11,0.11,0.16,-0.06,0.02,
0.094,-0.10,0.11,0.11,0.16,-0.06,0.02,
0.094,-0.19,0.02,0.10,0.16,-0.06,0.02,
0.094,-0.19,0.02,0.10,0.16,-0.06,0.02,
0.102,-0.19,0.02,0.10,0.14,-0.05,0.01,
0.103,-0.19,0.02,0.10,0.14,-0.05,0.01,
0.103,-0.22,-0.02,0.16,0.14,-0.05,0.01,
0.103,-0.22,-0.02,0.16,0.14,-0.05,0.01,
0.112,-0.22,-0.02,0.16,0.10,0.01,0.01,
0.113,-0.22,-0.02,0.16,0.10,0.01,0.01,
0.114,-0.19,-0.01,0.28,0.10,0.01,0.01,
0.114,-0.19,-0.01,0.28,0.10,0.01,0.01,
0.121,-0.19,-0.01,0.28,0.04,0.07,0.02,
0.122,-0.19,-0.01,0.28,0.04,0.07,0.02,
0.122,-0.12,0.02,0.38,0.04,0.07,0.02,
0.122,-0.12,0.02,0.38,0.04,0.07,0.02,
0.131,-0.12,0.02,0.38,-0.01,0.12,0.01,
0.132,-0.12,0.02,0.38,-0.01,0.12,0.01,
0.132,-0.05,0.03,0.37,-0.01,0.12,0.01,
0.133,-0.05,0.03,0.37,-0.01,0.12,0.01,
0.141,-0.05,0.03,0.37,-0.01,0.12,0.01,
0.141,-0.05,0.03,0.37,-0.01,0.12,0.01,
0.142,-0.05,0.03,0.37,-0.01,0.12,0.01,
0.142,-0.05,0.03,0.37,-0.01,0.12,0.01,
0.15,-0.05,0.03,0.37,-0.09,0.12,-0.02,
0.151,-0.05,0.03,0.37,-0.09,0.12,-0.02,
0.151,0.01,0.01,0.16,-0.09,0.12,-0.02,
0.152,0.01,0.01,0.16,-0.09,0.12,-0.02,
0.159,0.01,0.01,0.16,-0.09,0.12,-0.02,
0.16,0.01,0.01,0.16,-0.09,0.12,-0.02,
0.16,0.01,0.01,0.16,-0.09,0.12,-0.02,
0.161,0.01,0.01,0.16,-0.09,0.12,-0.02,
0.169,0.01,0.01,0.16,-0.10,0.09,-0.03,
0.17,0.01,0.01,0.16,-0.10,0.09,-0.03,
0.171,-0.00,0.02,0.04,-0.10,0.09,-0.03,
0.171,-0.00,0.02,0.04,-0.10,0.09,-0.03,
0.185,-0.00,0.02,0.04,-0.10,0.04,-0.04,
0.185,-0.00,0.02,0.04,-0.10,0.04,-0.04,
0.186,-0.01,0.04,0.09,-0.10,0.04,-0.04,
0.186,-0.01,0.04,0.09,-0.10,0.04,-0.04,
0.19,-0.01,0.04,0.09,-0.09,0.01,-0.05,
0.191,-0.01,0.04,0.09,-0.09,0.01,-0.05,
0.191,-0.02,0.05,0.15,-0.09,0.01,-0.05,
0.192,-0.02,0.05,0.15,-0.09,0.01,-0.05,
0.197,-0.02,0.05,0.15,-0.07,-0.01,-0.05,
0.198,-0.02,0.05,0.15,-0.07,-0.01,-0.05,
0.199,-0.02,0.03,0.18,-0.07,-0.01,-0.05,
0.2,-0.02,0.03,0.18,-0.07,-0.01,-0.05,
0.207,-0.02,0.03,0.18,-0.05,-0.02,-0.06,
0.207,-0.02,0.03,0.18,-0.05,-0.02,-0.06,
0.208,-0.03,-0.03,0.19,-0.05,-0.02,-0.06,
0.208,-0.03,-0.03,0.19,-0.05,-0.02,-0.06,
0.217,-0.03,-0.03,0.19,-0.04,-0.03,-0.06,
0.218,-0.03,-0.03,0.19,-0.04,-0.03,-0.06,
0.218,-0.07,-0.07,0.19,-0.04,-0.03,-0.06,
0.219,-0.07,-0.07,0.19,-0.04,-0.03,-0.06,
0.226,-0.07,-0.07,0.19,-0.04,-0.03,-0.05,
0.227,-0.07,-0.07,0.19,-0.04,-0.03,-0.05,
0.227,-0.10,-0.12,0.20,-0.04,-0.03,-0.05,
0.228,-0.10,-0.12,0.20,-0.04,-0.03,-0.05,
0.236,-0.10,-0.12,0.20,-0.06,-0.02,-0.05,
0.236,-0.10,-0.12,0.20,-0.06,-0.02,-0.05,
0.237,-0.13,-0.15,0.23,-0.06,-0.02,-0.05,
0.237,-0.13,-0.15,0.23,-0.06,-0.02,-0.05,
0.246,-0.13,-0.15,0.23,-0.08,-0.00,-0.05,
0.247,-0.13,-0.15,0.23,-0.08,-0.00,-0.05,
0.247,-0.14,-0.15,0.27,-0.08,-0.00,-0.05,
0.248,-0.14,-0.15,0.27,-0.08,-0.00,-0.05,
0.256,-0.14,-0.15,0.27,-0.11,0.02,-0.04,
0.257,-0.14,-0.15,0.27,-0.11,0.02,-0.04,
0.257,-0.14,-0.16,0.28,-0.11,0.02,-0.04,
0.258,-0.14,-0.16,0.28,-0.11,0.02,-0.04,
0.264,-0.14,-0.16,0.28,-0.13,0.04,-0.03,
0.265,-0.14,-0.16,0.28,-0.13,0.04,-0.03,
0.265,-0.16,-0.14,0.27,-0.13,0.04,-0.03,
0.266,-0.16,-0.14,0.27,-0.13,0.04,-0.03,
0.273,-0.16,-0.14,0.27,-0.15,0.06,-0.02,
0.274,-0.16,-0.14,0.27,-0.15,0.06,-0.02,
0.275,-0.16,-0.09,0.25,-0.15,0.06,-0.02,
0.275,-0.16,-0.09,0.25,-0.15,0.06,-0.02,
0.282,-0.16,-0.09,0.25,-0.16,0.08,-0.01,
0.283,-0.16,-0.09,0.25,-0.16,0.08,-0.01,
0.283,-0.14,-0.04,0.24,-0.16,0.08,-0.01,
0.284,-0.14,-0.04,0.24,-0.16,0.08,-0.01,
0.298,-0.14,-0.04,0.24,-0.15,0.09,0.00,
0.299,-0.14,-0.04,0.24,-0.15,0.09,0.00,
0.299,-0.09,-0.03,0.25,-0.15,0.09,0.00,
0.3,-0.09,-0.03,0.25,-0.15,0.09,0.00,
0.301,-0.09,-0.03,0.25,-0.13,0.10,0.03,
0.302,-0.09,-0.03,0.25,-0.13,0.10,0.03,
0.302,-0.05,-0.00,0.29,-0.13,0.10,0.03,
0.303,-0.05,-0.00,0.29,-0.13,0.10,0.03,
0.312,-0.05,-0.00,0.29,-0.10,0.10,0.05,
0.313,-0.05,-0.00,0.29,-0.10,0.10,0.05,
0.313,-0.01,-0.00,0.33,-0.10,0.10,0.05,
0.314,-0.01,-0.00,0.33,-0.10,0.10,0.05,
0.323,-0.01,-0.00,0.33,-0.07,0.08,0.07,
0.324,-0.01,-0.00,0.33,-0.07,0.08,0.07,
0.324,0.03,-0.01,0.37,-0.07,0.08,0.07,
0.325,0.03,-0.01,0.37,-0.07,0.08,0.07,
0.343,0.03,-0.01,0.37,-0.04,0.05,0.09,
0.346,0.03,-0.01,0.37,-0.04,0.05,0.09,
0.347,0.04,0.02,0.37,-0.04,0.05,0.09,
0.348,0.04,0.02,0.37,-0.04,0.05,0.09,
0.349,0.04,0.02,0.37,-0.02,0.02,0.10,
0.35,0.04,0.02,0.37,-0.02,0.02,0.10,
0.35,0.04,0.02,0.37,-0.02,0.02,0.10,
0.351,0.05,0.03,0.37,-0.02,0.02,0.10,
0.352,0.05,0.03,0.37,-0.02,0.02,0.10,
0.352,0.05,0.03,0.37,-0.02,0.02,0.10,
0.356,0.05,0.03,0.37,-0.01,-0.01,0.10,
0.357,0.05,0.03,0.37,-0.01,-0.01,0.10,
0.358,0.03,0.02,0.38,-0.01,-0.01,0.10,
0.359,0.03,0.02,0.38,-0.01,-0.01,0.10,
0.364,0.03,0.02,0.38,-0.00,-0.04,0.10,
0.364,0.03,0.02,0.38,-0.00,-0.04,0.10,
0.365,0.01,0.01,0.40,-0.00,-0.04,0.10,
0.365,0.01,0.01,0.40,-0.00,-0.04,0.10,
0.373,0.01,0.01,0.40,0.00,-0.05,0.10,
0.373,0.01,0.01,0.40,0.00,-0.05,0.10,
0.374,0.02,-0.02,0.41,0.00,-0.05,0.10,
0.374,0.02,-0.02,0.41,0.00,-0.05,0.10,
0.384,0.02,-0.02,0.41,0.00,-0.05,0.11,
0.385,0.02,-0.02,0.41,0.00,-0.05,0.11,
0.385,0.06,-0.03,0.38,0.00,-0.05,0.11,
0.386,0.06,-0.03,0.38,0.00,-0.05,0.11,
0.399,0.06,-0.03,0.38,-0.00,-0.05,0.13,
0.4,0.06,-0.03,0.38,-0.00,-0.05,0.13,
0.401,0.10,-0.02,0.33,-0.00,-0.05,0.13,
0.401,0.10,-0.02,0.33,-0.00,-0.05,0.13,
0.406,0.10,-0.02,0.33,-0.01,-0.04,0.16,
0.407,0.10,-0.02,0.33,-0.01,-0.04,0.16,
0.408,0.15,0.00,0.26,-0.01,-0.04,0.16,
0.408,0.15,0.00,0.26,-0.01,-0.04,0.16,
0.414,0.15,0.00,0.26,-0.02,-0.04,0.18,
0.414,0.15,0.00,0.26,-0.02,-0.04,0.18,
0.415,0.20,0.04,0.23,-0.02,-0.04,0.18,
0.416,0.20,0.04,0.23,-0.02,-0.04,0.18,
0.422,0.20,0.04,0.23,-0.02,-0.05,0.18,
0.423,0.20,0.04,0.23,-0.02,-0.05,0.18,
0.424,0.22,0.07,0.21,-0.02,-0.05,0.18,
0.424,0.22,0.07,0.21,-0.02,-0.05,0.18,
0.43,0.22,0.07,0.21,-0.00,-0.08,0.15,
0.431,0.22,0.07,0.21,-0.00,-0.08,0.15,
0.432,0.22,0.06,0.22,-0.00,-0.08,0.15,
0.432,0.22,0.06,0.22,-0.00,-0.08,0.15,
0.44,0.22,0.06,0.22,0.02,-0.12,0.11,
0.44,0.22,0.06,0.22,0.02,-0.12,0.11,
0.44,0.21,0.04,0.24,0.02,-0.12,0.11,
0.441,0.21,0.04,0.24,0.02,-0.12,0.11,
0.45,0.21,0.04,0.24,0.03,-0.14,0.07,
0.451,0.21,0.04,0.24,0.03,-0.14,0.07,
0.451,0.15,0.00,0.25,0.03,-0.14,0.07,
0.452,0.15,0.00,0.25,0.03,-0.14,0.07,
0.459,0.15,0.00,0.25,0.03,-0.14,0.07,
0.46,0.15,0.00,0.25,0.03,-0.14,0.07,
0.461,0.15,0.00,0.25,0.03,-0.14,0.07,
0.461,0.15,0.00,0.25,0.03,-0.14,0.07,
0.469,0.15,0.00,0.25,0.04,-0.15,0.06,
0.47,0.15,0.00,0.25,0.04,-0.15,0.06,
0.476,-0.01,0.05,0.23,0.04,-0.15,0.06,
0.476,-0.01,0.05,0.23,0.04,-0.15,0.06,
0.484,-0.01,0.05,0.23,0.05,-0.14,0.06,
0.486,-0.01,0.05,0.23,0.05,-0.14,0.06,
0.486,-0.06,0.17,0.20,0.05,-0.14,0.06,
0.486,-0.06,0.17,0.20,0.05,-0.14,0.06,
0.493,-0.06,0.17,0.20,0.06,-0.03,0.09,
0.494,-0.06,0.17,0.20,0.06,-0.03,0.09,
0.494,-0.10,0.34,0.16,0.06,-0.03,0.09,
0.495,-0.10,0.34,0.16,0.06,-0.03,0.09,
0.497,-0.10,0.34,0.16,0.06,-0.03,0.09,
0.497,-0.10,0.34,0.16,0.06,-0.03,0.09,
0.498,-0.10,0.34,0.16,0.06,-0.03,0.09,
0.498,-0.10,0.34,0.16,0.06,-0.03,0.09,
0.506,-0.10,0.34,0.16,0.10,0.04,0.10,
0.507,-0.10,0.34,0.16,0.10,0.04,0.10,
0.508,-0.19,0.62,0.06,0.10,0.04,0.10,
0.508,-0.19,0.62,0.06,0.10,0.04,0.10,
0.516,-0.19,0.62,0.06,0.16,0.10,0.12,
0.517,-0.19,0.62,0.06,0.16,0.10,0.12,
0.518,-0.34,0.54,0.08,0.16,0.10,0.12,
0.519,-0.34,0.54,0.08,0.16,0.10,0.12,
0.525,-0.34,0.54,0.08,0.23,0.17,0.14,
0.526,-0.34,0.54,0.08,0.23,0.17,0.14,
0.527,-0.61,0.35,0.11,0.23,0.17,0.14,
0.528,-0.61,0.35,0.11,0.23,0.17,0.14,
0.535,-0.61,0.35,0.11,0.29,0.25,0.19,
0.536,-0.61,0.35,0.11,0.29,0.25,0.19,
0.537,-0.93,0.08,0.03,0.29,0.25,0.19,
0.538,-0.93,0.08,0.03,0.29,0.25,0.19,
0.545,-0.93,0.08,0.03,0.31,0.37,0.23,
0.547,-0.93,0.08,0.03,0.31,0.37,0.23,
0.549,-1.16,-0.26,-0.16,0.31,0.37,0.23,
0.549,-1.16,-0.26,-0.16,0.31,0.37,0.23,
0.555,-1.16,-0.26,-0.16,0.26,0.52,0.27,
0.555,-1.16,-0.26,-0.16,0.26,0.52,0.27,
0.556,-1.15,-0.50,-0.46,0.26,0.52,0.27,
0.556,-1.15,-0.50,-0.46,0.26,0.52,0.27,
0.564,-1.15,-0.50,-0.46,0.15,0.70,0.28,
0.564,-1.15,-0.50,-0.46,0.15,0.70,0.28,
0.565,-0.83,-0.74,-0.86,0.15,0.70,0.28,
0.565,-0.83,-0.74,-0.86,0.15,0.70,0.28,
0.573,-0.83,-0.74,-0.86,-0.02,0.85,0.29,
0.573,-0.83,-0.74,-0.86,-0.02,0.85,0.29,
0.574,-0.33,-0.97,-1.13,-0.02,0.85,0.29,
0.574,-0.33,-0.97,-1.13,-0.02,0.85,0.29,
0.583,-0.33,-0.97,-1.13,-0.19,0.92,0.27,
0.583,-0.33,-0.97,-1.13,-0.19,0.92,0.27,
0.584,0.17,-1.22,-1.27,-0.19,0.92,0.27,
0.585,0.17,-1.22,-1.27,-0.19,0.92,0.27,
0.595,0.17,-1.22,-1.27,-0.37,0.83,0.20,
0.596,0.17,-1.22,-1.27,-0.37,0.83,0.20,
0.596,0.53,-1.46,-1.31,-0.37,0.83,0.20,
0.597,0.53,-1.46,-1.31,-0.37,0.83,0.20,
0.602,0.53,-1.46,-1.31,-0.53,0.58,0.10,
0.603,0.53,-1.46,-1.31,-0.53,0.58,0.10,
0.604,0.81,-1.69,-1.30,-0.53,0.58,0.10,
0.605,0.81,-1.69,-1.30,-0.53,0.58,0.10,
0.612,0.81,-1.69,-1.30,-0.70,0.21,-0.04,
0.613,0.81,-1.69,-1.30,-0.70,0.21,-0.04,
0.613,1.13,-1.88,-1.37,-0.70,0.21,-0.04,
0.614,1.13,-1.88,-1.37,-0.70,0.21,-0.04,
0.622,1.13,-1.88,-1.37,-0.88,-0.21,-0.17,
0.622,1.13,-1.88,-1.37,-0.88,-0.21,-0.17,
0.623,1.66,-1.98,-1.55,-0.88,-0.21,-0.17,
0.624,1.66,-1.98,-1.55,-0.88,-0.21,-0.17,
0.63,1.66,-1.98,-1.55,-1.05,-0.63,-0.27,
0.631,1.66,-1.98,-1.55,-1.05,-0.63,-0.27,
0.632,3.28,-2.07,-1.82,-1.05,-0.63,-0.27,
0.632,3.28,-2.07,-1.82,-1.05,-0.63,-0.27,
0.64,3.28,-2.07,-1.82,-1.21,-1.10,-0.34,
0.641,3.28,-2.07,-1.82,-1.21,-1.10,-0.34,
0.641,3.67,-2.11,-1.84,-1.21,-1.10,-0.34,
0.642,3.67,-2.11,-1.84,-1.21,-1.10,-0.34,
0.65,3.67,-2.11,-1.84,-1.34,-1.70,-0.44,
0.651,3.67,-2.11,-1.84,-1.34,-1.70,-0.44,
0.651,4.10,-2.18,-1.49,-1.34,-1.70,-0.44,
0.652,4.10,-2.18,-1.49,-1.34,-1.70,-0.44,
0.659,4.10,-2.18,-1.49,-1.34,-1.70,-0.44,
0.66,4.10,-2.18,-1.49,-1.34,-1.70,-0.44,
0.66,4.10,-2.18,-1.49,-1.34,-1.70,-0.44,
0.661,4.10,-2.18,-1.49,-1.34,-1.70,-0.44,
0.668,4.10,-2.18,-1.49,-1.43,-2.43,-0.61,
0.669,4.10,-2.18,-1.49,-1.43,-2.43,-0.61,
0.669,4.30,-2.48,0.58,-1.43,-2.43,-0.61,
0.67,4.30,-2.48,0.58,-1.43,-2.43,-0.61,
0.678,4.30,-2.48,0.58,-1.53,-3.13,-0.71,
0.679,4.30,-2.48,0.58,-1.53,-3.13,-0.71,
0.679,4.21,-2.83,1.02,-1.53,-3.13,-0.71,
0.68,4.21,-2.83,1.02,-1.53,-3.13,-0.71,
0.688,4.21,-2.83,1.02,-1.65,-3.58,-0.73,
0.689,4.21,-2.83,1.02,-1.65,-3.58,-0.73,
0.69,4.10,-3.38,1.20,-1.65,-3.58,-0.73,
0.69,4.10,-3.38,1.20,-1.65,-3.58,-0.73,
0.697,4.10,-3.38,1.20,-1.80,-3.69,-0.72,
0.698,4.10,-3.38,1.20,-1.80,-3.69,-0.72,
0.698,4.07,-4.85,0.97,-1.80,-3.69,-0.72,
0.699,4.07,-4.85,0.97,-1.80,-3.69,-0.72,
0.706,4.07,-4.85,0.97,-1.98,-3.51,-0.56,
0.707,4.07,-4.85,0.97,-1.98,-3.51,-0.56,
0.71,4.27,-5.25,-0.90,-1.98,-3.51,-0.56,
0.711,4.27,-5.25,-0.90,-1.98,-3.51,-0.56,
0.717,4.27,-5.25,-0.90,-2.25,-3.22,-0.34,
0.718,4.27,-5.25,-0.90,-2.25,-3.22,-0.34,
0.718,4.55,-5.58,-3.22,-2.25,-3.22,-0.34,
0.719,4.55,-5.58,-3.22,-2.25,-3.22,-0.34,
0.725,4.55,-5.58,-3.22,-2.62,-2.98,-0.16,
0.727,4.55,-5.58,-3.22,-2.62,-2.98,-0.16,
0.727,4.66,-5.65,-5.22,-2.62,-2.98,-0.16,
0.728,4.66,-5.65,-5.22,-2.62,-2.98,-0.16,
0.735,4.66,-5.65,-5.22,-3.06,-2.92,-0.10,
0.736,4.66,-5.65,-5.22,-3.06,-2.92,-0.10,
0.737,4.50,-5.33,-5.48,-3.06,-2.92,-0.10,
0.737,4.50,-5.33,-5.48,-3.06,-2.92,-0.10,
0.745,4.50,-5.33,-5.48,-3.52,-3.04,-0.16,
0.747,4.50,-5.33,-5.48,-3.52,-3.04,-0.16,
0.748,4.45,-3.18,-3.98,-3.52,-3.04,-0.16,
0.749,4.45,-3.18,-3.98,-3.52,-3.04,-0.16,
0.755,4.45,-3.18,-3.98,-3.82,-3.27,-0.25,
0.756,4.45,-3.18,-3.98,-3.82,-3.27,-0.25,
0.756,4.84,-2.63,-2.00,-3.82,-3.27,-0.25,
0.757,4.84,-2.63,-2.00,-3.82,-3.27,-0.25,
0.764,4.84,-2.63,-2.00,-3.69,-3.44,-0.28,
0.765,4.84,-2.63,-2.00,-3.69,-3.44,-0.28,
0.765,7.03,-0.73,-1.62,-3.69,-3.44,-0.28,
0.766,7.03,-0.73,-1.62,-3.69,-3.44,-0.28,
0.773,7.03,-0.73,-1.62,-2.92,-3.46,-0.29,
0.774,7.03,-0.73,-1.62,-2.92,-3.46,-0.29,
0.775,9.51,-0.26,-1.37,-2.92,-3.46,-0.29,
0.775,9.51,-0.26,-1.37,-2.92,-3.46,-0.29,
0.782,9.51,-0.26,-1.37,-1.66,-3.50,-0.40,
0.783,9.51,-0.26,-1.37,-1.66,-3.50,-0.40,
0.784,9.93,-0.04,-1.71,-1.66,-3.50,-0.40,
0.785,9.93,-0.04,-1.71,-1.66,-3.50,-0.40,
0.793,9.93,-0.04,-1.71,-0.36,-3.74,-0.72,
0.795,9.93,-0.04,-1.71,-0.36,-3.74,-0.72,
0.795,9.80,-0.27,-3.36,-0.36,-3.74,-0.72,
0.796,9.80,-0.27,-3.36,-0.36,-3.74,-0.72,
0.802,9.80,-0.27,-3.36,0.61,-4.17,-1.15,
0.803,9.80,-0.27,-3.36,0.61,-4.17,-1.15,
0.803,7.28,-1.83,-5.34,0.61,-4.17,-1.15,
0.804,7.28,-1.83,-5.34,0.61,-4.17,-1.15,
0.812,7.28,-1.83,-5.34,1.12,-4.58,-1.47,
0.813,7.28,-1.83,-5.34,1.12,-4.58,-1.47,
0.813,4.86,-2.08,-5.78,1.12,-4.58,-1.47,
0.814,4.86,-2.08,-5.78,1.12,-4.58,-1.47,
0.821,4.86,-2.08,-5.78,1.29,-4.77,-1.47,
0.822,4.86,-2.08,-5.78,1.29,-4.77,-1.47,
0.823,2.93,-2.53,-7.24,1.29,-4.77,-1.47,
0.823,2.93,-2.53,-7.24,1.29,-4.77,-1.47,
0.831,2.93,-2.53,-7.24,1.31,-4.68,-1.13,
0.832,2.93,-2.53,-7.24,1.31,-4.68,-1.13,
0.833,2.28,-4.36,-7.64,1.31,-4.68,-1.13,
0.833,2.28,-4.36,-7.64,1.31,-4.68,-1.13,
0.841,2.28,-4.36,-7.64,1.25,-4.33,-0.51,
0.842,2.28,-4.36,-7.64,1.25,-4.33,-0.51,
0.843,0.52,-4.67,-9.32,1.25,-4.33,-0.51,
0.843,0.52,-4.67,-9.32,1.25,-4.33,-0.51,
0.851,0.52,-4.67,-9.32,1.04,-3.89,0.31,
0.852,0.52,-4.67,-9.32,1.04,-3.89,0.31,
0.853,-0.15,-6.49,-9.71,1.04,-3.89,0.31,
0.853,-0.15,-6.49,-9.71,1.04,-3.89,0.31,
0.859,-0.15,-6.49,-9.71,1.04,-3.89,0.31,
0.86,-0.15,-6.49,-9.71,1.04,-3.89,0.31,
0.861,-0.15,-6.49,-9.71,1.04,-3.89,0.31,
0.862,-0.15,-6.49,-9.71,1.04,-3.89,0.31,
0.868,-0.15,-6.49,-9.71,0.44,-3.53,1.33,
0.869,-0.15,-6.49,-9.71,0.44,-3.53,1.33,
0.87,-1.08,-7.45,-11.66,0.44,-3.53,1.33,
0.87,-1.08,-7.45,-11.66,0.44,-3.53,1.33,
0.878,-1.08,-7.45,-11.66,-0.70,-3.37,2.67,
0.879,-1.08,-7.45,-11.66,-0.70,-3.37,2.67,
0.88,-1.09,-8.79,-11.49,-0.70,-3.37,2.67,
0.88,-1.09,-8.79,-11.49,-0.70,-3.37,2.67,
0.888,-1.09,-8.79,-11.49,-2.44,-3.52,4.59,
0.889,-1.09,-8.79,-11.49,-2.44,-3.52,4.59,
0.889,-0.71,-9.02,-10.96,-2.44,-3.52,4.59,
0.89,-0.71,-9.02,-10.96,-2.44,-3.52,4.59,
0.897,-0.71,-9.02,-10.96,-4.42,-4.10,7.16,
0.898,-0.71,-9.02,-10.96,-4.42,-4.10,7.16,
0.898,0.80,-9.37,-9.24,-4.42,-4.10,7.16,
0.899,0.80,-9.37,-9.24,-4.42,-4.10,7.16,
0.906,0.80,-9.37,-9.24,-5.80,-5.10,9.67,
0.907,0.80,-9.37,-9.24,-5.80,-5.10,9.67,
0.908,2.18,-9.78,-8.66,-5.80,-5.10,9.67,
0.908,2.18,-9.78,-8.66,-5.80,-5.10,9.67,
0.917,2.18,-9.78,-8.66,-5.93,-6.14,10.90,
0.918,2.18,-9.78,-8.66,-5.93,-6.14,10.90,
0.919,4.09,-10.11,-6.89,-5.93,-6.14,10.90,
0.919,4.09,-10.11,-6.89,-5.93,-6.14,10.90,
0.926,4.09,-10.11,-6.89,-4.96,-6.75,10.44,
0.928,4.09,-10.11,-6.89,-4.96,-6.75,10.44,
0.928,7.69,-10.23,-6.53,-4.96,-6.75,10.44,
0.929,7.69,-10.23,-6.53,-4.96,-6.75,10.44,
0.936,7.69,-10.23,-6.53,-3.44,-6.88,8.74,
0.936,7.69,-10.23,-6.53,-3.44,-6.88,8.74,
0.937,10.34,-9.95,-5.95,-3.44,-6.88,8.74,
0.938,10.34,-9.95,-5.95,-3.44,-6.88,8.74,
0.944,10.34,-9.95,-5.95,-1.79,-6.77,6.40,
0.945,10.34,-9.95,-5.95,-1.79,-6.77,6.40,
0.951,12.82,-9.37,-5.42,-1.79,-6.77,6.40,
0.952,12.82,-9.37,-5.42,-1.79,-6.77,6.40,
0.955,12.82,-9.37,-5.42,-0.23,-6.66,3.92,
0.956,12.82,-9.37,-5.42,-0.23,-6.66,3.92,
0.956,14.97,-7.33,-5.02,-0.23,-6.66,3.92,
0.957,14.97,-7.33,-5.02,-0.23,-6.66,3.92,
0.963,14.97,-7.33,-5.02,1.18,-6.62,1.66,
0.964,14.97,-7.33,-5.02,1.18,-6.62,1.66,
0.965,16.70,-6.72,-4.96,1.18,-6.62,1.66,
0.966,16.70,-6.72,-4.96,1.18,-6.62,1.66,
0.973,16.70,-6.72,-4.96,2.45,-6.60,-0.19,
0.973,16.70,-6.72,-4.96,2.45,-6.60,-0.19,
0.974,18.07,-4.66,-5.27,2.45,-6.60,-0.19,
0.974,18.07,-4.66,-5.27,2.45,-6.60,-0.19,
0.982,18.07,-4.66,-5.27,3.58,-6.54,-1.61,
0.983,18.07,-4.66,-5.27,3.58,-6.54,-1.61,
0.983,18.05,-4.10,-6.93,3.58,-6.54,-1.61,
0.984,18.05,-4.10,-6.93,3.58,-6.54,-1.61,
0.993,18.05,-4.10,-6.93,4.53,-6.45,-2.61,
0.994,18.05,-4.10,-6.93,4.53,-6.45,-2.61,
0.994,17.78,-3.37,-7.29,4.53,-6.45,-2.61,
0.994,17.78,-3.37,-7.29,4.53,-6.45,-2.61,
1.002,17.78,-3.37,-7.29,5.23,-6.33,-3.24,
1.002,17.78,-3.37,-7.29,5.23,-6.33,-3.24,
1.003,17.01,-2.78,-9.11,5.23,-6.33,-3.24,
1.003,17.01,-2.78,-9.11,5.23,-6.33,-3.24,
1.012,17.01,-2.78,-9.11,5.68,-6.21,-3.54,
1.013,17.01,-2.78,-9.11,5.68,-6.21,-3.54,
1.013,14.72,-2.44,-10.63,5.68,-6.21,-3.54,
1.013,14.72,-2.44,-10.63,5.68,-6.21,-3.54,
1.021,14.72,-2.44,-10.63,5.86,-6.10,-3.59,
1.022,14.72,-2.44,-10.63,5.86,-6.10,-3.59,
1.022,12.49,-2.24,-12.14,5.86,-6.10,-3.59,
1.022,12.49,-2.24,-12.14,5.86,-6.10,-3.59,
1.03,12.49,-2.24,-12.14,5.81,-6.02,-3.46,
1.03,12.49,-2.24,-12.14,5.81,-6.02,-3.46,
1.031,11.78,-2.10,-13.39,5.81,-6.02,-3.46,
1.031,11.78,-2.10,-13.39,5.81,-6.02,-3.46,
1.041,11.78,-2.10,-13.39,5.56,-6.01,-3.21,
1.041,11.78,-2.10,-13.39,5.56,-6.01,-3.21,
1.042,10.93,-1.86,-13.53,5.56,-6.01,-3.21,
1.042,10.93,-1.86,-13.53,5.56,-6.01,-3.21,
1.049,10.93,-1.86,-13.53,5.56,-6.01,-3.21,
1.05,10.93,-1.86,-13.53,5.56,-6.01,-3.21,
1.05,10.93,-1.86,-13.53,5.56,-6.01,-3.21,
1.051,10.93,-1.86,-13.53,5.56,-6.01,-3.21,
1.06,10.93,-1.86,-13.53,5.16,-6.06,-2.90,
1.061,10.93,-1.86,-13.53,5.16,-6.06,-2.90,
1.061,9.64,-1.11,-13.75,5.16,-6.06,-2.90,
1.062,9.64,-1.11,-13.75,5.16,-6.06,-2.90,
1.069,9.64,-1.11,-13.75,4.67,-6.11,-2.60,
1.069,9.64,-1.11,-13.75,4.67,-6.11,-2.60,
1.07,8.84,-0.56,-13.37,4.67,-6.11,-2.60,
1.07,8.84,-0.56,-13.37,4.67,-6.11,-2.60,
1.083,8.84,-0.56,-13.37,4.16,-6.11,-2.34,
1.084,8.84,-0.56,-13.37,4.16,-6.11,-2.34,
1.085,7.99,-0.09,-12.80,4.16,-6.11,-2.34,
1.085,7.99,-0.09,-12.80,4.16,-6.11,-2.34,
1.088,7.99,-0.09,-12.80,3.69,-6.00,-2.16,
1.089,7.99,-0.09,-12.80,3.69,-6.00,-2.16,
1.089,7.06,0.23,-12.07,3.69,-6.00,-2.16,
1.089,7.06,0.23,-12.07,3.69,-6.00,-2.16,
1.097,7.06,0.23,-12.07,3.29,-5.77,-2.04,
1.097,7.06,0.23,-12.07,3.29,-5.77,-2.04,
1.098,6.17,0.38,-11.21,3.29,-5.77,-2.04,
1.098,6.17,0.38,-11.21,3.29,-5.77,-2.04,
1.106,6.17,0.38,-11.21,2.96,-5.44,-1.95,
1.107,6.17,0.38,-11.21,2.96,-5.44,-1.95,
1.108,5.38,0.35,-10.20,2.96,-5.44,-1.95,
1.108,5.38,0.35,-10.20,2.96,-5.44,-1.95,
1.116,5.38,0.35,-10.20,2.69,-5.02,-1.86,
1.117,5.38,0.35,-10.20,2.69,-5.02,-1.86,
1.117,4.67,0.19,-8.09,2.69,-5.02,-1.86,
1.118,4.67,0.19,-8.09,2.69,-5.02,-1.86,
1.126,4.67,0.19,-8.09,2.50,-4.51,-1.74,
1.127,4.67,0.19,-8.09,2.50,-4.51,-1.74,
1.128,4.01,-0.07,-7.41,2.50,-4.51,-1.74,
1.129,4.01,-0.07,-7.41,2.50,-4.51,-1.74,
1.135,4.01,-0.07,-7.41,2.35,-3.90,-1.57,
1.135,4.01,-0.07,-7.41,2.35,-3.90,-1.57,
1.136,3.33,-0.40,-6.62,2.35,-3.90,-1.57,
1.136,3.33,-0.40,-6.62,2.35,-3.90,-1.57,
1.145,3.33,-0.40,-6.62,2.19,-3.21,-1.32,
1.147,3.33,-0.40,-6.62,2.19,-3.21,-1.32,
1.147,2.66,-0.73,-5.93,2.19,-3.21,-1.32,
1.148,2.66,-0.73,-5.93,2.19,-3.21,-1.32,
1.155,2.66,-0.73,-5.93,1.97,-2.50,-0.98,
1.156,2.66,-0.73,-5.93,1.97,-2.50,-0.98,
1.156,2.00,-1.07,-5.34,1.97,-2.50,-0.98,
1.157,2.00,-1.07,-5.34,1.97,-2.50,-0.98,
1.164,2.00,-1.07,-5.34,1.69,-2.03,-0.56,
1.164,2.00,-1.07,-5.34,1.69,-2.03,-0.56,
1.165,1.44,-1.33,-4.87,1.69,-2.03,-0.56,
1.166,1.44,-1.33,-4.87,1.69,-2.03,-0.56,
1.173,1.44,-1.33,-4.87,1.35,-1.63,-0.10,
1.174,1.44,-1.33,-4.87,1.35,-1.63,-0.10,
1.174,0.98,-1.47,-4.47,1.35,-1.63,-0.10,
1.175,0.98,-1.47,-4.47,1.35,-1.63,-0.10,
1.182,0.98,-1.47,-4.47,0.98,-1.11,0.38,
1.183,0.98,-1.47,-4.47,0.98,-1.11,0.38,
1.19,0.61,-1.47,-4.11,0.98,-1.11,0.38,
1.191,0.61,-1.47,-4.11,0.98,-1.11,0.38,
1.198,0.61,-1.47,-4.11,0.62,-0.70,0.83,
1.199,0.61,-1.47,-4.11,0.62,-0.70,0.83,
1.2,0.34,-1.37,-3.84,0.62,-0.70,0.83,
1.2,0.34,-1.37,-3.84,0.62,-0.70,0.83,
1.201,0.34,-1.37,-3.84,0.29,-0.39,1.21,
1.202,0.34,-1.37,-3.84,0.29,-0.39,1.21,
1.202,0.06,-1.31,-3.67,0.29,-0.39,1.21,
1.203,0.06,-1.31,-3.67,0.29,-0.39,1.21,
1.211,0.06,-1.31,-3.67,0.03,-0.17,1.49,
1.212,0.06,-1.31,-3.67,0.03,-0.17,1.49,
1.212,-0.23,-1.34,-3.52,0.03,-0.17,1.49,
1.213,-0.23,-1.34,-3.52,0.03,-0.17,1.49,
1.221,-0.23,-1.34,-3.52,-0.19,-0.04,1.67,
1.222,-0.23,-1.34,-3.52,-0.19,-0.04,1.67,
1.223,-0.56,-1.55,-3.33,-0.19,-0.04,1.67,
1.223,-0.56,-1.55,-3.33,-0.19,-0.04,1.67,
1.23,-0.56,-1.55,-3.33,-0.38,0.03,1.78,
1.231,-0.56,-1.55,-3.33,-0.38,0.03,1.78,
1.232,-0.91,-1.93,-3.01,-0.38,0.03,1.78,
1.233,-0.91,-1.93,-3.01,-0.38,0.03,1.78,
1.24,-0.91,-1.93,-3.01,-0.57,0.06,1.86,
1.242,-0.91,-1.93,-3.01,-0.57,0.06,1.86,
1.242,-1.22,-2.38,-2.52,-0.57,0.06,1.86,
1.243,-1.22,-2.38,-2.52,-0.57,0.06,1.86,
1.249,-1.22,-2.38,-2.52,-0.57,0.06,1.86,
1.25,-1.22,-2.38,-2.52,-0.57,0.06,1.86,
1.251,-1.22,-2.38,-2.52,-0.57,0.06,1.86,
1.251,-1.22,-2.38,-2.52,-0.57,0.06,1.86,
1.26,-1.22,-2.38,-2.52,-0.78,0.12,1.98,
1.261,-1.22,-2.38,-2.52,-0.78,0.12,1.98,
1.262,-1.53,-3.05,-1.23,-0.78,0.12,1.98,
1.263,-1.53,-3.05,-1.23,-0.78,0.12,1.98,
1.268,-1.53,-3.05,-1.23,-1.01,0.25,2.18,
1.269,-1.53,-3.05,-1.23,-1.01,0.25,2.18,
1.27,-1.50,-3.26,-0.42,-1.01,0.25,2.18,
1.27,-1.50,-3.26,-0.42,-1.01,0.25,2.18,
1.278,-1.50,-3.26,-0.42,-1.19,0.54,2.43,
1.279,-1.50,-3.26,-0.42,-1.19,0.54,2.43,
1.28,-1.37,-3.36,0.31,-1.19,0.54,2.43,
1.28,-1.37,-3.36,0.31,-1.19,0.54,2.43,
1.29,-1.37,-3.36,0.31,-1.27,0.97,2.70,
1.291,-1.37,-3.36,0.31,-1.27,0.97,2.70,
1.292,-1.20,-3.40,0.80,-1.27,0.97,2.70,
1.292,-1.20,-3.40,0.80,-1.27,0.97,2.70,
1.296,-1.20,-3.40,0.80,-1.20,1.48,2.87,
1.297,-1.20,-3.40,0.80,-1.20,1.48,2.87,
1.298,-1.09,-3.43,1.05,-1.20,1.48,2.87,
1.298,-1.09,-3.43,1.05,-1.20,1.48,2.87,
1.306,-1.09,-3.43,1.05,-1.00,1.93,2.90,
1.307,-1.09,-3.43,1.05,-1.00,1.93,2.90,
1.308,-1.07,-3.45,1.10,-1.00,1.93,2.90,
1.308,-1.07,-3.45,1.10,-1.00,1.93,2.90,
1.316,-1.07,-3.45,1.10,-0.75,2.26,2.79,
1.317,-1.07,-3.45,1.10,-0.75,2.26,2.79,
1.318,-1.10,-3.46,0.99,-0.75,2.26,2.79,
1.319,-1.10,-3.46,0.99,-0.75,2.26,2.79,
1.326,-1.10,-3.46,0.99,-0.52,2.42,2.58,
1.327,-1.10,-3.46,0.99,-0.52,2.42,2.58,
1.328,-1.19,-3.46,0.86,-0.52,2.42,2.58,
1.328,-1.19,-3.46,0.86,-0.52,2.42,2.58,
1.348,-1.19,-3.46,0.86,-0.36,2.43,2.35,
1.349,-1.19,-3.46,0.86,-0.36,2.43,2.35,
1.35,-1.30,-3.45,0.76,-0.36,2.43,2.35,
1.35,-1.30,-3.45,0.76,-0.36,2.43,2.35,
1.351,-1.30,-3.45,0.76,-0.30,2.11,1.90,
1.352,-1.30,-3.45,0.76,-0.30,2.11,1.90,
1.352,-1.30,-3.45,0.76,-0.30,2.11,1.90,
1.353,-1.36,-3.43,0.79,-0.30,2.11,1.90,
1.353,-1.36,-3.43,0.79,-0.30,2.11,1.90,
1.354,-1.36,-3.43,0.79,-0.30,2.11,1.90,
1.359,-1.36,-3.43,0.79,-0.30,2.11,1.90,
1.36,-1.36,-3.43,0.79,-0.30,2.11,1.90,
1.361,-1.36,-3.43,0.79,-0.30,2.11,1.90,
1.362,-1.36,-3.43,0.79,-0.30,2.11,1.90,
1.368,-1.36,-3.43,0.79,-0.56,1.69,1.63,
1.369,-1.36,-3.43,0.79,-0.56,1.69,1.63,
1.369,-1.58,-3.76,0.95,-0.56,1.69,1.63,
1.369,-1.58,-3.76,0.95,-0.56,1.69,1.63,
1.378,-1.58,-3.76,0.95,-0.56,1.69,1.63,
1.379,-1.58,-3.76,0.95,-0.56,1.69,1.63,
1.38,-1.58,-3.76,0.95,-0.56,1.69,1.63,
1.38,-1.58,-3.76,0.95,-0.56,1.69,1.63,
1.388,-1.58,-3.76,0.95,-0.81,1.39,1.58,
1.388,-1.58,-3.76,0.95,-0.81,1.39,1.58,
1.389,-1.54,-3.95,1.92,-0.81,1.39,1.58,
1.389,-1.54,-3.95,1.92,-0.81,1.39,1.58,
1.397,-1.54,-3.95,1.92,-0.80,1.33,1.57,
1.398,-1.54,-3.95,1.92,-0.80,1.33,1.57,
1.398,-1.23,-3.92,3.46,-0.80,1.33,1.57,
1.399,-1.23,-3.92,3.46,-0.80,1.33,1.57,
1.406,-1.23,-3.92,3.46,-0.66,1.33,1.52,
1.407,-1.23,-3.92,3.46,-0.66,1.33,1.52,
1.408,-0.76,-3.89,3.92,-0.66,1.33,1.52,
1.408,-0.76,-3.89,3.92,-0.66,1.33,1.52,
1.416,-0.76,-3.89,3.92,-0.36,1.41,1.44,
1.417,-0.76,-3.89,3.92,-0.36,1.41,1.44,
1.417,-0.19,-3.87,4.47,-0.36,1.41,1.44,
1.418,-0.19,-3.87,4.47,-0.36,1.41,1.44,
1.431,-0.19,-3.87,4.47,0.58,1.69,1.10,
1.432,-0.19,-3.87,4.47,0.58,1.69,1.10,
1.433,0.31,-3.80,4.94,0.58,1.69,1.10,
1.433,0.31,-3.80,4.94,0.58,1.69,1.10,
1.435,0.31,-3.80,4.94,0.58,1.69,1.10,
1.436,0.31,-3.80,4.94,0.58,1.69,1.10,
1.437,0.31,-3.80,4.94,0.58,1.69,1.10,
1.438,0.31,-3.80,4.94,0.58,1.69,1.10,
1.445,0.31,-3.80,4.94,1.04,1.80,0.88,
1.446,0.31,-3.80,4.94,1.04,1.80,0.88,
1.447,0.79,-3.98,5.40,1.04,1.80,0.88,
1.447,0.79,-3.98,5.40,1.04,1.80,0.88,
1.454,0.79,-3.98,5.40,1.41,1.83,0.66,
1.455,0.79,-3.98,5.40,1.41,1.83,0.66,
1.455,0.89,-3.95,5.31,1.41,1.83,0.66,
1.456,0.89,-3.95,5.31,1.41,1.83,0.66,
1.464,0.89,-3.95,5.31,1.66,1.80,0.49,
1.465,0.89,-3.95,5.31,1.66,1.80,0.49,
1.465,0.91,-3.82,5.00,1.66,1.80,0.49,
1.466,0.91,-3.82,5.00,1.66,1.80,0.49,
1.473,0.91,-3.82,5.00,1.81,1.71,0.37,
1.473,0.91,-3.82,5.00,1.81,1.71,0.37,
1.474,0.81,-3.65,4.51,1.81,1.71,0.37,
1.474,0.81,-3.65,4.51,1.81,1.71,0.37,
1.483,0.81,-3.65,4.51,1.85,1.47,0.28,
1.484,0.81,-3.65,4.51,1.85,1.47,0.28,
1.484,0.59,-3.41,3.94,1.85,1.47,0.28,
1.484,0.59,-3.41,3.94,1.85,1.47,0.28,
1.493,0.59,-3.41,3.94,1.77,1.19,0.23,
1.494,0.59,-3.41,3.94,1.77,1.19,0.23,
1.495,0.33,-3.14,3.37,1.77,1.19,0.23,
1.495,0.33,-3.14,3.37,1.77,1.19,0.23,
1.502,0.33,-3.14,3.37,1.57,0.95,0.21,
1.503,0.33,-3.14,3.37,1.57,0.95,0.21,
1.503,0.10,-2.86,2.87,1.57,0.95,0.21,
1.504,0.10,-2.86,2.87,1.57,0.95,0.21,
1.511,0.10,-2.86,2.87,1.30,0.68,0.20,
1.512,0.10,-2.86,2.87,1.30,0.68,0.20,
1.513,-0.07,-2.55,2.52,1.30,0.68,0.20,
1.513,-0.07,-2.55,2.52,1.30,0.68,0.20,
1.521,-0.07,-2.55,2.52,0.98,0.40,0.21,
1.522,-0.07,-2.55,2.52,0.98,0.40,0.21,
1.523,-0.05,-2.26,2.30,0.98,0.40,0.21,
1.524,-0.05,-2.26,2.30,0.98,0.40,0.21,
1.531,-0.05,-2.26,2.30,0.66,0.14,0.22,
1.531,-0.05,-2.26,2.30,0.66,0.14,0.22,
1.532,0.11,-2.03,2.23,0.66,0.14,0.22,
1.533,0.11,-2.03,2.23,0.66,0.14,0.22,
1.541,0.11,-2.03,2.23,0.66,0.14,0.22,
1.542,0.11,-2.03,2.23,0.66,0.14,0.22,
1.543,0.11,-2.03,2.23,0.66,0.14,0.22,
1.544,0.11,-2.03,2.23,0.66,0.14,0.22,
1.549,0.11,-2.03,2.23,0.36,-0.08,0.21,
1.55,0.11,-2.03,2.23,0.36,-0.08,0.21,
1.55,0.42,-1.87,2.34,0.36,-0.08,0.21,
1.551,0.42,-1.87,2.34,0.36,-0.08,0.21,
1.559,0.42,-1.87,2.34,0.13,-0.25,0.19,
1.56,0.42,-1.87,2.34,0.13,-0.25,0.19,
1.561,0.43,-1.80,2.28,0.13,-0.25,0.19,
1.562,0.43,-1.80,2.28,0.13,-0.25,0.19,
1.568,0.43,-1.80,2.28,-0.02,-0.37,0.14,
1.569,0.43,-1.80,2.28,-0.02,-0.37,0.14,
1.569,0.15,-1.78,2.14,-0.02,-0.37,0.14,
1.57,0.15,-1.78,2.14,-0.02,-0.37,0.14,
1.579,0.15,-1.78,2.14,-0.08,-0.43,0.10,
1.58,0.15,-1.78,2.14,-0.08,-0.43,0.10,
1.581,-0.32,-1.76,1.93,-0.08,-0.43,0.10,
1.582,-0.32,-1.76,1.93,-0.08,-0.43,0.10,
1.587,-0.32,-1.76,1.93,-0.12,-0.45,0.10,
1.588,-0.32,-1.76,1.93,-0.12,-0.45,0.10,
1.589,-0.81,-1.71,1.74,-0.12,-0.45,0.10,
1.589,-0.81,-1.71,1.74,-0.12,-0.45,0.10,
1.597,-0.81,-1.71,1.74,-0.16,-0.41,0.16,
1.597,-0.81,-1.71,1.74,-0.16,-0.41,0.16,
1.598,-1.22,-1.60,1.63,-0.16,-0.41,0.16,
1.599,-1.22,-1.60,1.63,-0.16,-0.41,0.16,
1.607,-1.22,-1.60,1.63,-0.23,-0.34,0.30,
1.608,-1.22,-1.60,1.63,-0.23,-0.34,0.30,
1.609,-1.46,-1.41,1.41,-0.23,-0.34,0.30,
1.61,-1.46,-1.41,1.41,-0.23,-0.34,0.30,
1.616,-1.46,-1.41,1.41,-0.29,-0.25,0.50,
1.617,-1.46,-1.41,1.41,-0.29,-0.25,0.50,
1.617,-1.66,-1.18,0.69,-0.29,-0.25,0.50,
1.618,-1.66,-1.18,0.69,-0.29,-0.25,0.50,
1.625,-1.66,-1.18,0.69,-0.34,-0.20,0.71,
1.627,-1.66,-1.18,0.69,-0.34,-0.20,0.71,
1.627,-1.77,-0.92,-0.96,-0.34,-0.20,0.71,
1.628,-1.77,-0.92,-0.96,-0.34,-0.20,0.71,
1.635,-1.77,-0.92,-0.96,-0.43,-0.22,0.89,
1.636,-1.77,-0.92,-0.96,-0.43,-0.22,0.89,
1.637,-1.94,-0.63,-1.42,-0.43,-0.22,0.89,
1.637,-1.94,-0.63,-1.42,-0.43,-0.22,0.89,
1.645,-1.94,-0.63,-1.42,-0.64,-0.37,1.01,
1.647,-1.94,-0.63,-1.42,-0.64,-0.37,1.01,
1.648,-2.17,-0.36,-1.90,-0.64,-0.37,1.01,
1.648,-2.17,-0.36,-1.90,-0.64,-0.37,1.01,
1.654,-2.17,-0.36,-1.90,-0.96,-0.26,1.07,
1.656,-2.17,-0.36,-1.90,-0.96,-0.26,1.07,
1.656,-2.35,-0.09,-1.72,-0.96,-0.26,1.07,
1.657,-2.35,-0.09,-1.72,-0.96,-0.26,1.07,
1.664,-2.35,-0.09,-1.72,-1.29,-0.26,1.10,
1.664,-2.35,-0.09,-1.72,-1.29,-0.26,1.10,
1.665,-2.40,0.09,-0.35,-1.29,-0.26,1.10,
1.665,-2.40,0.09,-0.35,-1.29,-0.26,1.10,
1.673,-2.40,0.09,-0.35,-1.48,-0.63,1.08,
1.674,-2.40,0.09,-0.35,-1.48,-0.63,1.08,
1.674,-2.24,0.17,-0.18,-1.48,-0.63,1.08,
1.675,-2.24,0.17,-0.18,-1.48,-0.63,1.08,
1.683,-2.24,0.17,-0.18,-1.42,-0.84,1.04,
1.684,-2.24,0.17,-0.18,-1.42,-0.84,1.04,
1.684,-2.13,0.25,-0.05,-1.42,-0.84,1.04,
1.685,-2.13,0.25,-0.05,-1.42,-0.84,1.04,
1.693,-2.13,0.25,-0.05,-1.08,-0.90,0.96,
1.694,-2.13,0.25,-0.05,-1.08,-0.90,0.96,
1.695,-2.08,0.30,-0.05,-1.08,-0.90,0.96,
1.695,-2.08,0.30,-0.05,-1.08,-0.90,0.96,
1.701,-2.08,0.30,-0.05,-0.57,-0.88,0.85,
1.702,-2.08,0.30,-0.05,-0.57,-0.88,0.85,
1.702,-2.11,0.43,-0.49,-0.57,-0.88,0.85,
1.703,-2.11,0.43,-0.49,-0.57,-0.88,0.85,
1.71,-2.11,0.43,-0.49,-0.06,-0.85,0.72,
1.712,-2.11,0.43,-0.49,-0.06,-0.85,0.72,
1.712,-2.09,0.60,-0.94,-0.06,-0.85,0.72,
1.712,-2.09,0.60,-0.94,-0.06,-0.85,0.72,
1.721,-2.09,0.60,-0.94,0.33,-0.70,0.59,
1.722,-2.09,0.60,-0.94,0.33,-0.70,0.59,
1.722,-1.78,0.78,-1.11,0.33,-0.70,0.59,
1.723,-1.78,0.78,-1.11,0.33,-0.70,0.59,
1.729,-1.78,0.78,-1.11,0.57,-0.66,0.45,
1.73,-1.78,0.78,-1.11,0.57,-0.66,0.45,
1.731,-1.28,0.89,-1.08,0.57,-0.66,0.45,
1.731,-1.28,0.89,-1.08,0.57,-0.66,0.45,
1.74,-1.28,0.89,-1.08,0.72,-0.90,0.27,
1.742,-1.28,0.89,-1.08,0.72,-0.90,0.27,
1.742,-0.82,0.89,-0.76,0.72,-0.90,0.27,
1.743,-0.82,0.89,-0.76,0.72,-0.90,0.27,
1.749,-0.82,0.89,-0.76,0.72,-0.90,0.27,
1.75,-0.82,0.89,-0.76,0.72,-0.90,0.27,
1.751,-0.82,0.89,-0.76,0.72,-0.90,0.27,
1.752,-0.82,0.89,-0.76,0.72,-0.90,0.27,
1.759,-0.82,0.89,-0.76,0.87,-1.17,0.03,
1.761,-0.82,0.89,-0.76,0.87,-1.17,0.03,
1.762,-0.29,0.59,-0.11,0.87,-1.17,0.03,
1.763,-0.29,0.59,-0.11,0.87,-1.17,0.03,
1.768,-0.29,0.59,-0.11,1.09,-1.40,-0.26,
1.769,-0.29,0.59,-0.11,1.09,-1.40,-0.26,
1.769,-0.04,0.44,-0.10,1.09,-1.40,-0.26,
1.77,-0.04,0.44,-0.10,1.09,-1.40,-0.26,
1.778,-0.04,0.44,-0.10,1.40,-1.51,-0.55,
1.779,-0.04,0.44,-0.10,1.40,-1.51,-0.55,
1.779,0.26,0.31,-0.30,1.40,-1.51,-0.55,
1.78,0.26,0.31,-0.30,1.40,-1.51,-0.55,
1.79,0.26,0.31,-0.30,1.72,-1.51,-0.77,
1.791,0.26,0.31,-0.30,1.72,-1.51,-0.77,
1.792,0.48,0.17,-0.55,1.72,-1.51,-0.77,
1.792,0.48,0.17,-0.55,1.72,-1.51,-0.77,
1.796,0.48,0.17,-0.55,1.95,-1.44,-0.90,
1.797,0.48,0.17,-0.55,1.95,-1.44,-0.90,
1.798,0.65,0.02,-0.75,1.95,-1.44,-0.90,
1.798,0.65,0.02,-0.75,1.95,-1.44,-0.90,
1.806,0.65,0.02,-0.75,2.02,-1.38,-0.95,
1.807,0.65,0.02,-0.75,2.02,-1.38,-0.95,
1.807,0.79,-0.07,-0.92,2.02,-1.38,-0.95,
1.808,0.79,-0.07,-0.92,2.02,-1.38,-0.95,
1.817,0.79,-0.07,-0.92,1.95,-1.35,-0.95,
1.817,0.79,-0.07,-0.92,1.95,-1.35,-0.95,
1.818,0.90,-0.09,-1.03,1.95,-1.35,-0.95,
1.818,0.90,-0.09,-1.03,1.95,-1.35,-0.95,
1.825,0.90,-0.09,-1.03,1.78,-1.33,-0.90,
1.827,0.90,-0.09,-1.03,1.78,-1.33,-0.90,
1.827,0.88,-0.05,-1.18,1.78,-1.33,-0.90,
1.828,0.88,-0.05,-1.18,1.78,-1.33,-0.90,
1.834,0.88,-0.05,-1.18,1.56,-1.31,-0.84,
1.835,0.88,-0.05,-1.18,1.56,-1.31,-0.84,
1.836,0.69,-0.02,-1.29,1.56,-1.31,-0.84,
1.836,0.69,-0.02,-1.29,1.56,-1.31,-0.84,
1.844,0.69,-0.02,-1.29,1.32,-1.28,-0.76,
1.845,0.69,-0.02,-1.29,1.32,-1.28,-0.76,
1.846,0.21,-0.09,-1.32,1.32,-1.28,-0.76,
1.847,0.21,-0.09,-1.32,1.32,-1.28,-0.76,
1.854,0.21,-0.09,-1.32,1.06,-1.22,-0.66,
1.856,-1.31,-0.22,-1.33,1.06,-1.22,-0.66,
1.856,-1.31,-0.22,-1.33,1.06,-1.22,-0.66,
1.857,-1.31,-0.22,-1.33,1.06,-1.22,-0.66,
1.863,-1.31,-0.22,-1.33,0.78,-1.12,-0.49,
1.864,-1.31,-0.22,-1.33,0.78,-1.12,-0.49,
1.865,-1.53,-0.30,-1.24,0.78,-1.12,-0.49,
1.865,-1.53,-0.30,-1.24,0.78,-1.12,-0.49,
1.873,-1.53,-0.30,-1.24,0.46,-0.94,-0.20,
1.874,-1.53,-0.30,-1.24,0.46,-0.94,-0.20,
1.874,-1.60,-0.26,-1.09,0.46,-0.94,-0.20,
1.875,-1.60,-0.26,-1.09,0.46,-0.94,-0.20,
1.882,-1.60,-0.26,-1.09,0.13,-0.71,0.20,
1.883,-1.60,-0.26,-1.09,0.13,-0.71,0.20,
1.883,-1.44,-0.06,-0.95,0.13,-0.71,0.20,
1.884,-1.44,-0.06,-0.95,0.13,-0.71,0.20,
1.893,-1.44,-0.06,-0.95,-0.14,-0.55,0.61,
1.894,-1.44,-0.06,-0.95,-0.14,-0.55,0.61,
1.895,-1.13,0.25,-0.83,-0.14,-0.55,0.61,
1.895,-1.13,0.25,-0.83,-0.14,-0.55,0.61,
1.903,-1.13,0.25,-0.83,-0.30,-0.43,0.89,
1.904,-1.13,0.25,-0.83,-0.30,-0.43,0.89,
1.904,-0.81,0.59,-0.76,-0.30,-0.43,0.89,
1.905,-0.81,0.59,-0.76,-0.30,-0.43,0.89,
1.911,-0.81,0.59,-0.76,-0.33,-0.26,0.99,
1.912,-0.81,0.59,-0.76,-0.33,-0.26,0.99,
1.913,-0.57,0.88,-0.76,-0.33,-0.26,0.99,
1.913,-0.57,0.88,-0.76,-0.33,-0.26,0.99,
1.921,-0.57,0.88,-0.76,-0.27,-0.18,0.90,
1.924,-0.57,0.88,-0.76,-0.27,-0.18,0.90,
1.925,-0.40,1.18,-0.83,-0.27,-0.18,0.90,
1.926,-0.40,1.18,-0.83,-0.27,-0.18,0.90,
1.93,-0.40,1.18,-0.83,-0.16,-0.17,0.67,
1.931,-0.40,1.18,-0.83,-0.16,-0.17,0.67,
1.932,-0.26,1.44,-0.90,-0.16,-0.17,0.67,
1.932,-0.26,1.44,-0.90,-0.16,-0.17,0.67,
1.94,-0.26,1.44,-0.90,-0.16,-0.17,0.67,
1.942,-0.26,1.44,-0.90,-0.16,-0.17,0.67,
1.942,-0.26,1.44,-0.90,-0.16,-0.17,0.67,
1.943,-0.26,1.44,-0.90,-0.16,-0.17,0.67,
1.949,-0.26,1.44,-0.90,-0.03,-0.22,0.35,
1.95,-0.26,1.44,-0.90,-0.03,-0.22,0.35,
1.95,-0.14,1.95,-1.00,-0.03,-0.22,0.35,
1.951,-0.14,1.95,-1.00,-0.03,-0.22,0.35,
1.958,-0.14,1.95,-1.00,0.08,-0.30,-0.01,
1.96,-0.14,1.95,-1.00,0.08,-0.30,-0.01,
1.961,-0.23,2.18,-0.93,0.08,-0.30,-0.01,
1.962,-0.23,2.18,-0.93,0.08,-0.30,-0.01,
1.968,-0.23,2.18,-0.93,0.16,-0.41,-0.36,
1.968,-0.23,2.18,-0.93,0.16,-0.41,-0.36,
1.969,-0.58,2.35,-0.77,0.16,-0.41,-0.36,
1.97,-0.58,2.35,-0.77,0.16,-0.41,-0.36,
1.977,-0.58,2.35,-0.77,0.23,-0.52,-0.69,
1.978,-0.58,2.35,-0.77,0.23,-0.52,-0.69,
1.979,-1.15,2.37,-0.68,0.23,-0.52,-0.69,
1.98,-1.15,2.37,-0.68,0.23,-0.52,-0.69,
1.992,-1.15,2.37,-0.68,0.29,-0.60,-0.94,
1.993,-1.15,2.37,-0.68,0.29,-0.60,-0.94,
1.994,-2.67,2.07,-0.64,0.29,-0.60,-0.94,
1.994,-2.67,2.07,-0.64,0.29,-0.60,-0.94,
1.997,-2.67,2.07,-0.64,0.29,-0.59,-1.01,
1.997,-2.67,2.07,-0.64,0.29,-0.59,-1.01,
1.998,-2.65,0.14,-0.75,0.29,-0.59,-1.01,
1.998,-2.65,0.14,-0.75,0.29,-0.59,-1.01,
2.006,-2.65,0.14,-0.75,0.15,-0.43,-0.78,
2.007,-2.65,0.14,-0.75,0.15,-0.43,-0.78,
2.007,-2.02,-1.80,-0.48,0.15,-0.43,-0.78,
2.007,-2.02,-1.80,-0.48,0.15,-0.43,-0.78,
2.017,-2.02,-1.80,-0.48,0.20,-0.35,-0.16,
2.017,-2.02,-1.80,-0.48,0.20,-0.35,-0.16,
2.018,-1.52,-2.18,-0.17,0.20,-0.35,-0.16,
2.018,-1.52,-2.18,-0.17,0.20,-0.35,-0.16,
2.025,-1.52,-2.18,-0.17,0.05,-0.06,0.75,
2.026,-1.52,-2.18,-0.17,0.05,-0.06,0.75,
2.027,0.32,-2.57,0.13,0.05,-0.06,0.75,
2.028,0.32,-2.57,0.13,0.05,-0.06,0.75,
2.034,0.32,-2.57,0.13,-0.45,0.55,1.59,
2.035,0.32,-2.57,0.13,-0.45,0.55,1.59,
2.036,0.67,-2.79,0.41,-0.45,0.55,1.59,
2.036,0.67,-2.79,0.41,-0.45,0.55,1.59,
2.044,0.67,-2.79,0.41,-0.68,0.99,2.03,
2.045,0.67,-2.79,0.41,-0.68,0.99,2.03,
2.046,0.95,-2.74,0.22,-0.68,0.99,2.03,
2.046,0.95,-2.74,0.22,-0.68,0.99,2.03,
2.054,0.95,-2.74,0.22,-0.68,1.19,2.03,
2.055,0.95,-2.74,0.22,-0.68,1.19,2.03,
2.055,1.52,-2.66,-0.16,-0.68,1.19,2.03,
2.056,1.52,-2.66,-0.16,-0.68,1.19,2.03,
2.063,1.52,-2.66,-0.16,-0.57,1.20,1.75,
2.064,1.52,-2.66,-0.16,-0.57,1.20,1.75,
2.065,1.48,-2.50,-0.48,-0.57,1.20,1.75,
2.065,1.48,-2.50,-0.48,-0.57,1.20,1.75,
2.076,1.48,-2.50,-0.48,-0.47,1.07,1.37,
2.077,1.48,-2.50,-0.48,-0.47,1.07,1.37,
2.078,-0.37,-0.43,-0.42,-0.47,1.07,1.37,
2.079,-0.37,-0.43,-0.42,-0.47,1.07,1.37,
2.082,-0.37,-0.43,-0.42,-0.42,0.87,1.00,
2.083,-0.37,-0.43,-0.42,-0.42,0.87,1.00,
2.083,-2.02,1.11,0.09,-0.42,0.87,1.00,
2.084,-2.02,1.11,0.09,-0.42,0.87,1.00,
2.095,-2.02,1.11,0.09,-0.40,0.65,0.68,
2.096,-2.02,1.11,0.09,-0.40,0.65,0.68,
2.097,-2.35,1.46,1.67,-0.40,0.65,0.68,
2.098,-2.35,1.46,1.67,-0.40,0.65,0.68,
2.102,-2.35,1.46,1.67,-0.32,0.50,0.45,
2.102,-2.35,1.46,1.67,-0.32,0.50,0.45,
2.102,-2.12,1.56,2.00,-0.32,0.50,0.45,
2.103,-2.12,1.56,2.00,-0.32,0.50,0.45,
2.111,-2.12,1.56,2.00,-0.10,0.51,0.30,
2.112,-2.12,1.56,2.00,-0.10,0.51,0.30,
2.112,-0.62,-0.12,2.06,-0.10,0.51,0.30,
2.112,-0.62,-0.12,2.06,-0.10,0.51,0.30,
2.121,-0.62,-0.12,2.06,0.29,0.64,0.19,
2.122,-0.62,-0.12,2.06,0.29,0.64,0.19,
2.123,1.11,-1.68,1.68,0.29,0.64,0.19,
2.124,1.11,-1.68,1.68,0.29,0.64,0.19,
2.131,1.11,-1.68,1.68,0.72,0.80,0.09,
2.132,1.11,-1.68,1.68,0.72,0.80,0.09,
2.132,1.61,-1.92,1.26,0.72,0.80,0.09,
2.133,1.61,-1.92,1.26,0.72,0.80,0.09,
2.142,1.61,-1.92,1.26,1.01,0.86,-0.02,
2.143,1.61,-1.92,1.26,1.01,0.86,-0.02,
2.144,1.91,-2.07,0.87,1.01,0.86,-0.02,
2.145,1.91,-2.07,0.87,1.01,0.86,-0.02,
2.15,1.91,-2.07,0.87,1.01,0.86,-0.02,
2.151,1.91,-2.07,0.87,1.01,0.86,-0.02,
2.152,1.91,-2.07,0.87,1.01,0.86,-0.02,
2.152,1.91,-2.07,0.87,1.01,0.86,-0.02,
2.159,1.91,-2.07,0.87,1.07,0.75,-0.14,
2.16,1.91,-2.07,0.87,1.07,0.75,-0.14,
2.161,1.72,-2.22,0.52,1.07,0.75,-0.14,
2.161,1.72,-2.22,0.52,1.07,0.75,-0.14,
2.168,1.72,-2.22,0.52,0.95,0.53,-0.24,
2.168,1.72,-2.22,0.52,0.95,0.53,-0.24,
2.169,1.58,-2.19,0.53,0.95,0.53,-0.24,
2.169,1.58,-2.19,0.53,0.95,0.53,-0.24,
2.178,1.58,-2.19,0.53,0.74,0.27,-0.30,
2.179,1.58,-2.19,0.53,0.74,0.27,-0.30,
2.18,1.28,-2.28,0.70,0.74,0.27,-0.30,
2.18,1.28,-2.28,0.70,0.74,0.27,-0.30,
2.192,1.28,-2.28,0.70,0.51,0.04,-0.30,
2.193,1.28,-2.28,0.70,0.51,0.04,-0.30,
2.193,-1.35,-2.34,0.84,0.51,0.04,-0.30,
2.194,-1.35,-2.34,0.84,0.51,0.04,-0.30,
2.197,-1.35,-2.34,0.84,0.32,-0.09,-0.19,
2.197,-1.35,-2.34,0.84,0.32,-0.09,-0.19,
2.198,-10.68,-4.09,0.81,0.32,-0.09,-0.19,
2.198,-10.68,-4.09,0.81,0.32,-0.09,-0.19,
2.205,-10.68,-4.09,0.81,0.04,0.05,0.28,
2.206,-10.68,-4.09,0.81,0.04,0.05,0.28,
2.207,-13.53,-4.28,0.71,0.04,0.05,0.28,
2.207,-13.53,-4.28,0.71,0.04,0.05,0.28,
2.216,-13.53,-4.28,0.71,-0.46,0.68,1.53,
2.217,-13.53,-4.28,0.71,-0.46,0.68,1.53,
2.218,-13.33,-4.12,3.00,-0.46,0.68,1.53,
2.218,-13.33,-4.12,3.00,-0.46,0.68,1.53,
2.225,-13.33,-4.12,3.00,-1.06,1.87,3.71,
2.227,-13.33,-4.12,3.00,-1.06,1.87,3.71,
2.227,-5.58,-1.65,4.82,-1.06,1.87,3.71,
2.228,-5.58,-1.65,4.82,-1.06,1.87,3.71,
2.235,-5.58,-1.65,4.82,-1.19,3.13,6.09,
2.236,-5.58,-1.65,4.82,-1.19,3.13,6.09,
2.236,7.71,1.89,4.77,-1.19,3.13,6.09,
2.237,7.71,1.89,4.77,-1.19,3.13,6.09,
2.245,7.71,1.89,4.77,-0.54,3.53,6.97,
2.246,7.71,1.89,4.77,-0.54,3.53,6.97,
2.247,10.96,3.92,4.27,-0.54,3.53,6.97,
2.248,10.96,3.92,4.27,-0.54,3.53,6.97,
2.255,10.96,3.92,4.27,0.66,2.62,5.25,
2.256,10.96,3.92,4.27,0.66,2.62,5.25,
2.257,9.42,4.05,0.59,0.66,2.62,5.25,
2.257,9.42,4.05,0.59,0.66,2.62,5.25,
2.263,9.42,4.05,0.59,1.42,1.54,1.55,
2.264,9.42,4.05,0.59,1.42,1.54,1.55,
2.265,4.06,3.67,-1.27,1.42,1.54,1.55,
2.265,4.06,3.67,-1.27,1.42,1.54,1.55,
2.273,4.06,3.67,-1.27,1.48,1.04,-2.22,
2.273,4.06,3.67,-1.27,1.48,1.04,-2.22,
2.274,0.35,1.83,-1.11,1.48,1.04,-2.22,
2.275,0.35,1.83,-1.11,1.48,1.04,-2.22,
2.283,0.35,1.83,-1.11,1.58,0.63,-4.50,
2.284,0.35,1.83,-1.11,1.58,0.63,-4.50,
2.284,0.34,1.51,0.32,1.58,0.63,-4.50,
2.285,0.34,1.51,0.32,1.58,0.63,-4.50,
2.293,0.34,1.51,0.32,1.56,-0.19,-5.01,
2.294,0.34,1.51,0.32,1.56,-0.19,-5.01,
2.295,0.79,1.11,0.56,1.56,-0.19,-5.01,
2.295,0.79,1.11,0.56,1.56,-0.19,-5.01,
2.301,0.79,1.11,0.56,1.18,-0.98,-4.45,
2.302,0.79,1.11,0.56,1.18,-0.98,-4.45,
2.302,1.13,0.87,0.69,1.18,-0.98,-4.45,
2.303,1.13,0.87,0.69,1.18,-0.98,-4.45,
2.31,1.13,0.87,0.69,0.71,-1.12,-3.58,
2.312,1.13,0.87,0.69,0.71,-1.12,-3.58,
2.312,1.01,0.70,0.62,0.71,-1.12,-3.58,
2.313,1.01,0.70,0.62,0.71,-1.12,-3.58,
2.321,1.01,0.70,0.62,0.31,-0.95,-2.73,
2.322,1.01,0.70,0.62,0.31,-0.95,-2.73,
2.323,0.65,0.76,0.37,0.31,-0.95,-2.73,
2.324,0.65,0.76,0.37,0.31,-0.95,-2.73,
2.345,0.65,0.76,0.37,0.00,-0.69,-2.04,
2.346,0.65,0.76,0.37,0.00,-0.69,-2.04,
2.346,0.36,1.18,0.09,0.00,-0.69,-2.04,
2.347,0.36,1.18,0.09,0.00,-0.69,-2.04,
2.348,0.36,1.18,0.09,-0.26,-0.46,-1.47,
2.348,0.36,1.18,0.09,-0.26,-0.46,-1.47,
2.349,0.36,1.18,0.09,-0.26,-0.46,-1.47,
2.349,0.33,3.06,-0.07,-0.26,-0.46,-1.47,
2.35,0.33,3.06,-0.07,-0.26,-0.46,-1.47,
2.351,0.33,3.06,-0.07,-0.26,-0.46,-1.47,
2.354,0.33,3.06,-0.07,-0.46,-0.32,-1.06,
2.355,0.33,3.06,-0.07,-0.46,-0.32,-1.06,
2.356,0.87,3.70,-0.08,-0.46,-0.32,-1.06,
2.357,0.87,3.70,-0.08,-0.46,-0.32,-1.06,
2.364,0.87,3.70,-0.08,-0.52,-0.32,-0.90,
2.365,0.87,3.70,-0.08,-0.52,-0.32,-0.90,
2.365,1.49,4.05,-0.05,-0.52,-0.32,-0.90,
2.366,1.49,4.05,-0.05,-0.52,-0.32,-0.90,
2.372,1.49,4.05,-0.05,-0.38,-0.48,-1.04,
2.374,1.49,4.05,-0.05,-0.38,-0.48,-1.04,
2.382,1.81,4.34,0.12,-0.38,-0.48,-1.04,
2.384,1.81,4.34,0.12,-0.38,-0.48,-1.04,
2.385,1.81,4.34,0.12,-0.06,-0.73,-1.42,
2.386,1.81,4.34,0.12,-0.06,-0.73,-1.42,
2.387,-0.82,2.80,2.38,-0.06,-0.73,-1.42,
2.388,-0.82,2.80,2.38,-0.06,-0.73,-1.42,
2.399,-0.82,2.80,2.38,0.33,-0.86,-1.77,
2.401,-0.82,2.80,2.38,0.33,-0.86,-1.77,
2.402,-4.30,-2.06,2.54,0.33,-0.86,-1.77,
2.402,-4.30,-2.06,2.54,0.33,-0.86,-1.77,
2.403,-4.30,-2.06,2.54,0.50,-0.53,-1.63,
2.404,-4.30,-2.06,2.54,0.50,-0.53,-1.63,
2.404,-7.71,-6.01,2.44,0.50,-0.53,-1.63,
2.404,-7.71,-6.01,2.44,0.50,-0.53,-1.63,
2.411,-7.71,-6.01,2.44,0.08,0.53,-0.48,
2.412,-7.71,-6.01,2.44,0.08,0.53,-0.48,
2.412,-8.20,-8.17,2.10,0.08,0.53,-0.48,
2.413,-8.20,-8.17,2.10,0.08,0.53,-0.48,
2.42,-8.20,-8.17,2.10,-0.93,2.27,1.82,
2.421,-8.20,-8.17,2.10,-0.93,2.27,1.82,
2.422,-5.81,-7.92,0.41,-0.93,2.27,1.82,
2.422,-5.81,-7.92,0.41,-0.93,2.27,1.82,
2.43,-5.81,-7.92,0.41,-1.59,3.17,4.53,
2.431,-5.81,-7.92,0.41,-1.59,3.17,4.53,
2.432,-2.58,-3.62,-0.07,-1.59,3.17,4.53,
2.432,-2.58,-3.62,-0.07,-1.59,3.17,4.53,
2.439,-2.58,-3.62,-0.07,-1.91,3.41,6.38,
2.44,-2.58,-3.62,-0.07,-1.91,3.41,6.38,
2.441,-0.86,-0.43,0.12,-1.91,3.41,6.38,
2.441,-0.86,-0.43,0.12,-1.91,3.41,6.38,
2.449,-0.86,-0.43,0.12,-1.91,3.41,6.38,
2.45,-0.86,-0.43,0.12,-1.91,3.41,6.38,
2.45,-0.86,-0.43,0.12,-1.91,3.41,6.38,
2.451,-0.86,-0.43,0.12,-1.91,3.41,6.38,
2.459,-0.86,-0.43,0.12,-2.25,3.57,6.67,
2.46,-0.86,-0.43,0.12,-2.25,3.57,6.67,
2.46,-0.82,0.10,1.20,-2.25,3.57,6.67,
2.461,-0.82,0.10,1.20,-2.25,3.57,6.67,
2.469,-0.82,0.10,1.20,-2.16,2.86,5.69,
2.47,-0.82,0.10,1.20,-2.16,2.86,5.69,
2.47,-2.40,-1.57,1.37,-2.16,2.86,5.69,
2.471,-2.40,-1.57,1.37,-2.16,2.86,5.69,
2.478,-2.40,-1.57,1.37,-1.71,1.77,4.20,
2.478,-2.40,-1.57,1.37,-1.71,1.77,4.20,
2.479,-2.82,-2.03,1.55,-1.71,1.77,4.20,
2.48,-2.82,-2.03,1.55,-1.71,1.77,4.20,
2.492,-2.82,-2.03,1.55,-1.06,0.78,2.91,
2.493,-2.82,-2.03,1.55,-1.06,0.78,2.91,
2.493,-2.94,-3.44,1.48,-1.06,0.78,2.91,
2.494,-2.94,-3.44,1.48,-1.06,0.78,2.91,
2.497,-2.94,-3.44,1.48,-0.47,0.14,2.16,
2.497,-2.94,-3.44,1.48,-0.47,0.14,2.16,
2.498,-2.92,-3.75,1.52,-0.47,0.14,2.16,
2.498,-2.92,-3.75,1.52,-0.47,0.14,2.16,
2.506,-2.92,-3.75,1.52,-0.05,-0.18,1.88,
2.509,-2.92,-3.75,1.52,-0.05,-0.18,1.88,
2.51,-3.12,-4.01,1.46,-0.05,-0.18,1.88,
2.51,-3.12,-4.01,1.46,-0.05,-0.18,1.88,
2.516,-3.12,-4.01,1.46,0.19,-0.35,1.81,
2.516,-3.12,-4.01,1.46,0.19,-0.35,1.81,
2.517,-3.46,-3.90,1.15,0.19,-0.35,1.81,
2.517,-3.46,-3.90,1.15,0.19,-0.35,1.81,
2.526,-3.46,-3.90,1.15,0.33,-0.49,1.82,
2.528,-3.46,-3.90,1.15,0.33,-0.49,1.82,
2.528,-3.96,-3.56,0.99,0.33,-0.49,1.82,
2.529,-3.96,-3.56,0.99,0.33,-0.49,1.82,
2.534,-3.96,-3.56,0.99,0.38,-0.63,1.84,
2.535,-3.96,-3.56,0.99,0.38,-0.63,1.84,
2.535,-4.39,-3.06,0.72,0.38,-0.63,1.84,
2.536,-4.39,-3.06,0.72,0.38,-0.63,1.84,
2.544,-4.39,-3.06,0.72,0.38,-0.74,1.86,
2.545,-4.39,-3.06,0.72,0.38,-0.74,1.86,
2.545,-4.57,-2.71,0.57,0.38,-0.74,1.86,
2.546,-4.57,-2.71,0.57,0.38,-0.74,1.86,
2.553,-4.57,-2.71,0.57,0.33,-0.83,1.89,
2.554,-4.57,-2.71,0.57,0.33,-0.83,1.89,
2.554,-4.44,-2.70,0.52,0.33,-0.83,1.89,
2.555,-4.44,-2.70,0.52,0.33,-0.83,1.89,
2.563,-4.44,-2.70,0.52,0.25,-0.91,1.90,
2.564,-4.44,-2.70,0.52,0.25,-0.91,1.90,
2.564,-4.19,-2.86,0.41,0.25,-0.91,1.90,
2.565,-4.19,-2.86,0.41,0.25,-0.91,1.90,
2.572,-4.19,-2.86,0.41,0.18,-0.96,1.87,
2.574,-4.19,-2.86,0.41,0.18,-0.96,1.87,
2.574,-4.19,-2.99,0.45,0.18,-0.96,1.87,
2.576,-4.19,-2.99,0.45,0.18,-0.96,1.87,
2.582,-4.19,-2.99,0.45,0.11,-1.00,1.79,
2.583,-4.19,-2.99,0.45,0.11,-1.00,1.79,
2.584,-4.31,-2.91,0.53,0.11,-1.00,1.79,
2.584,-4.31,-2.91,0.53,0.11,-1.00,1.79,
2.595,-4.31,-2.91,0.53,0.05,-1.01,1.68,
2.597,-4.31,-2.91,0.53,0.05,-1.01,1.68,
2.597,-4.56,-2.61,0.57,0.05,-1.01,1.68,
2.598,-4.56,-2.61,0.57,0.05,-1.01,1.68,
2.601,-4.56,-2.61,0.57,0.01,-0.98,1.56,
2.602,-4.56,-2.61,0.57,0.01,-0.98,1.56,
2.602,-4.77,-2.21,0.63,0.01,-0.98,1.56,
2.602,-4.77,-2.21,0.63,0.01,-0.98,1.56,
2.61,-4.77,-2.21,0.63,-0.01,-0.89,1.48,
2.612,-4.77,-2.21,0.63,-0.01,-0.89,1.48,
2.617,-4.70,-1.88,0.75,-0.01,-0.89,1.48,
2.617,-4.70,-1.88,0.75,-0.01,-0.89,1.48,
2.621,-4.70,-1.88,0.75,0.01,-0.75,1.44,
2.622,-4.70,-1.88,0.75,0.01,-0.75,1.44,
2.623,-4.45,-1.39,0.78,0.01,-0.75,1.44,
2.624,-4.45,-1.39,0.78,0.01,-0.75,1.44,
2.63,-4.45,-1.39,0.78,0.06,-0.58,1.40,
2.632,-4.45,-1.39,0.78,0.06,-0.58,1.40,
2.633,-4.14,0.78,0.58,0.06,-0.58,1.40,
2.633,-4.14,0.78,0.58,0.06,-0.58,1.40,
2.641,-4.14,0.78,0.58,0.13,-0.44,1.31,
2.643,-4.14,0.78,0.58,0.13,-0.44,1.31,
2.644,-3.81,3.00,0.20,0.13,-0.44,1.31,
2.645,-3.81,3.00,0.20,0.13,-0.44,1.31,
2.648,-3.81,3.00,0.20,0.13,-0.44,1.31,
2.65,-3.81,3.00,0.20,0.13,-0.44,1.31,
2.651,-3.81,3.00,0.20,0.13,-0.44,1.31,
2.652,-3.81,3.00,0.20,0.13,-0.44,1.31,
2.658,-3.81,3.00,0.20,0.23,-0.35,1.12,
2.659,-3.81,3.00,0.20,0.23,-0.35,1.12,
2.66,-3.84,5.68,-0.85,0.23,-0.35,1.12,
2.66,-3.84,5.68,-0.85,0.23,-0.35,1.12,
2.668,-3.84,5.68,-0.85,0.33,-0.36,0.80,
2.669,-3.84,5.68,-0.85,0.33,-0.36,0.80,
2.669,-3.89,6.40,-1.22,0.33,-0.36,0.80,
2.67,-3.89,6.40,-1.22,0.33,-0.36,0.80,
2.678,-3.89,6.40,-1.22,0.38,-0.46,0.36,
2.678,-3.89,6.40,-1.22,0.38,-0.46,0.36,
2.679,-4.11,6.94,-1.19,0.38,-0.46,0.36,
2.68,-4.11,6.94,-1.19,0.38,-0.46,0.36,
2.692,-4.11,6.94,-1.19,0.34,-0.65,-0.17,
2.693,-4.11,6.94,-1.19,0.34,-0.65,-0.17,
2.695,-4.34,7.25,-0.70,0.34,-0.65,-0.17,
2.696,-4.34,7.25,-0.70,0.34,-0.65,-0.17,
2.697,-4.34,7.25,-0.70,0.24,-0.86,-0.68,
2.697,-4.34,7.25,-0.70,0.24,-0.86,-0.68,
2.698,-4.41,7.29,1.22,0.24,-0.86,-0.68,
2.699,-4.41,7.29,1.22,0.24,-0.86,-0.68,
2.706,-4.41,7.29,1.22,0.31,-0.97,-1.06,
2.707,-4.41,7.29,1.22,0.31,-0.97,-1.06,
2.707,-4.44,6.99,1.63,0.31,-0.97,-1.06,
2.708,-4.44,6.99,1.63,0.31,-0.97,-1.06,
2.716,-4.44,6.99,1.63,0.87,-0.81,-1.23,
2.717,-4.44,6.99,1.63,0.87,-0.81,-1.23,
2.718,-4.50,5.06,1.87,0.87,-0.81,-1.23,
2.718,-4.50,5.06,1.87,0.87,-0.81,-1.23,
2.725,-4.50,5.06,1.87,2.02,-0.76,-1.11,
2.727,-4.50,5.06,1.87,2.02,-0.76,-1.11,
2.728,-4.72,2.87,1.81,2.02,-0.76,-1.11,
2.729,-4.72,2.87,1.81,2.02,-0.76,-1.11,
2.734,-4.72,2.87,1.81,3.26,-0.90,-1.09,
2.735,-4.72,2.87,1.81,3.26,-0.90,-1.09,
2.735,-5.06,0.95,1.34,3.26,-0.90,-1.09,
2.736,-5.06,0.95,1.34,3.26,-0.90,-1.09,
2.743,-5.06,0.95,1.34,3.53,-0.89,-0.51,
2.744,-5.06,0.95,1.34,3.53,-0.89,-0.51,
2.745,-5.27,-0.70,0.78,3.53,-0.89,-0.51,
2.745,-5.27,-0.70,0.78,3.53,-0.89,-0.51,
2.753,-5.27,-0.70,0.78,2.75,-0.48,0.89,
2.755,-5.27,-0.70,0.78,2.75,-0.48,0.89,
2.755,-5.12,-1.13,-0.83,2.75,-0.48,0.89,
2.756,-5.12,-1.13,-0.83,2.75,-0.48,0.89,
2.763,-5.12,-1.13,-0.83,2.17,-0.25,2.06,
2.764,-5.12,-1.13,-0.83,2.17,-0.25,2.06,
2.765,-4.47,-1.60,-2.66,2.17,-0.25,2.06,
2.766,-4.47,-1.60,-2.66,2.17,-0.25,2.06,
2.772,-4.47,-1.60,-2.66,1.16,-0.24,2.24,
2.773,-4.47,-1.60,-2.66,1.16,-0.24,2.24,
2.773,-3.71,-2.07,-2.84,1.16,-0.24,2.24,
2.773,-3.71,-2.07,-2.84,1.16,-0.24,2.24,
2.782,-3.71,-2.07,-2.84,-0.63,-0.03,2.00,
2.783,-3.71,-2.07,-2.84,-0.63,-0.03,2.00,
2.784,-3.07,-2.40,-2.98,-0.63,-0.03,2.00,
2.784,-3.07,-2.40,-2.98,-0.63,-0.03,2.00,
2.792,-3.07,-2.40,-2.98,-2.13,-0.00,1.92,
2.793,-3.07,-2.40,-2.98,-2.13,-0.00,1.92,
2.794,-2.57,-2.52,-2.61,-2.13,-0.00,1.92,
2.795,-2.57,-2.52,-2.61,-2.13,-0.00,1.92,
2.801,-2.57,-2.52,-2.61,-3.12,0.06,1.57,
2.802,-2.57,-2.52,-2.61,-3.12,0.06,1.57,
2.802,-2.20,-2.46,-0.86,-3.12,0.06,1.57,
2.803,-2.20,-2.46,-0.86,-3.12,0.06,1.57,
2.81,-2.20,-2.46,-0.86,-3.50,0.24,1.09,
2.811,-2.20,-2.46,-0.86,-3.50,0.24,1.09,
2.812,-1.93,-2.30,-0.26,-3.50,0.24,1.09,
2.812,-1.93,-2.30,-0.26,-3.50,0.24,1.09,
2.819,-1.93,-2.30,-0.26,-3.27,0.09,0.63,
2.82,-1.93,-2.30,-0.26,-3.27,0.09,0.63,
2.821,-1.63,-2.19,-0.05,-3.27,0.09,0.63,
2.821,-1.63,-2.19,-0.05,-3.27,0.09,0.63,
2.83,-1.63,-2.19,-0.05,-2.64,-0.35,0.25,
2.831,-1.63,-2.19,-0.05,-2.64,-0.35,0.25,
2.832,-1.68,-2.14,0.14,-2.64,-0.35,0.25,
2.832,-1.68,-2.14,0.14,-2.64,-0.35,0.25,
2.839,-1.68,-2.14,0.14,-2.64,-0.35,0.25,
2.841,-1.68,-2.14,0.14,-2.64,-0.35,0.25,
2.842,-1.68,-2.14,0.14,-2.64,-0.35,0.25,
2.842,-1.68,-2.14,0.14,-2.64,-0.35,0.25,
2.849,-1.68,-2.14,0.14,-1.89,-0.69,-0.03,
2.85,-1.68,-2.14,0.14,-1.89,-0.69,-0.03,
2.856,-2.37,-0.00,0.20,-1.89,-0.69,-0.03,
2.857,-2.37,-0.00,0.20,-1.89,-0.69,-0.03,
2.86,-2.37,-0.00,0.20,-1.18,-0.91,-0.17,
2.861,-2.37,-0.00,0.20,-1.18,-0.91,-0.17,
2.862,-2.74,1.74,0.28,-1.18,-0.91,-0.17,
2.862,-2.74,1.74,0.28,-1.18,-0.91,-0.17,
2.867,-2.74,1.74,0.28,-0.61,-1.00,-0.16,
2.868,-2.74,1.74,0.28,-0.61,-1.00,-0.16,
2.869,-2.81,2.27,-0.19,-0.61,-1.00,-0.16,
2.87,-2.81,2.27,-0.19,-0.61,-1.00,-0.16,
2.877,-2.81,2.27,-0.19,-0.16,-0.99,-0.01,
2.879,-2.81,2.27,-0.19,-0.16,-0.99,-0.01,
2.88,-3.00,-0.06,-1.76,-0.16,-0.99,-0.01,
2.881,-3.00,-0.06,-1.76,-0.16,-0.99,-0.01,
2.896,-3.00,-0.06,-1.76,0.06,-0.92,0.25,
2.897,-3.00,-0.06,-1.76,0.06,-0.92,0.25,
2.897,-7.36,-8.12,-1.56,0.06,-0.92,0.25,
2.898,-7.36,-8.12,-1.56,0.06,-0.92,0.25,
2.898,-7.36,-8.12,-1.56,0.11,-0.77,0.67,
2.898,-7.36,-8.12,-1.56,0.11,-0.77,0.67,
2.899,-9.08,-15.51,-0.99,0.11,-0.77,0.67,
2.899,-9.08,-15.51,-0.99,0.11,-0.77,0.67,
2.905,-9.08,-15.51,-0.99,0.17,-0.43,1.38,
2.906,-9.08,-15.51,-0.99,0.17,-0.43,1.38,
2.906,-8.84,-20.20,0.76,0.17,-0.43,1.38,
2.907,-8.84,-20.20,0.76,0.17,-0.43,1.38,
2.915,-8.84,-20.20,0.76,0.06,-0.00,2.21,
2.915,-8.84,-20.20,0.76,0.06,-0.00,2.21,
2.916,-4.26,-20.08,0.84,0.06,-0.00,2.21,
2.916,-4.26,-20.08,0.84,0.06,-0.00,2.21,
2.924,-4.26,-20.08,0.84,-0.12,0.16,2.65,
2.925,-4.26,-20.08,0.84,-0.12,0.16,2.65,
2.926,3.98,-11.84,0.41,-0.12,0.16,2.65,
2.926,3.98,-11.84,0.41,-0.12,0.16,2.65,
2.934,3.98,-11.84,0.41,-0.14,-0.20,2.37,
2.936,3.98,-11.84,0.41,-0.14,-0.20,2.37,
2.937,8.89,-4.10,-1.15,-0.14,-0.20,2.37,
2.938,8.89,-4.10,-1.15,-0.14,-0.20,2.37,
2.944,8.89,-4.10,-1.15,-0.15,-1.03,1.39,
2.946,8.89,-4.10,-1.15,-0.15,-1.03,1.39,
2.947,8.87,0.14,-1.42,-0.15,-1.03,1.39,
2.948,8.87,0.14,-1.42,-0.15,-1.03,1.39,
2.953,8.87,0.14,-1.42,-0.20,-2.15,-0.07,
2.954,8.87,0.14,-1.42,-0.20,-2.15,-0.07,
2.954,4.34,2.21,-1.37,-0.20,-2.15,-0.07,
2.955,4.34,2.21,-1.37,-0.20,-2.15,-0.07,
2.963,4.34,2.21,-1.37,-0.21,-3.30,-1.67,
2.964,4.34,2.21,-1.37,-0.21,-3.30,-1.67,
2.965,-1.26,2.31,-0.93,-0.21,-3.30,-1.67,
2.966,-1.26,2.31,-0.93,-0.21,-3.30,-1.67,
2.973,-1.26,2.31,-0.93,-0.15,-4.09,-2.89,
2.974,-1.26,2.31,-0.93,-0.15,-4.09,-2.89,
2.975,-3.63,2.13,-0.49,-0.15,-4.09,-2.89,
2.976,-3.63,2.13,-0.49,-0.15,-4.09,-2.89,
2.981,-3.63,2.13,-0.49,-0.06,-4.23,-3.12,
2.982,-3.63,2.13,-0.49,-0.06,-4.23,-3.12,
2.983,-4.96,1.96,-0.16,-0.06,-4.23,-3.12,
2.983,-4.96,1.96,-0.16,-0.06,-4.23,-3.12,
2.994,-4.96,1.96,-0.16,0.02,-3.73,-2.40,
2.996,-4.96,1.96,-0.16,0.02,-3.73,-2.40,
2.997,-4.70,1.85,0.10,0.02,-3.73,-2.40,
2.998,-4.70,1.85,0.10,0.02,-3.73,-2.40,
3.001,-4.70,1.85,0.10,0.11,-2.79,-1.15,
3.002,-4.70,1.85,0.10,0.11,-2.79,-1.15,
3.002,-4.12,1.81,0.32,0.11,-2.79,-1.15,
3.002,-4.12,1.81,0.32,0.11,-2.79,-1.15,
3.011,-4.12,1.81,0.32,0.20,-1.88,0.27,
3.012,-4.12,1.81,0.32,0.20,-1.88,0.27,
3.013,-3.58,1.72,0.57,0.20,-1.88,0.27,
3.013,-3.58,1.72,0.57,0.20,-1.88,0.27,
3.02,-3.58,1.72,0.57,0.37,-1.08,1.44,
3.022,-3.58,1.72,0.57,0.37,-1.08,1.44,
3.023,-3.29,1.41,0.74,0.37,-1.08,1.44,
3.023,-3.29,1.41,0.74,0.37,-1.08,1.44,
3.029,-3.29,1.41,0.74,0.37,-1.08,1.44,
3.03,-3.29,1.41,0.74,0.37,-1.08,1.44,
3.03,-3.29,1.41,0.74,0.37,-1.08,1.44,
3.031,-3.29,1.41,0.74,0.37,-1.08,1.44,
3.039,-3.29,1.41,0.74,0.65,-0.36,2.22,
3.04,-3.29,1.41,0.74,0.65,-0.36,2.22,
3.04,-2.80,0.62,0.46,0.65,-0.36,2.22,
3.04,-2.80,0.62,0.46,0.65,-0.36,2.22,
3.049,-2.80,0.62,0.46,0.89,0.09,2.59,
3.05,-2.80,0.62,0.46,0.89,0.09,2.59,
3.051,-2.58,-0.00,0.13,0.89,0.09,2.59,
3.052,-2.58,-0.00,0.13,0.89,0.09,2.59,
3.058,-2.58,-0.00,0.13,1.02,0.32,2.64,
3.06,-2.58,-0.00,0.13,1.02,0.32,2.64,
3.061,-2.17,-0.41,-0.18,1.02,0.32,2.64,
3.062,-2.17,-0.41,-0.18,1.02,0.32,2.64,
3.067,-2.17,-0.41,-0.18,0.99,0.40,2.47,
3.069,-2.17,-0.41,-0.18,0.99,0.40,2.47,
3.069,-1.72,-0.60,-0.39,0.99,0.40,2.47,
3.07,-1.72,-0.60,-0.39,0.99,0.40,2.47,
3.077,-1.72,-0.60,-0.39,0.81,0.38,2.15,
3.078,-1.72,-0.60,-0.39,0.81,0.38,2.15,
3.079,-1.39,-0.60,-0.51,0.81,0.38,2.15,
3.08,-1.39,-0.60,-0.51,0.81,0.38,2.15,
3.091,-1.39,-0.60,-0.51,0.52,0.27,1.74,
3.092,-1.39,-0.60,-0.51,0.52,0.27,1.74,
3.099,-1.15,-0.42,-0.54,0.52,0.27,1.74,
3.1,-1.15,-0.42,-0.54,0.52,0.27,1.74,
3.1,-1.15,-0.42,-0.54,0.22,0.11,1.31,
3.1,-1.15,-0.42,-0.54,0.22,0.11,1.31,
3.101,-1.02,-0.28,-0.46,0.22,0.11,1.31,
3.101,-1.02,-0.28,-0.46,0.22,0.11,1.31,
3.105,-1.02,-0.28,-0.46,-0.04,-0.08,0.90,
3.106,-1.02,-0.28,-0.46,-0.04,-0.08,0.90,
3.107,-0.99,-0.23,-0.26,-0.04,-0.08,0.90,
3.107,-0.99,-0.23,-0.26,-0.04,-0.08,0.90,
3.116,-0.99,-0.23,-0.26,-0.22,-0.25,0.57,
3.116,-0.99,-0.23,-0.26,-0.22,-0.25,0.57,
3.117,-1.01,-0.26,0.06,-0.22,-0.25,0.57,
3.117,-1.01,-0.26,0.06,-0.22,-0.25,0.57,
3.125,-1.01,-0.26,0.06,-0.30,-0.38,0.32,
3.126,-1.01,-0.26,0.06,-0.30,-0.38,0.32,
3.127,-0.98,-0.20,0.37,-0.30,-0.38,0.32,
3.128,-0.98,-0.20,0.37,-0.30,-0.38,0.32,
3.134,-0.98,-0.20,0.37,-0.28,-0.46,0.15,
3.135,-0.98,-0.20,0.37,-0.28,-0.46,0.15,
3.135,-0.92,-0.05,0.55,-0.28,-0.46,0.15,
3.136,-0.92,-0.05,0.55,-0.28,-0.46,0.15,
3.144,-0.92,-0.05,0.55,-0.16,-0.50,0.06,
3.144,-0.92,-0.05,0.55,-0.16,-0.50,0.06,
3.145,-0.88,0.13,0.61,-0.16,-0.50,0.06,
3.145,-0.88,0.13,0.61,-0.16,-0.50,0.06,
3.153,-0.88,0.13,0.61,0.01,-0.50,0.02,
3.154,-0.88,0.13,0.61,0.01,-0.50,0.02,
3.154,-0.85,0.29,0.52,0.01,-0.50,0.02,
3.155,-0.85,0.29,0.52,0.01,-0.50,0.02,
3.163,-0.85,0.29,0.52,0.19,-0.47,0.00,
3.164,-0.85,0.29,0.52,0.19,-0.47,0.00,
3.164,-0.89,0.29,0.42,0.19,-0.47,0.00,
3.165,-0.89,0.29,0.42,0.19,-0.47,0.00,
3.172,-0.89,0.29,0.42,0.33,-0.41,0.01,
3.173,-0.89,0.29,0.42,0.33,-0.41,0.01,
3.173,-0.98,0.19,0.33,0.33,-0.41,0.01,
3.174,-0.98,0.19,0.33,0.33,-0.41,0.01,
3.182,-0.98,0.19,0.33,0.40,-0.35,0.04,
3.183,-0.98,0.19,0.33,0.40,-0.35,0.04,
3.184,-1.06,0.09,0.22,0.40,-0.35,0.04,
3.184,-1.06,0.09,0.22,0.40,-0.35,0.04,
3.193,-1.06,0.09,0.22,0.41,-0.28,0.09,
3.194,-1.06,0.09,0.22,0.41,-0.28,0.09,
3.194,-1.08,0.06,0.07,0.41,-0.28,0.09,
3.195,-1.08,0.06,0.07,0.41,-0.28,0.09,
3.201,-1.08,0.06,0.07,0.36,-0.20,0.16,
3.202,-1.08,0.06,0.07,0.36,-0.20,0.16,
3.203,-1.10,0.03,-0.11,0.36,-0.20,0.16,
3.203,-1.10,0.03,-0.11,0.36,-0.20,0.16,
3.21,-1.10,0.03,-0.11,0.27,-0.13,0.25,
3.211,-1.10,0.03,-0.11,0.27,-0.13,0.25,
3.211,-1.12,-0.02,-0.30,0.27,-0.13,0.25,
3.212,-1.12,-0.02,-0.30,0.27,-0.13,0.25,
3.22,-1.12,-0.02,-0.30,0.15,-0.05,0.33,
3.221,-1.12,-0.02,-0.30,0.15,-0.05,0.33,
3.222,-1.09,-0.05,-0.46,0.15,-0.05,0.33,
3.223,-1.09,-0.05,-0.46,0.15,-0.05,0.33,
3.23,-1.09,-0.05,-0.46,0.00,0.02,0.39,
3.232,-1.09,-0.05,-0.46,0.00,0.02,0.39,
3.233,-1.05,-0.05,-0.59,0.00,0.02,0.39,
3.234,-1.05,-0.05,-0.59,0.00,0.02,0.39,
3.239,-1.05,-0.05,-0.59,0.00,0.02,0.39,
3.241,-1.05,-0.05,-0.59,0.00,0.02,0.39,
3.243,-1.05,-0.05,-0.59,0.00,0.02,0.39,
3.244,-1.05,-0.05,-0.59,0.00,0.02,0.39,
3.248,-1.05,-0.05,-0.59,-0.16,0.07,0.44,
3.249,-1.05,-0.05,-0.59,-0.16,0.07,0.44,
3.249,-0.95,0.04,-0.69,-0.16,0.07,0.44,
3.25,-0.95,0.04,-0.69,-0.16,0.07,0.44,
3.258,-0.95,0.04,-0.69,-0.31,0.11,0.46,
3.259,-0.95,0.04,-0.69,-0.31,0.11,0.46,
3.26,-0.84,0.11,-0.70,-0.31,0.11,0.46,
3.26,-0.84,0.11,-0.70,-0.31,0.11,0.46,
3.267,-0.84,0.11,-0.70,-0.45,0.13,0.46,
3.268,-0.84,0.11,-0.70,-0.45,0.13,0.46,
3.269,-0.73,0.18,-0.71,-0.45,0.13,0.46,
3.269,-0.73,0.18,-0.71,-0.45,0.13,0.46,
3.277,-0.73,0.18,-0.71,-0.54,0.14,0.45,
3.278,-0.73,0.18,-0.71,-0.54,0.14,0.45,
3.278,-0.63,0.24,-0.74,-0.54,0.14,0.45,
3.279,-0.63,0.24,-0.74,-0.54,0.14,0.45,
3.292,-0.63,0.24,-0.74,-0.60,0.14,0.41,
3.293,-0.63,0.24,-0.74,-0.60,0.14,0.41,
3.293,-0.49,0.29,-0.80,-0.60,0.14,0.41,
3.294,-0.49,0.29,-0.80,-0.60,0.14,0.41,
3.297,-0.49,0.29,-0.80,-0.62,0.13,0.36,
3.299,-0.49,0.29,-0.80,-0.62,0.13,0.36,
3.3,-0.35,0.29,-0.82,-0.62,0.13,0.36,
3.301,-0.35,0.29,-0.82,-0.62,0.13,0.36,
3.305,-0.35,0.29,-0.82,-0.62,0.11,0.29,
3.306,-0.35,0.29,-0.82,-0.62,0.11,0.29,
3.306,-0.24,0.25,-0.81,-0.62,0.11,0.29,
3.307,-0.24,0.25,-0.81,-0.62,0.11,0.29,
3.315,-0.24,0.25,-0.81,-0.61,0.06,0.22,
3.316,-0.24,0.25,-0.81,-0.61,0.06,0.22,
3.316,-0.12,0.17,-0.77,-0.61,0.06,0.22,
3.317,-0.12,0.17,-0.77,-0.61,0.06,0.22,
3.325,-0.12,0.17,-0.77,-0.60,0.00,0.14,
3.326,-0.12,0.17,-0.77,-0.60,0.00,0.14,
3.333,-0.06,0.06,-0.68,-0.60,0.00,0.14,
3.334,-0.06,0.06,-0.68,-0.60,0.00,0.14,
3.346,-0.06,0.06,-0.68,-0.57,-0.06,0.05,
3.348,-0.06,0.06,-0.68,-0.57,-0.06,0.05,
3.349,-0.02,-0.06,-0.61,-0.57,-0.06,0.05,
3.35,-0.02,-0.06,-0.61,-0.57,-0.06,0.05,
3.351,-0.02,-0.06,-0.61,-0.52,-0.10,-0.04,
3.351,-0.02,-0.06,-0.61,-0.52,-0.10,-0.04,
3.352,-0.02,-0.06,-0.61,-0.52,-0.10,-0.04,
3.352,0.07,-0.15,-0.58,-0.52,-0.10,-0.04,
3.353,0.07,-0.15,-0.58,-0.52,-0.10,-0.04,
3.353,0.07,-0.15,-0.58,-0.52,-0.10,-0.04,
3.358,0.07,-0.15,-0.58,-0.45,-0.13,-0.12,
3.358,0.07,-0.15,-0.58,-0.45,-0.13,-0.12,
3.359,0.28,-0.20,-0.57,-0.45,-0.13,-0.12,
3.36,0.28,-0.20,-0.57,-0.45,-0.13,-0.12,
3.367,0.28,-0.20,-0.57,-0.38,-0.16,-0.20,
3.368,0.28,-0.20,-0.57,-0.38,-0.16,-0.20,
3.368,0.38,-0.19,-0.47,-0.38,-0.16,-0.20,
3.369,0.38,-0.19,-0.47,-0.38,-0.16,-0.20,
3.377,0.38,-0.19,-0.47,-0.31,-0.21,-0.27,
3.378,0.38,-0.19,-0.47,-0.31,-0.21,-0.27,
3.378,0.48,-0.17,-0.30,-0.31,-0.21,-0.27,
3.379,0.48,-0.17,-0.30,-0.31,-0.21,-0.27,
3.39,0.48,-0.17,-0.30,-0.24,-0.27,-0.35,
3.391,0.48,-0.17,-0.30,-0.24,-0.27,-0.35,
3.391,0.51,-0.17,-0.13,-0.24,-0.27,-0.35,
3.392,0.51,-0.17,-0.13,-0.24,-0.27,-0.35,
3.396,0.51,-0.17,-0.13,-0.17,-0.34,-0.42,
3.397,0.51,-0.17,-0.13,-0.17,-0.34,-0.42,
3.397,0.53,-0.17,0.04,-0.17,-0.34,-0.42,
3.398,0.53,-0.17,0.04,-0.17,-0.34,-0.42,
3.405,0.53,-0.17,0.04,-0.07,-0.40,-0.48,
3.406,0.53,-0.17,0.04,-0.07,-0.40,-0.48,
3.406,0.61,-0.19,0.14,-0.07,-0.40,-0.48,
3.407,0.61,-0.19,0.14,-0.07,-0.40,-0.48,
3.416,0.61,-0.19,0.14,0.05,-0.44,-0.51,
3.416,0.61,-0.19,0.14,0.05,-0.44,-0.51,
3.417,0.71,-0.23,0.23,0.05,-0.44,-0.51,
3.417,0.71,-0.23,0.23,0.05,-0.44,-0.51,
3.425,0.71,-0.23,0.23,0.18,-0.47,-0.53,
3.426,0.71,-0.23,0.23,0.18,-0.47,-0.53,
3.426,0.81,-0.23,0.35,0.18,-0.47,-0.53,
3.427,0.81,-0.23,0.35,0.18,-0.47,-0.53,
3.434,0.81,-0.23,0.35,0.29,-0.50,-0.54,
3.435,0.81,-0.23,0.35,0.29,-0.50,-0.54,
3.436,0.86,-0.19,0.50,0.29,-0.50,-0.54,
3.436,0.86,-0.19,0.50,0.29,-0.50,-0.54,
3.444,0.86,-0.19,0.50,0.38,-0.52,-0.55,
3.446,0.86,-0.19,0.50,0.38,-0.52,-0.55,
3.447,0.79,-0.10,0.69,0.38,-0.52,-0.55,
3.448,0.79,-0.10,0.69,0.38,-0.52,-0.55,
3.453,0.79,-0.10,0.69,0.47,-0.54,-0.55,
3.455,0.79,-0.10,0.69,0.47,-0.54,-0.55,
3.456,0.58,0.07,0.85,0.47,-0.54,-0.55,
3.456,0.58,0.07,0.85,0.47,-0.54,-0.55,
3.463,0.58,0.07,0.85,0.56,-0.54,-0.54,
3.464,0.58,0.07,0.85,0.56,-0.54,-0.54,
3.466,0.25,0.27,0.90,0.56,-0.54,-0.54,
3.467,0.25,0.27,0.90,0.56,-0.54,-0.54,
3.474,0.25,0.27,0.90,0.65,-0.51,-0.47,
3.476,0.25,0.27,0.90,0.65,-0.51,-0.47,
3.477,-0.16,0.45,0.87,0.65,-0.51,-0.47,
3.478,-0.16,0.45,0.87,0.65,-0.51,-0.47,
3.482,-0.16,0.45,0.87,0.74,-0.44,-0.34,
3.483,-0.16,0.45,0.87,0.74,-0.44,-0.34,
3.484,-0.58,0.53,0.68,0.74,-0.44,-0.34,
3.484,-0.58,0.53,0.68,0.74,-0.44,-0.34,
3.494,-0.58,0.53,0.68,0.79,-0.33,-0.13,
3.496,-0.58,0.53,0.68,0.79,-0.33,-0.13,
3.497,-0.93,0.54,0.41,0.79,-0.33,-0.13,
3.498,-0.93,0.54,0.41,0.79,-0.33,-0.13,
3.502,-0.93,0.54,0.41,0.78,-0.18,0.15,
3.503,-0.93,0.54,0.41,0.78,-0.18,0.15,
3.504,-1.16,0.49,0.12,0.78,-0.18,0.15,
3.504,-1.16,0.49,0.12,0.78,-0.18,0.15,
3.51,-1.16,0.49,0.12,0.70,-0.01,0.46,
3.511,-1.16,0.49,0.12,0.70,-0.01,0.46,
3.512,-1.21,0.41,-0.13,0.70,-0.01,0.46,
3.512,-1.21,0.41,-0.13,0.70,-0.01,0.46,
3.52,-1.21,0.41,-0.13,0.53,0.16,0.76,
3.52,-1.21,0.41,-0.13,0.53,0.16,0.76,
3.521,-1.10,0.36,-0.22,0.53,0.16,0.76,
3.521,-1.10,0.36,-0.22,0.53,0.16,0.76,
3.53,-1.10,0.36,-0.22,0.31,0.32,1.00,
3.53,-1.10,0.36,-0.22,0.31,0.32,1.00,
3.531,-0.84,0.33,-0.20,0.31,0.32,1.00,
3.532,-0.84,0.33,-0.20,0.31,0.32,1.00,
3.541,-0.84,0.33,-0.20,0.07,0.45,1.14,
3.542,-0.84,0.33,-0.20,0.07,0.45,1.14,
3.542,-0.50,0.29,-0.11,0.07,0.45,1.14,
3.543,-0.50,0.29,-0.11,0.07,0.45,1.14,
3.548,-0.50,0.29,-0.11,0.07,0.45,1.14,
3.549,-0.50,0.29,-0.11,0.07,0.45,1.14,
3.549,-0.50,0.29,-0.11,0.07,0.45,1.14,
3.55,-0.50,0.29,-0.11,0.07,0.45,1.14,
3.558,-0.50,0.29,-0.11,-0.13,0.51,1.15,
3.559,-0.50,0.29,-0.11,-0.13,0.51,1.15,
3.56,0.14,0.13,-0.07,-0.13,0.51,1.15,
3.56,0.14,0.13,-0.07,-0.13,0.51,1.15,
3.567,0.14,0.13,-0.07,-0.28,0.49,1.03,
3.568,0.14,0.13,-0.07,-0.28,0.49,1.03,
3.568,0.27,0.03,-0.17,-0.28,0.49,1.03,
3.569,0.27,0.03,-0.17,-0.28,0.49,1.03,
3.577,0.27,0.03,-0.17,-0.38,0.36,0.78,
3.578,0.27,0.03,-0.17,-0.38,0.36,0.78,
3.578,0.26,-0.09,-0.32,-0.38,0.36,0.78,
3.579,0.26,-0.09,-0.32,-0.38,0.36,0.78,
3.59,0.26,-0.09,-0.32,-0.46,0.19,0.46,
3.591,0.26,-0.09,-0.32,-0.46,0.19,0.46,
3.592,0.14,-0.16,-0.42,-0.46,0.19,0.46,
3.592,0.14,-0.16,-0.42,-0.46,0.19,0.46,
3.596,0.14,-0.16,-0.42,-0.53,0.04,0.14,
3.597,0.14,-0.16,-0.42,-0.53,0.04,0.14,
3.597,-0.03,-0.21,-0.50,-0.53,0.04,0.14,
3.598,-0.03,-0.21,-0.50,-0.53,0.04,0.14,
3.605,-0.03,-0.21,-0.50,-0.60,-0.06,-0.10,
3.606,-0.03,-0.21,-0.50,-0.60,-0.06,-0.10,
3.607,-0.16,-0.19,-0.59,-0.60,-0.06,-0.10,
3.607,-0.16,-0.19,-0.59,-0.60,-0.06,-0.10,
3.615,-0.16,-0.19,-0.59,-0.66,-0.09,-0.23,
3.616,-0.16,-0.19,-0.59,-0.66,-0.09,-0.23,
3.617,-0.28,-0.09,-0.68,-0.66,-0.09,-0.23,
3.617,-0.28,-0.09,-0.68,-0.66,-0.09,-0.23,
3.624,-0.28,-0.09,-0.68,-0.71,-0.09,-0.27,
3.625,-0.28,-0.09,-0.68,-0.71,-0.09,-0.27,
3.626,-0.42,0.02,-0.79,-0.71,-0.09,-0.27,
3.626,-0.42,0.02,-0.79,-0.71,-0.09,-0.27,
3.635,-0.42,0.02,-0.79,-0.76,-0.07,-0.24,
3.636,-0.42,0.02,-0.79,-0.76,-0.07,-0.24,
3.637,-0.60,0.14,-0.87,-0.76,-0.07,-0.24,
3.637,-0.60,0.14,-0.87,-0.76,-0.07,-0.24,
3.643,-0.60,0.14,-0.87,-0.79,-0.01,-0.16,
3.644,-0.60,0.14,-0.87,-0.79,-0.01,-0.16,
3.645,-0.78,0.25,-0.86,-0.79,-0.01,-0.16,
3.645,-0.78,0.25,-0.86,-0.79,-0.01,-0.16,
3.653,-0.78,0.25,-0.86,-0.80,0.06,-0.05,
3.654,-0.78,0.25,-0.86,-0.80,0.06,-0.05,
3.655,-0.95,0.36,-0.74,-0.80,0.06,-0.05,
3.655,-0.95,0.36,-0.74,-0.80,0.06,-0.05,
3.662,-0.95,0.36,-0.74,-0.79,0.14,0.09,
3.663,-0.95,0.36,-0.74,-0.79,0.14,0.09,
3.664,-1.08,0.40,-0.59,-0.79,0.14,0.09,
3.665,-1.08,0.40,-0.59,-0.79,0.14,0.09,
3.672,-1.08,0.40,-0.59,-0.75,0.23,0.24,
3.673,-1.08,0.40,-0.59,-0.75,0.23,0.24,
3.674,-1.15,0.43,-0.44,-0.75,0.23,0.24,
3.675,-1.15,0.43,-0.44,-0.75,0.23,0.24,
3.681,-1.15,0.43,-0.44,-0.66,0.30,0.40,
3.683,-1.15,0.43,-0.44,-0.66,0.30,0.40,
3.683,-1.22,0.40,-0.29,-0.66,0.30,0.40,
3.684,-1.22,0.40,-0.29,-0.66,0.30,0.40,
3.693,-1.22,0.40,-0.29,-0.51,0.37,0.53,
3.694,-1.22,0.40,-0.29,-0.51,0.37,0.53,
3.695,-1.23,0.27,-0.25,-0.51,0.37,0.53,
3.696,-1.23,0.27,-0.25,-0.51,0.37,0.53,
3.701,-1.23,0.27,-0.25,-0.35,0.42,0.64,
3.702,-1.23,0.27,-0.25,-0.35,0.42,0.64,
3.702,-1.10,0.16,-0.32,-0.35,0.42,0.64,
3.703,-1.10,0.16,-0.32,-0.35,0.42,0.64,
3.71,-1.10,0.16,-0.32,-0.19,0.44,0.70,
3.71,-0.89,0.05,-0.46,-0.19,0.44,0.70,
3.711,-0.89,0.05,-0.46,-0.19,0.44,0.70,
3.711,-0.89,0.05,-0.46,-0.19,0.44,0.70,
3.72,-0.89,0.05,-0.46,-0.07,0.42,0.70,
3.72,-0.89,0.05,-0.46,-0.07,0.42,0.70,
3.721,-0.71,-0.05,-0.59,-0.07,0.42,0.70,
3.721,-0.71,-0.05,-0.59,-0.07,0.42,0.70,
3.729,-0.71,-0.05,-0.59,-0.01,0.37,0.64,
3.73,-0.71,-0.05,-0.59,-0.01,0.37,0.64,
3.731,-0.57,-0.10,-0.71,-0.01,0.37,0.64,
3.732,-0.57,-0.10,-0.71,-0.01,0.37,0.64,
3.741,-0.57,-0.10,-0.71,-0.01,0.37,0.64,
3.742,-0.57,-0.10,-0.71,-0.01,0.37,0.64,
3.742,-0.57,-0.10,-0.71,-0.01,0.37,0.64,
3.743,-0.57,-0.10,-0.71,-0.01,0.37,0.64,
3.748,-0.57,-0.10,-0.71,-0.02,0.30,0.53,
3.749,-0.57,-0.10,-0.71,-0.02,0.30,0.53,
3.75,-0.76,-0.13,-0.64,-0.02,0.30,0.53,
3.75,-0.76,-0.13,-0.64,-0.02,0.30,0.53,
3.758,-0.76,-0.13,-0.64,-0.07,0.22,0.39,
3.759,-0.76,-0.13,-0.64,-0.07,0.22,0.39,
3.76,-0.89,-0.05,-0.56,-0.07,0.22,0.39,
3.76,-0.89,-0.05,-0.56,-0.07,0.22,0.39,
3.767,-0.89,-0.05,-0.56,-0.12,0.16,0.28,
3.768,-0.89,-0.05,-0.56,-0.12,0.16,0.28,
3.768,-0.99,0.10,-0.44,-0.12,0.16,0.28,
3.769,-0.99,0.10,-0.44,-0.12,0.16,0.28,
3.777,-0.99,0.10,-0.44,-0.15,0.12,0.22,
3.778,-0.99,0.10,-0.44,-0.15,0.12,0.22,
3.778,-1.03,0.30,-0.36,-0.15,0.12,0.22,
3.779,-1.03,0.30,-0.36,-0.15,0.12,0.22,
3.789,-1.03,0.30,-0.36,-0.14,0.11,0.21,
3.79,-1.03,0.30,-0.36,-0.14,0.11,0.21,
3.79,-0.96,0.46,-0.38,-0.14,0.11,0.21,
3.791,-0.96,0.46,-0.38,-0.14,0.11,0.21,
3.796,-0.96,0.46,-0.38,-0.11,0.12,0.25,
3.797,-0.96,0.46,-0.38,-0.11,0.12,0.25,
3.797,-0.84,0.63,-0.41,-0.11,0.12,0.25,
3.797,-0.84,0.63,-0.41,-0.11,0.12,0.25,
3.805,-0.84,0.63,-0.41,-0.06,0.13,0.30,
3.806,-0.84,0.63,-0.41,-0.06,0.13,0.30,
3.807,-0.70,0.78,-0.40,-0.06,0.13,0.30,
3.808,-0.70,0.78,-0.40,-0.06,0.13,0.30,
3.815,-0.70,0.78,-0.40,-0.02,0.13,0.33,
3.816,-0.70,0.78,-0.40,-0.02,0.13,0.33,
3.816,-0.58,0.89,-0.35,-0.02,0.13,0.33,
3.817,-0.58,0.89,-0.35,-0.02,0.13,0.33,
3.824,-0.58,0.89,-0.35,-0.00,0.13,0.33,
3.825,-0.58,0.89,-0.35,-0.00,0.13,0.33,
3.826,-0.51,1.02,-0.26,-0.00,0.13,0.33,
3.826,-0.51,1.02,-0.26,-0.00,0.13,0.33,
3.835,-0.51,1.02,-0.26,0.01,0.12,0.30,
3.835,-0.51,1.02,-0.26,0.01,0.12,0.30,
3.836,-0.44,1.11,-0.20,0.01,0.12,0.30,
3.836,-0.44,1.11,-0.20,0.01,0.12,0.30,
3.843,-0.44,1.11,-0.20,0.04,0.10,0.25,
3.844,-0.44,1.11,-0.20,0.04,0.10,0.25,
3.845,-0.35,1.20,-0.22,0.04,0.10,0.25,
3.845,-0.35,1.20,-0.22,0.04,0.10,0.25,
3.853,-0.35,1.20,-0.22,0.06,0.10,0.20,
3.854,-0.35,1.20,-0.22,0.06,0.10,0.20,
3.854,-0.16,1.32,-0.33,0.06,0.10,0.20,
3.855,-0.16,1.32,-0.33,0.06,0.10,0.20,
3.862,-0.16,1.32,-0.33,0.09,0.09,0.15,
3.863,-0.16,1.32,-0.33,0.09,0.09,0.15,
3.864,0.15,1.44,-0.42,0.09,0.09,0.15,
3.864,0.15,1.44,-0.42,0.09,0.09,0.15,
3.872,0.15,1.44,-0.42,0.09,0.09,0.08,
3.873,0.15,1.44,-0.42,0.09,0.09,0.08,
3.874,0.52,1.60,-0.43,0.09,0.09,0.08,
3.875,0.52,1.60,-0.43,0.09,0.09,0.08,
3.882,0.52,1.60,-0.43,0.06,0.08,-0.02,
3.882,0.52,1.60,-0.43,0.06,0.08,-0.02,
3.883,0.89,1.73,-0.37,0.06,0.08,-0.02,
3.884,0.89,1.73,-0.37,0.06,0.08,-0.02,
3.892,0.89,1.73,-0.37,0.01,0.04,-0.17,
3.893,0.89,1.73,-0.37,0.01,0.04,-0.17,
3.893,1.14,1.79,-0.21,0.01,0.04,-0.17,
3.894,1.14,1.79,-0.21,0.01,0.04,-0.17,
3.907,1.14,1.79,-0.21,-0.05,-0.05,-0.38,
3.908,1.14,1.79,-0.21,-0.05,-0.05,-0.38,
3.908,1.18,1.75,0.05,-0.05,-0.05,-0.38,
3.909,1.18,1.75,0.05,-0.05,-0.05,-0.38,
3.91,1.18,1.75,0.05,-0.08,-0.18,-0.61,
3.91,1.18,1.75,0.05,-0.08,-0.18,-0.61,
3.911,1.06,1.61,0.32,-0.08,-0.18,-0.61,
3.911,1.06,1.61,0.32,-0.08,-0.18,-0.61,
3.92,1.06,1.61,0.32,-0.05,-0.33,-0.81,
3.921,1.06,1.61,0.32,-0.05,-0.33,-0.81,
3.922,0.79,1.41,0.62,-0.05,-0.33,-0.81,
3.922,0.79,1.41,0.62,-0.05,-0.33,-0.81,
3.929,0.79,1.41,0.62,0.06,-0.45,-0.93,
3.93,0.79,1.41,0.62,0.06,-0.45,-0.93,
3.931,0.45,1.16,0.93,0.06,-0.45,-0.93,
3.932,0.45,1.16,0.93,0.06,-0.45,-0.93,
3.94,0.45,1.16,0.93,0.24,-0.52,-0.93,
3.942,0.45,1.16,0.93,0.24,-0.52,-0.93,
3.942,0.08,0.93,1.21,0.24,-0.52,-0.93,
3.943,0.08,0.93,1.21,0.24,-0.52,-0.93,
3.948,0.08,0.93,1.21,0.24,-0.52,-0.93,
3.949,0.08,0.93,1.21,0.24,-0.52,-0.93,
3.949,0.08,0.93,1.21,0.24,-0.52,-0.93,
3.95,0.08,0.93,1.21,0.24,-0.52,-0.93,
3.958,0.08,0.93,1.21,0.47,-0.52,-0.79,
3.959,0.08,0.93,1.21,0.47,-0.52,-0.79,
3.96,-0.80,0.55,1.58,0.47,-0.52,-0.79,
3.96,-0.80,0.55,1.58,0.47,-0.52,-0.79,
3.967,-0.80,0.55,1.58,0.73,-0.47,-0.53,
3.968,-0.80,0.55,1.58,0.73,-0.47,-0.53,
3.968,-1.23,0.31,1.61,0.73,-0.47,-0.53,
3.969,-1.23,0.31,1.61,0.73,-0.47,-0.53,
3.977,-1.23,0.31,1.61,0.98,-0.35,-0.14,
3.978,-1.23,0.31,1.61,0.98,-0.35,-0.14,
3.979,-1.65,0.02,1.45,0.98,-0.35,-0.14,
3.979,-1.65,0.02,1.45,0.98,-0.35,-0.14,
3.99,-1.65,0.02,1.45,0.99,-0.16,0.31,
3.991,-1.65,0.02,1.45,0.99,-0.16,0.31,
3.991,-2.02,-0.38,0.96,0.99,-0.16,0.31,
3.991,-2.02,-0.38,0.96,0.99,-0.16,0.31,
3.998,-2.02,-0.38,0.96,0.93,0.07,0.77,
3.998,-2.02,-0.38,0.96,0.93,0.07,0.77,
3.999,-2.31,-0.87,-0.65,0.93,0.07,0.77,
3.999,-2.31,-0.87,-0.65,0.93,0.07,0.77,
4.005,-2.31,-0.87,-0.65,0.89,0.31,1.15,
4.006,-2.31,-0.87,-0.65,0.89,0.31,1.15,
4.007,-2.44,-1.30,-1.21,0.89,0.31,1.15,
4.007,-2.44,-1.30,-1.21,0.89,0.31,1.15,
4.016,-2.44,-1.30,-1.21,0.58,0.55,1.43,
4.016,-2.44,-1.30,-1.21,0.58,0.55,1.43,
4.016,-2.36,-1.62,-1.80,0.58,0.55,1.43,
4.017,-2.36,-1.62,-1.80,0.58,0.55,1.43,
4.024,-2.36,-1.62,-1.80,0.05,0.79,1.58,
4.025,-2.36,-1.62,-1.80,0.05,0.79,1.58,
4.025,-2.05,-1.73,-2.03,0.05,0.79,1.58,
4.026,-2.05,-1.73,-2.03,0.05,0.79,1.58,
4.034,-2.05,-1.73,-2.03,-0.56,0.97,1.61,
4.034,-2.05,-1.73,-2.03,-0.56,0.97,1.61,
4.035,-1.63,-1.56,-1.80,-0.56,0.97,1.61,
4.035,-1.63,-1.56,-1.80,-0.56,0.97,1.61,
4.044,-1.63,-1.56,-1.80,-1.08,1.06,1.51,
4.044,-1.63,-1.56,-1.80,-1.08,1.06,1.51,
4.045,-1.21,-1.16,-1.24,-1.08,1.06,1.51,
4.045,-1.21,-1.16,-1.24,-1.08,1.06,1.51,
4.053,-1.21,-1.16,-1.24,-1.43,1.02,1.30,
4.053,-1.21,-1.16,-1.24,-1.43,1.02,1.30,
4.054,-0.87,-0.61,0.17,-1.43,1.02,1.30,
4.054,-0.87,-0.61,0.17,-1.43,1.02,1.30,
4.062,-0.87,-0.61,0.17,-1.55,0.88,1.02,
4.063,-0.87,-0.61,0.17,-1.55,0.88,1.02,
4.063,-0.60,-0.02,0.40,-1.55,0.88,1.02,
4.064,-0.60,-0.02,0.40,-1.55,0.88,1.02,
4.073,-0.60,-0.02,0.40,-1.41,0.67,0.73,
4.074,-0.60,-0.02,0.40,-1.41,0.67,0.73,
4.074,-0.33,0.52,0.54,-1.41,0.67,0.73,
4.075,-0.33,0.52,0.54,-1.41,0.67,0.73,
4.082,-0.33,0.52,0.54,-1.06,0.43,0.46,
4.082,-0.33,0.52,0.54,-1.06,0.43,0.46,
4.083,-0.00,0.92,0.59,-1.06,0.43,0.46,
4.083,-0.00,0.92,0.59,-1.06,0.43,0.46,
4.091,-0.00,0.92,0.59,-0.63,0.22,0.23,
4.092,-0.00,0.92,0.59,-0.63,0.22,0.23,
4.092,0.41,1.09,0.55,-0.63,0.22,0.23,
4.093,0.41,1.09,0.55,-0.63,0.22,0.23,
4.1,0.41,1.09,0.55,-0.25,0.03,0.02,
4.101,0.41,1.09,0.55,-0.25,0.03,0.02,
4.102,0.87,1.04,0.47,-0.25,0.03,0.02,
4.102,0.87,1.04,0.47,-0.25,0.03,0.02,
4.11,0.87,1.04,0.47,0.02,-0.16,-0.19,
4.112,0.87,1.04,0.47,0.02,-0.16,-0.19,
4.112,1.32,0.79,0.42,0.02,-0.16,-0.19,
4.113,1.32,0.79,0.42,0.02,-0.16,-0.19,
4.121,1.32,0.79,0.42,0.19,-0.36,-0.45,
4.121,1.32,0.79,0.42,0.19,-0.36,-0.45,
4.122,1.75,0.44,0.40,0.19,-0.36,-0.45,
4.122,1.75,0.44,0.40,0.19,-0.36,-0.45,
4.13,1.75,0.44,0.40,0.26,-0.59,-0.76,
4.131,1.75,0.44,0.40,0.26,-0.59,-0.76,
4.131,2.04,0.06,0.32,0.26,-0.59,-0.76,
4.132,2.04,0.06,0.32,0.26,-0.59,-0.76,
4.145,2.04,0.06,0.32,0.26,-0.83,-1.12,
4.146,2.04,0.06,0.32,0.26,-0.83,-1.12,
4.147,2.23,-0.27,0.17,0.26,-0.83,-1.12,
4.147,2.23,-0.27,0.17,0.26,-0.83,-1.12,
4.149,2.23,-0.27,0.17,0.26,-0.83,-1.12,
4.15,2.23,-0.27,0.17,0.26,-0.83,-1.12,
4.151,2.23,-0.27,0.17,0.26,-0.83,-1.12,
4.151,2.23,-0.27,0.17,0.26,-0.83,-1.12,
4.159,2.23,-0.27,0.17,0.22,-1.06,-1.49,
4.16,2.23,-0.27,0.17,0.22,-1.06,-1.49,
4.161,1.95,-0.64,-0.41,0.22,-1.06,-1.49,
4.162,1.95,-0.64,-0.41,0.22,-1.06,-1.49,
4.168,1.95,-0.64,-0.41,0.14,-1.24,-1.79,
4.169,1.95,-0.64,-0.41,0.14,-1.24,-1.79,
4.17,1.53,-0.62,-0.62,0.14,-1.24,-1.79,
4.17,1.53,-0.62,-0.62,0.14,-1.24,-1.79,
4.177,1.53,-0.62,-0.62,-0.01,-1.33,-1.96,
4.178,1.53,-0.62,-0.62,-0.01,-1.33,-1.96,
4.179,0.91,-0.49,-0.63,-0.01,-1.33,-1.96,
4.179,0.91,-0.49,-0.63,-0.01,-1.33,-1.96,
4.187,0.91,-0.49,-0.63,-0.21,-1.32,-1.95,
4.188,0.91,-0.49,-0.63,-0.21,-1.32,-1.95,
4.188,-0.55,-0.33,-0.38,-0.21,-1.32,-1.95,
4.189,-0.55,-0.33,-0.38,-0.21,-1.32,-1.95,
4.197,-0.55,-0.33,-0.38,-0.39,-1.20,-1.71,
4.198,-0.55,-0.33,-0.38,-0.39,-1.20,-1.71,
4.198,-0.77,-0.11,-0.02,-0.39,-1.20,-1.71,
4.199,-0.77,-0.11,-0.02,-0.39,-1.20,-1.71,
4.207,-0.77,-0.11,-0.02,-0.47,-0.93,-1.24,
4.208,-0.77,-0.11,-0.02,-0.47,-0.93,-1.24,
4.209,-1.00,0.08,0.38,-0.47,-0.93,-1.24,
4.209,-1.00,0.08,0.38,-0.47,-0.93,-1.24,
4.216,-1.00,0.08,0.38,-0.41,-0.54,-0.61,
4.217,-1.00,0.08,0.38,-0.41,-0.54,-0.61,
4.217,-1.09,0.24,0.70,-0.41,-0.54,-0.61,
4.218,-1.09,0.24,0.70,-0.41,-0.54,-0.61,
4.225,-1.09,0.24,0.70,-0.20,-0.14,0.03,
4.225,-1.09,0.24,0.70,-0.20,-0.14,0.03,
4.226,-0.93,0.39,0.90,-0.20,-0.14,0.03,
4.226,-0.93,0.39,0.90,-0.20,-0.14,0.03,
4.234,-0.93,0.39,0.90,0.09,0.18,0.55,
4.235,-0.93,0.39,0.90,0.09,0.18,0.55,
4.236,-0.61,0.48,1.06,0.09,0.18,0.55,
4.236,-0.61,0.48,1.06,0.09,0.18,0.55,
4.244,-0.61,0.48,1.06,0.40,0.40,0.89,
4.245,-0.61,0.48,1.06,0.40,0.40,0.89,
4.245,-0.12,0.53,1.15,0.40,0.40,0.89,
4.246,-0.12,0.53,1.15,0.40,0.40,0.89,
4.254,-0.12,0.53,1.15,0.69,0.49,1.06,
4.255,-0.12,0.53,1.15,0.69,0.49,1.06,
4.255,0.42,0.50,1.25,0.69,0.49,1.06,
4.255,0.42,0.50,1.25,0.69,0.49,1.06,
4.262,0.42,0.50,1.25,0.91,0.48,1.05,
4.263,0.42,0.50,1.25,0.91,0.48,1.05,
4.264,0.87,0.39,1.32,0.91,0.48,1.05,
4.264,0.87,0.39,1.32,0.91,0.48,1.05,
4.272,0.87,0.39,1.32,1.06,0.37,0.87,
4.273,0.87,0.39,1.32,1.06,0.37,0.87,
4.274,1.12,0.23,1.37,1.06,0.37,0.87,
4.274,1.12,0.23,1.37,1.06,0.37,0.87,
4.283,1.12,0.23,1.37,1.14,0.18,0.56,
4.284,1.12,0.23,1.37,1.14,0.18,0.56,
4.285,1.14,0.09,1.38,1.14,0.18,0.56,
4.286,1.14,0.09,1.38,1.14,0.18,0.56,
4.296,1.14,0.09,1.38,1.16,-0.05,0.21,
4.297,1.14,0.09,1.38,1.16,-0.05,0.21,
4.298,0.96,0.02,1.27,1.16,-0.05,0.21,
4.298,0.96,0.02,1.27,1.16,-0.05,0.21,
4.305,0.96,0.02,1.27,1.14,-0.25,-0.11,
4.306,0.96,0.02,1.27,1.14,-0.25,-0.11,
4.306,0.68,0.04,1.14,1.14,-0.25,-0.11,
4.307,0.68,0.04,1.14,1.14,-0.25,-0.11,
4.31,0.68,0.04,1.14,1.08,-0.37,-0.34,
4.31,0.68,0.04,1.14,1.08,-0.37,-0.34,
4.311,0.38,0.06,0.95,1.08,-0.37,-0.34,
4.311,0.38,0.06,0.95,1.08,-0.37,-0.34,
4.32,0.38,0.06,0.95,1.08,-0.37,-0.34,
4.32,0.38,0.06,0.95,1.08,-0.37,-0.34,
4.321,0.38,0.06,0.95,1.08,-0.37,-0.34,
4.321,0.38,0.06,0.95,1.08,-0.37,-0.34,
4.341,0.38,0.06,0.95,0.97,-0.41,-0.43,
4.343,0.38,0.06,0.95,0.97,-0.41,-0.43,
4.343,0.05,0.09,0.64,0.97,-0.41,-0.43,
4.344,0.05,0.09,0.64,0.97,-0.41,-0.43,
4.344,0.05,0.09,0.64,0.66,-0.24,-0.28,
4.345,0.05,0.09,0.64,0.66,-0.24,-0.28,
4.345,0.05,0.09,0.64,0.66,-0.24,-0.28,
4.346,0.04,0.09,0.51,0.66,-0.24,-0.28,
4.346,0.04,0.09,0.51,0.66,-0.24,-0.28,
4.347,0.04,0.09,0.51,0.66,-0.24,-0.28,
4.353,0.04,0.09,0.51,0.22,0.04,0.07,
4.354,0.04,0.09,0.51,0.22,0.04,0.07,
4.354,0.24,0.08,0.43,0.22,0.04,0.07,
4.355,0.24,0.08,0.43,0.22,0.04,0.07,
4.363,0.24,0.08,0.43,0.22,0.04,0.07,
4.364,0.24,0.08,0.43,0.22,0.04,0.07,
4.364,0.24,0.08,0.43,0.22,0.04,0.07,
4.365,0.24,0.08,0.43,0.22,0.04,0.07,
4.372,0.24,0.08,0.43,-0.09,0.11,0.18,
4.373,0.24,0.08,0.43,-0.09,0.11,0.18,
4.373,0.62,0.08,0.40,-0.09,0.11,0.18,
4.374,0.62,0.08,0.40,-0.09,0.11,0.18,
4.381,0.62,0.08,0.40,-0.17,0.07,0.11,
4.382,0.62,0.08,0.40,-0.17,0.07,0.11,
4.383,0.75,0.07,0.38,-0.17,0.07,0.11,
4.384,0.75,0.07,0.38,-0.17,0.07,0.11,
4.392,0.75,0.07,0.38,-0.21,0.00,0.01,
4.393,0.75,0.07,0.38,-0.21,0.00,0.01,
4.394,0.82,0.06,0.33,-0.21,0.00,0.01,
4.394,0.82,0.06,0.33,-0.21,0.00,0.01,
4.4,0.82,0.06,0.33,-0.23,-0.07,-0.11,
4.401,0.82,0.06,0.33,-0.23,-0.07,-0.11,
4.401,0.82,0.06,0.29,-0.23,-0.07,-0.11,
4.402,0.82,0.06,0.29,-0.23,-0.07,-0.11,
4.41,0.82,0.06,0.29,-0.25,-0.15,-0.22,
4.411,0.82,0.06,0.29,-0.25,-0.15,-0.22,
4.412,0.74,0.08,0.27,-0.25,-0.15,-0.22,
4.412,0.74,0.08,0.27,-0.25,-0.15,-0.22,
4.42,0.74,0.08,0.27,-0.26,-0.21,-0.31,
4.421,0.74,0.08,0.27,-0.26,-0.21,-0.31,
4.422,0.62,0.12,0.30,-0.26,-0.21,-0.31,
4.422,0.62,0.12,0.30,-0.26,-0.21,-0.31,
4.43,0.62,0.12,0.30,-0.26,-0.21,-0.31,
4.431,0.62,0.12,0.30,-0.26,-0.21,-0.31,
4.432,0.62,0.12,0.30,-0.26,-0.21,-0.31,
4.432,0.62,0.12,0.30,-0.26,-0.21,-0.31,
4.439,0.62,0.12,0.30,-0.25,-0.25,-0.36,
4.44,0.62,0.12,0.30,-0.25,-0.25,-0.36,
4.441,0.37,0.19,0.37,-0.25,-0.25,-0.36,
4.441,0.37,0.19,0.37,-0.25,-0.25,-0.36,
4.449,0.37,0.19,0.37,-0.24,-0.26,-0.36,
4.449,0.37,0.19,0.37,-0.24,-0.26,-0.36,
4.45,0.28,0.19,0.40,-0.24,-0.26,-0.36,
4.451,0.28,0.19,0.40,-0.24,-0.26,-0.36,
4.458,0.28,0.19,0.40,-0.20,-0.23,-0.31,
4.459,0.28,0.19,0.40,-0.20,-0.23,-0.31,
4.46,0.24,0.17,0.43,-0.20,-0.23,-0.31,
4.461,0.24,0.17,0.43,-0.20,-0.23,-0.31,
4.467,0.24,0.17,0.43,-0.14,-0.16,-0.21,
4.468,0.24,0.17,0.43,-0.14,-0.16,-0.21,
4.468,0.22,0.12,0.49,-0.14,-0.16,-0.21,
4.469,0.22,0.12,0.49,-0.14,-0.16,-0.21,
4.477,0.22,0.12,0.49,-0.07,-0.07,-0.11,
4.478,0.22,0.12,0.49,-0.07,-0.07,-0.11,
4.478,0.21,0.07,0.51,-0.07,-0.07,-0.11,
4.479,0.21,0.07,0.51,-0.07,-0.07,-0.11,
4.491,0.21,0.07,0.51,0.01,0.01,-0.02,
4.492,0.21,0.07,0.51,0.01,0.01,-0.02,
4.493,0.21,0.04,0.53,0.01,0.01,-0.02,
4.493,0.21,0.04,0.53,0.01,0.01,-0.02,
4.496,0.21,0.04,0.53,0.08,0.08,0.05,
4.497,0.21,0.04,0.53,0.08,0.08,0.05,
4.498,0.21,0.03,0.51,0.08,0.08,0.05,
4.498,0.21,0.03,0.51,0.08,0.08,0.05,
4.506,0.21,0.03,0.51,0.14,0.11,0.09,
4.507,0.21,0.03,0.51,0.14,0.11,0.09,
4.507,0.21,0.04,0.48,0.14,0.11,0.09,
4.507,0.21,0.04,0.48,0.14,0.11,0.09,
4.516,0.21,0.04,0.48,0.17,0.10,0.11,
4.517,0.21,0.04,0.48,0.17,0.10,0.11,
4.523,0.24,0.07,0.51,0.17,0.10,0.11,
4.524,0.24,0.07,0.51,0.17,0.10,0.11,
4.525,0.24,0.07,0.51,0.20,0.08,0.11,
4.525,0.24,0.07,0.51,0.20,0.08,0.11,
4.526,0.28,0.11,0.51,0.20,0.08,0.11,
4.526,0.28,0.11,0.51,0.20,0.08,0.11,
4.534,0.28,0.11,0.51,0.21,0.06,0.10,
4.535,0.28,0.11,0.51,0.21,0.06,0.10,
4.535,0.30,0.16,0.57,0.21,0.06,0.10,
4.535,0.30,0.16,0.57,0.21,0.06,0.10,
4.544,0.30,0.16,0.57,0.22,0.04,0.07,
4.544,0.30,0.16,0.57,0.22,0.04,0.07,
4.545,0.27,0.21,0.60,0.22,0.04,0.07,
4.545,0.27,0.21,0.60,0.22,0.04,0.07,
4.553,0.27,0.21,0.60,0.24,0.02,0.03,
4.554,0.27,0.21,0.60,0.24,0.02,0.03,
4.554,0.21,0.26,0.56,0.24,0.02,0.03,
4.555,0.21,0.26,0.56,0.24,0.02,0.03,
4.563,0.21,0.26,0.56,0.26,-0.01,-0.01,
4.564,0.21,0.26,0.56,0.26,-0.01,-0.01,
4.565,0.10,0.26,0.47,0.26,-0.01,-0.01,
4.565,0.10,0.26,0.47,0.26,-0.01,-0.01,
4.573,0.10,0.26,0.47,0.27,-0.03,-0.03,
4.574,0.10,0.26,0.47,0.27,-0.03,-0.03,
4.575,-0.01,0.22,0.31,0.27,-0.03,-0.03,
4.575,-0.01,0.22,0.31,0.27,-0.03,-0.03,
4.583,-0.01,0.22,0.31,0.27,-0.03,-0.04,
4.584,-0.01,0.22,0.31,0.27,-0.03,-0.04,
4.585,-0.08,0.15,0.19,0.27,-0.03,-0.04,
4.585,-0.08,0.15,0.19,0.27,-0.03,-0.04,
4.594,-0.08,0.15,0.19,0.24,-0.01,-0.02,
4.595,-0.08,0.15,0.19,0.24,-0.01,-0.02,
4.595,-0.13,0.07,0.09,0.24,-0.01,-0.02,
4.596,-0.13,0.07,0.09,0.24,-0.01,-0.02,
4.613,-0.13,0.07,0.09,0.18,0.04,0.02,
4.614,-0.13,0.07,0.09,0.18,0.04,0.02,
4.614,-0.13,0.00,0.06,0.18,0.04,0.02,
4.615,-0.13,0.00,0.06,0.18,0.04,0.02,
4.615,-0.13,0.00,0.06,0.11,0.09,0.05,
4.615,-0.13,0.00,0.06,0.11,0.09,0.05,
4.615,-0.12,-0.00,0.02,0.11,0.09,0.05,
4.616,-0.12,-0.00,0.02,0.11,0.09,0.05,
4.621,-0.12,-0.00,0.02,0.02,0.15,0.08,
4.621,-0.12,-0.00,0.02,0.02,0.15,0.08,
4.622,-0.11,0.02,-0.06,0.02,0.15,0.08,
4.622,-0.11,0.02,-0.06,0.02,0.15,0.08,
4.63,-0.11,0.02,-0.06,-0.05,0.17,0.09,
4.631,-0.11,0.02,-0.06,-0.05,0.17,0.09,
4.632,-0.08,0.05,-0.10,-0.05,0.17,0.09,
4.632,-0.08,0.05,-0.10,-0.05,0.17,0.09,
4.639,-0.08,0.05,-0.10,-0.05,0.17,0.09,
4.64,-0.08,0.05,-0.10,-0.05,0.17,0.09,
4.641,-0.08,0.05,-0.10,-0.05,0.17,0.09,
4.642,-0.08,0.05,-0.10,-0.05,0.17,0.09,
4.648,-0.08,0.05,-0.10,-0.11,0.17,0.10,
4.649,-0.08,0.05,-0.10,-0.11,0.17,0.10,
4.649,0.01,0.07,-0.06,-0.11,0.17,0.10,
4.65,0.01,0.07,-0.06,-0.11,0.17,0.10,
4.658,0.01,0.07,-0.06,-0.16,0.16,0.09,
4.659,0.01,0.07,-0.06,-0.16,0.16,0.09,
4.659,0.07,0.05,0.02,-0.16,0.16,0.09,
4.66,0.07,0.05,0.02,-0.16,0.16,0.09,
4.669,0.07,0.05,0.02,-0.19,0.13,0.07,
4.67,0.07,0.05,0.02,-0.19,0.13,0.07,
4.671,0.13,0.03,0.10,-0.19,0.13,0.07,
4.672,0.13,0.03,0.10,-0.19,0.13,0.07,
4.676,0.13,0.03,0.10,-0.19,0.10,0.04,
4.677,0.13,0.03,0.10,-0.19,0.10,0.04,
4.678,0.18,0.02,0.14,-0.19,0.10,0.04,
4.679,0.18,0.02,0.14,-0.19,0.10,0.04,
4.686,0.18,0.02,0.14,-0.17,0.05,-0.01,
4.686,0.18,0.02,0.14,-0.17,0.05,-0.01,
4.687,0.22,0.05,0.12,-0.17,0.05,-0.01,
4.687,0.22,0.05,0.12,-0.17,0.05,-0.01,
4.696,0.22,0.05,0.12,-0.13,-0.01,-0.06,
4.697,0.22,0.05,0.12,-0.13,-0.01,-0.06,
4.697,0.24,0.08,0.04,-0.13,-0.01,-0.06,
4.698,0.24,0.08,0.04,-0.13,-0.01,-0.06,
4.706,0.24,0.08,0.04,-0.09,-0.06,-0.11,
4.708,0.24,0.08,0.04,-0.09,-0.06,-0.11,
4.708,0.24,0.08,-0.02,-0.09,-0.06,-0.11,
4.709,0.24,0.08,-0.02,-0.09,-0.06,-0.11,
4.715,0.24,0.08,-0.02,-0.06,-0.11,-0.14,
4.717,0.24,0.08,-0.02,-0.06,-0.11,-0.14,
4.718,0.20,0.10,-0.05,-0.06,-0.11,-0.14,
4.719,0.20,0.10,-0.05,-0.06,-0.11,-0.14,
4.724,0.20,0.10,-0.05,-0.05,-0.14,-0.16,
4.725,0.20,0.10,-0.05,-0.05,-0.14,-0.16,
4.725,0.16,0.12,-0.04,-0.05,-0.14,-0.16,
4.725,0.16,0.12,-0.04,-0.05,-0.14,-0.16,
4.735,0.16,0.12,-0.04,-0.06,-0.15,-0.16,
4.736,0.16,0.12,-0.04,-0.06,-0.15,-0.16,
4.737,0.11,0.11,-0.00,-0.06,-0.15,-0.16,
4.737,0.11,0.11,-0.00,-0.06,-0.15,-0.16,
4.744,0.11,0.11,-0.00,-0.07,-0.14,-0.15,
4.745,0.11,0.11,-0.00,-0.07,-0.14,-0.15,
4.745,0.06,0.13,-0.01,-0.07,-0.14,-0.15,
4.746,0.06,0.13,-0.01,-0.07,-0.14,-0.15,
4.753,0.06,0.13,-0.01,-0.06,-0.12,-0.12,
4.754,0.06,0.13,-0.01,-0.06,-0.12,-0.12,
4.763,0.05,0.17,-0.03,-0.06,-0.12,-0.12,
4.764,0.05,0.17,-0.03,-0.06,-0.12,-0.12,
4.765,0.05,0.17,-0.03,-0.05,-0.10,-0.09,
4.766,0.05,0.17,-0.03,-0.05,-0.10,-0.09,
4.766,0.01,0.19,-0.03,-0.05,-0.10,-0.09,
4.768,0.01,0.19,-0.03,-0.05,-0.10,-0.09,
4.772,0.01,0.19,-0.03,-0.04,-0.07,-0.04,
4.773,0.01,0.19,-0.03,-0.04,-0.07,-0.04,
4.774,0.00,0.22,-0.01,-0.04,-0.07,-0.04,
4.776,0.00,0.22,-0.01,-0.04,-0.07,-0.04,
4.781,0.00,0.22,-0.01,-0.02,-0.04,-0.00,
4.782,0.00,0.22,-0.01,-0.02,-0.04,-0.00,
4.783,0.03,0.26,0.02,-0.02,-0.04,-0.00,
4.783,0.03,0.26,0.02,-0.02,-0.04,-0.00,
4.793,0.03,0.26,0.02,-0.01,-0.02,0.03,
4.794,0.03,0.26,0.02,-0.01,-0.02,0.03,
4.795,0.04,0.24,0.03,-0.01,-0.02,0.03,
4.795,0.04,0.24,0.03,-0.01,-0.02,0.03,
4.808,0.04,0.24,0.03,0.01,0.00,0.06,
4.809,0.04,0.24,0.03,0.01,0.00,0.06,
4.809,0.07,0.21,-0.01,0.01,0.00,0.06,
4.81,0.07,0.21,-0.01,0.01,0.00,0.06,
4.81,0.07,0.21,-0.01,0.03,0.00,0.07,
4.811,0.07,0.21,-0.01,0.03,0.00,0.07,
4.811,0.08,0.21,-0.05,0.03,0.00,0.07,
4.812,0.08,0.21,-0.05,0.03,0.00,0.07,
4.82,0.08,0.21,-0.05,0.03,-0.01,0.07,
4.821,0.08,0.21,-0.05,0.03,-0.01,0.07,
4.822,0.08,0.21,-0.05,0.03,-0.01,0.07,
4.822,0.08,0.21,-0.05,0.03,-0.01,0.07,
4.829,0.08,0.21,-0.05,0.03,-0.01,0.07,
4.83,0.08,0.21,-0.05,0.03,-0.01,0.07,
4.83,0.08,0.21,-0.05,0.03,-0.01,0.07,
4.831,0.08,0.21,-0.05,0.03,-0.01,0.07,
4.841,0.08,0.21,-0.05,0.01,-0.05,0.05,
4.842,0.08,0.21,-0.05,0.01,-0.05,0.05,
4.843,0.01,0.22,-0.03,0.01,-0.05,0.05,
4.843,0.01,0.22,-0.03,0.01,-0.05,0.05,
4.848,0.01,0.22,-0.03,0.01,-0.05,0.05,
4.849,0.01,0.22,-0.03,0.01,-0.05,0.05,
4.85,0.01,0.22,-0.03,0.01,-0.05,0.05,
4.85,0.01,0.22,-0.03,0.01,-0.05,0.05,
4.858,0.01,0.22,-0.03,0.00,-0.05,0.04,
4.859,0.01,0.22,-0.03,0.00,-0.05,0.04,
4.86,-0.03,0.16,-0.01,0.00,-0.05,0.04,
4.861,-0.03,0.16,-0.01,0.00,-0.05,0.04,
4.868,-0.03,0.16,-0.01,0.01,-0.03,0.04,
4.869,-0.03,0.16,-0.01,0.01,-0.03,0.04,
4.87,-0.04,0.12,0.00,0.01,-0.03,0.04,
4.87,-0.04,0.12,0.00,0.01,-0.03,0.04,
4.877,-0.04,0.12,0.00,0.01,0.00,0.04,
4.878,-0.04,0.12,0.00,0.01,0.00,0.04,
4.879,-0.03,0.12,-0.00,0.01,0.00,0.04,
4.879,-0.03,0.12,-0.00,0.01,0.00,0.04,
4.886,-0.03,0.12,-0.00,0.01,0.03,0.05,
4.887,-0.03,0.12,-0.00,0.01,0.03,0.05,
4.888,-0.04,0.13,-0.00,0.01,0.03,0.05,
4.888,-0.04,0.13,-0.00,0.01,0.03,0.05,
4.896,-0.04,0.13,-0.00,0.02,0.05,0.06,
4.897,-0.04,0.13,-0.00,0.02,0.05,0.06,
4.897,-0.08,0.12,0.03,0.02,0.05,0.06,
4.898,-0.08,0.12,0.03,0.02,0.05,0.06,
4.907,-0.08,0.12,0.03,0.02,0.05,0.06,
4.908,-0.08,0.12,0.03,0.02,0.05,0.06,
4.909,-0.09,0.13,0.05,0.02,0.05,0.06,
4.91,-0.09,0.13,0.05,0.02,0.05,0.06,
4.915,-0.09,0.13,0.05,0.02,0.05,0.07,
4.917,-0.09,0.13,0.05,0.02,0.05,0.07,
4.918,-0.08,0.11,0.11,0.02,0.05,0.07,
4.919,-0.08,0.11,0.11,0.02,0.05,0.07,
4.925,-0.08,0.11,0.11,0.03,0.04,0.08,
4.926,-0.08,0.11,0.11,0.03,0.04,0.08,
4.926,-0.05,0.11,0.12,0.03,0.04,0.08,
4.926,-0.05,0.11,0.12,0.03,0.04,0.08,
4.935,-0.05,0.11,0.12,0.05,0.04,0.08,
4.936,-0.05,0.11,0.12,0.05,0.04,0.08,
4.936,-0.05,0.11,0.11,0.05,0.04,0.08,
4.936,-0.05,0.11,0.11,0.05,0.04,0.08,
4.944,-0.05,0.11,0.11,0.06,0.03,0.08,
4.945,-0.05,0.11,0.11,0.06,0.03,0.08,
4.945,-0.05,0.11,0.11,0.06,0.03,0.08,
4.946,-0.05,0.11,0.11,0.06,0.03,0.08,
4.953,-0.05,0.11,0.11,0.08,0.01,0.07,
4.954,-0.05,0.11,0.11,0.08,0.01,0.07,
4.955,-0.05,0.11,0.11,0.08,0.01,0.07,
4.956,-0.05,0.11,0.11,0.08,0.01,0.07,
4.962,-0.05,0.11,0.11,0.09,-0.01,0.06,
4.963,-0.05,0.11,0.11,0.09,-0.01,0.06,
4.964,-0.05,0.11,0.11,0.09,-0.01,0.06,
4.965,-0.05,0.11,0.11,0.09,-0.01,0.06,
4.972,-0.05,0.11,0.11,0.09,-0.02,0.05,
4.973,-0.05,0.11,0.11,0.09,-0.02,0.05,
4.974,-0.05,0.11,0.11,0.09,-0.02,0.05,
4.974,-0.05,0.11,0.11,0.09,-0.02,0.05,
4.981,-0.05,0.11,0.11,0.09,-0.02,0.04,
4.982,-0.05,0.11,0.11,0.09,-0.02,0.04,
4.983,-0.05,0.11,0.11,0.09,-0.02,0.04,
4.984,-0.05,0.11,0.11,0.09,-0.02,0.04,
4.992,-0.05,0.11,0.11,0.09,-0.03,0.03,
4.993,-0.05,0.11,0.11,0.09,-0.03,0.03,
4.999,-0.05,0.11,0.11,0.09,-0.03,0.03,
4.999,-0.05,0.11,0.11,0.09,-0.03,0.03,
5.01,-0.05,0.11,0.11,0.08,-0.02,0.03,
5.011,-0.05,0.11,0.11,0.08,-0.02,0.03,
5.011,-0.04,0.11,0.11,0.08,-0.02,0.03,
5.011,-0.04,0.11,0.11,0.08,-0.02,0.03,
5.012,-0.04,0.11,0.11,0.06,-0.02,0.02,
5.012,-0.04,0.11,0.11,0.06,-0.02,0.02,
5.012,-0.04,0.11,0.11,0.06,-0.02,0.02,
5.012,-0.04,0.11,0.11,0.06,-0.02,0.02,
5.02,-0.04,0.11,0.11,0.05,-0.02,0.02,
5.021,-0.04,0.11,0.11,0.05,-0.02,0.02,
5.022,-0.04,0.10,0.11,0.05,-0.02,0.02,
5.022,-0.04,0.10,0.11,0.05,-0.02,0.02,
5.03,-0.04,0.10,0.11,0.05,-0.02,0.02,
5.03,-0.04,0.10,0.11,0.05,-0.02,0.02,
5.031,-0.04,0.10,0.11,0.05,-0.02,0.02,
5.032,-0.04,0.10,0.11,0.05,-0.02,0.02,
5.039,-0.04,0.10,0.11,0.04,-0.01,0.01,
5.04,-0.04,0.10,0.11,0.04,-0.01,0.01,
5.041,-0.04,0.10,0.11,0.04,-0.01,0.01,
5.041,-0.04,0.10,0.11,0.04,-0.01,0.01,
5.048,-0.04,0.10,0.11,0.03,-0.01,0.01,
5.049,-0.04,0.10,0.11,0.03,-0.01,0.01,
5.05,-0.04,0.10,0.11,0.03,-0.01,0.01,
5.05,-0.04,0.10,0.11,0.03,-0.01,0.01,
5.058,-0.04,0.10,0.11,0.03,-0.01,0.01,
5.06,-0.04,0.10,0.11,0.03,-0.01,0.01,
5.061,-0.03,0.10,0.11,0.03,-0.01,0.01,
5.061,-0.03,0.10,0.11,0.03,-0.01,0.01,
5.068,-0.03,0.10,0.11,0.02,-0.01,0.01,
5.07,-0.03,0.10,0.11,0.02,-0.01,0.01,
5.071,-0.03,0.10,0.10,0.02,-0.01,0.01,
5.071,-0.03,0.10,0.10,0.02,-0.01,0.01,
5.077,-0.03,0.10,0.10,0.02,-0.01,0.01,
5.077,-0.03,0.10,0.10,0.02,-0.01,0.01,
5.078,-0.03,0.10,0.10,0.02,-0.01,0.01,
5.079,-0.03,0.10,0.10,0.02,-0.01,0.01,
5.086,-0.03,0.10,0.10,0.02,-0.01,0.01,
5.087,-0.03,0.10,0.10,0.02,-0.01,0.01,
5.088,-0.02,0.10,0.10,0.02,-0.01,0.01,
5.088,-0.02,0.10,0.10,0.02,-0.01,0.01,
5.096,-0.02,0.10,0.10,0.01,-0.00,0.00,
5.097,-0.02,0.10,0.10,0.01,-0.00,0.00,
5.097,-0.02,0.10,0.09,0.01,-0.00,0.00,
5.098,-0.02,0.10,0.09,0.01,-0.00,0.00,
5.107,-0.02,0.10,0.09,0.01,-0.00,0.00,
5.108,-0.02,0.10,0.09,0.01,-0.00,0.00,
5.109,-0.02,0.10,0.09,0.01,-0.00,0.00,
5.11,-0.02,0.10,0.09,0.01,-0.00,0.00,
5.115,-0.02,0.10,0.09,0.01,-0.00,0.00,
5.116,-0.02,0.10,0.09,0.01,-0.00,0.00,
5.116,-0.02,0.10,0.08,0.01,-0.00,0.00,
5.117,-0.02,0.10,0.08,0.01,-0.00,0.00,
5.13,-0.02,0.10,0.08,0.01,-0.00,0.00,
5.131,-0.02,0.10,0.08,0.01,-0.00,0.00,
5.131,-0.01,0.09,0.08,0.01,-0.00,0.00,
5.132,-0.01,0.09,0.08,0.01,-0.00,0.00,
5.138,-0.01,0.09,0.08,0.01,-0.00,0.00,
5.139,-0.01,0.09,0.08,0.01,-0.00,0.00,
5.139,-0.01,0.09,0.07,0.01,-0.00,0.00,
5.14,-0.01,0.09,0.07,0.01,-0.00,0.00,
5.143,-0.01,0.09,0.07,0.00,-0.00,0.00,
5.144,-0.01,0.09,0.07,0.00,-0.00,0.00,
5.144,-0.01,0.09,0.07,0.00,-0.00,0.00,
5.145,-0.01,0.09,0.07,0.00,-0.00,0.00,
5.153,-0.01,0.09,0.07,0.00,-0.00,0.00,
5.154,-0.01,0.09,0.07,0.00,-0.00,0.00,
5.154,-0.01,0.09,0.06,0.00,-0.00,0.00,
5.155,-0.01,0.09,0.06,0.00,-0.00,0.00,
5.163,-0.01,0.09,0.06,-0.00,0.00,-0.00,
5.164,-0.01,0.09,0.06,-0.00,0.00,-0.00,
5.166,-0.00,0.09,0.06,-0.00,0.00,-0.00,
5.167,-0.00,0.09,0.06,-0.00,0.00,-0.00,
5.172,-0.00,0.09,0.06,0.00,-0.00,0.00,
5.173,-0.00,0.09,0.06,0.00,-0.00,0.00,
5.173,-0.00,0.09,0.06,0.00,-0.00,0.00,
5.174,-0.00,0.09,0.06,0.00,-0.00,0.00,
5.181,-0.00,0.09,0.06,-0.00,0.00,0.00,
5.182,-0.00,0.09,0.06,-0.00,0.00,0.00,
5.182,-0.00,0.09,0.05,-0.00,0.00,0.00,
5.183,-0.00,0.09,0.05,-0.00,0.00,0.00,
5.191,-0.00,0.09,0.05,-0.00,-0.00,-0.00,
5.192,-0.00,0.09,0.05,-0.00,-0.00,-0.00,
5.193,0.00,0.09,0.05,-0.00,-0.00,-0.00,
5.193,0.00,0.09,0.05,-0.00,-0.00,-0.00,
5.204,0.00,0.09,0.05,-0.00,0.00,0.00,
5.205,0.00,0.09,0.05,-0.00,0.00,0.00,
5.206,0.04,0.08,-0.27,-0.00,0.00,0.00,
5.206,0.04,0.08,-0.27,-0.00,0.00,0.00,
5.21,0.04,0.08,-0.27,-0.00,-0.00,0.00,
5.211,0.04,0.08,-0.27,-0.00,-0.00,0.00,
5.212,0.05,0.10,-0.24,-0.00,-0.00,0.00,
5.212,0.05,0.10,-0.24,-0.00,-0.00,0.00,
5.221,0.05,0.10,-0.24,0.00,0.00,0.00,
5.221,0.05,0.10,-0.24,0.00,0.00,0.00,
5.222,0.07,0.10,-0.27,0.00,0.00,0.00,
5.222,0.07,0.10,-0.27,0.00,0.00,0.00,
5.23,0.07,0.10,-0.27,0.00,0.00,0.00,
5.231,0.07,0.10,-0.27,0.00,0.00,0.00,
5.235,0.07,0.10,-0.27,0.00,0.00,0.00,
5.236,0.07,0.10,-0.27,0.00,0.00,0.00,
5.239,0.07,0.10,-0.27,0.00,0.00,0.00,
5.24,0.07,0.10,-0.27,0.00,0.00,0.00,
5.241,0.03,0.08,-0.26,0.00,0.00,0.00,
5.241,0.03,0.08,-0.26,0.00,0.00,0.00,
5.247,0.03,0.08,-0.26,-0.00,-0.00,-0.00,
5.248,0.03,0.08,-0.26,-0.00,-0.00,-0.00,
5.249,0.02,0.07,-0.25,-0.00,-0.00,-0.00,
5.25,0.02,0.07,-0.25,-0.00,-0.00,-0.00,
5.257,0.02,0.07,-0.25,0.00,0.00,-0.00,
5.258,0.02,0.07,-0.25,0.00,0.00,-0.00,
5.259,0.01,0.04,-0.19,0.00,0.00,-0.00,
5.259,0.01,0.04,-0.19,0.00,0.00,-0.00,
5.267,0.01,0.04,-0.19,0.00,0.00,-0.00,
5.268,0.01,0.04,-0.19,0.00,0.00,-0.00,
5.268,0.01,0.02,-0.19,0.00,0.00,-0.00,
5.269,0.01,0.02,-0.19,0.00,0.00,-0.00,
5.276,0.01,0.02,-0.19,0.00,0.00,0.00,
5.277,0.01,0.02,-0.19,0.00,0.00,0.00,
5.277,0.03,0.00,-0.19,0.00,0.00,0.00,
5.277,0.03,0.00,-0.19,0.00,0.00,0.00,
5.286,0.03,0.00,-0.19,0.00,0.00,0.00,
5.287,0.03,0.00,-0.19,0.00,0.00,0.00,
5.287,0.05,0.00,-0.22,0.00,0.00,0.00,
5.287,0.05,0.00,-0.22,0.00,0.00,0.00,
5.296,0.05,0.00,-0.22,-0.00,0.00,0.00,
5.297,0.05,0.00,-0.22,-0.00,0.00,0.00,
5.298,0.06,0.02,-0.30,-0.00,0.00,0.00,
5.298,0.06,0.02,-0.30,-0.00,0.00,0.00,
5.305,0.06,0.02,-0.30,-0.00,0.00,-0.00,
5.306,0.06,0.02,-0.30,-0.00,0.00,-0.00,
5.307,0.07,0.04,-0.32,-0.00,0.00,-0.00,
5.308,0.07,0.04,-0.32,-0.00,0.00,-0.00,
5.315,0.07,0.04,-0.32,0.00,0.00,0.00,
5.316,0.07,0.04,-0.32,0.00,0.00,0.00,
5.317,0.07,0.07,-0.35,0.00,0.00,0.00,
5.317,0.07,0.07,-0.35,0.00,0.00,0.00,
5.325,0.07,0.07,-0.35,0.00,0.00,-0.00,
5.326,0.07,0.07,-0.35,0.00,0.00,-0.00,
5.326,0.06,0.08,-0.33,0.00,0.00,-0.00,
5.327,0.06,0.08,-0.33,0.00,0.00,-0.00,
5.347,0.06,0.08,-0.33,-0.00,0.00,0.00,
5.348,0.06,0.08,-0.33,-0.00,0.00,0.00,
5.349,0.04,0.07,-0.27,-0.00,0.00,0.00,
5.349,0.04,0.07,-0.27,-0.00,0.00,0.00,
5.352,0.04,0.07,-0.27,0.00,-0.00,0.00,
5.353,0.04,0.07,-0.27,0.00,-0.00,0.00,
5.353,0.04,0.07,-0.27,0.00,-0.00,0.00,
5.354,0.04,0.07,-0.24,0.00,-0.00,0.00,
5.354,0.04,0.07,-0.24,0.00,-0.00,0.00,
5.355,0.04,0.07,-0.24,0.00,-0.00,0.00,
5.357,0.04,0.07,-0.24,0.00,-0.00,0.00,
5.358,0.04,0.07,-0.24,0.00,-0.00,0.00,
5.359,0.04,0.07,-0.24,0.00,-0.00,0.00,
5.359,0.04,0.07,-0.24,0.00,-0.00,0.00,
5.368,0.04,0.07,-0.24,-0.00,0.00,0.00,
5.369,0.04,0.07,-0.24,-0.00,0.00,0.00,
5.369,0.07,0.08,-0.20,-0.00,0.00,0.00,
5.37,0.07,0.08,-0.20,-0.00,0.00,0.00,
5.376,0.07,0.08,-0.20,0.00,-0.00,-0.00,
5.378,0.07,0.08,-0.20,0.00,-0.00,-0.00,
5.379,0.09,0.10,-0.20,0.00,-0.00,-0.00,
5.38,0.09,0.10,-0.20,0.00,-0.00,-0.00,
5.386,0.09,0.10,-0.20,-0.00,-0.00,-0.00,
5.387,0.09,0.10,-0.20,-0.00,-0.00,-0.00,
5.388,0.09,0.09,-0.24,-0.00,-0.00,-0.00,
5.389,0.09,0.09,-0.24,-0.00,-0.00,-0.00,
5.396,0.09,0.09,-0.24,-0.00,-0.00,0.00,
5.396,0.09,0.09,-0.24,-0.00,-0.00,0.00,
5.397,0.09,0.09,-0.23,-0.00,-0.00,0.00,
5.398,0.09,0.09,-0.23,-0.00,-0.00,0.00,
5.406,0.09,0.09,-0.23,0.00,-0.00,0.00,
5.407,0.09,0.09,-0.23,0.00,-0.00,0.00,
5.408,0.09,0.09,-0.23,0.00,-0.00,0.00,
5.409,0.09,0.09,-0.23,0.00,-0.00,0.00,
5.416,0.09,0.09,-0.23,0.00,0.00,-0.00,
5.417,0.09,0.09,-0.23,0.00,0.00,-0.00,
5.418,0.09,0.10,-0.22,0.00,0.00,-0.00,
5.418,0.09,0.10,-0.22,0.00,0.00,-0.00,
5.426,0.09,0.10,-0.22,-0.00,-0.00,-0.00,
5.427,0.09,0.10,-0.22,-0.00,-0.00,-0.00,
5.428,0.09,0.10,-0.21,-0.00,-0.00,-0.00,
5.428,0.09,0.10,-0.21,-0.00,-0.00,-0.00,
5.434,0.09,0.10,-0.21,0.00,-0.00,-0.00,
5.435,0.09,0.10,-0.21,0.00,-0.00,-0.00,
5.435,0.09,0.10,-0.20,0.00,-0.00,-0.00,
5.436,0.09,0.10,-0.20,0.00,-0.00,-0.00,
5.443,0.09,0.10,-0.20,0.00,0.00,0.00,
5.443,0.09,0.10,-0.20,0.00,0.00,0.00,
5.444,0.09,0.10,-0.19,0.00,0.00,0.00,
5.444,0.09,0.10,-0.19,0.00,0.00,0.00,
5.453,0.09,0.10,-0.19,0.00,0.00,-0.00,
5.454,0.09,0.10,-0.19,0.00,0.00,-0.00,
5.455,0.09,0.10,-0.18,0.00,0.00,-0.00,
5.455,0.09,0.10,-0.18,0.00,0.00,-0.00,
5.463,0.09,0.10,-0.18,-0.00,0.00,0.00,
5.463,0.09,0.10,-0.18,-0.00,0.00,0.00,
5.464,0.09,0.10,-0.18,-0.00,0.00,0.00,
5.465,0.09,0.10,-0.18,-0.00,0.00,0.00,
5.474,0.09,0.10,-0.18,-0.00,-0.00,0.00,
5.475,0.09,0.10,-0.18,-0.00,-0.00,0.00,
5.475,0.08,0.10,-0.17,-0.00,-0.00,0.00,
5.476,0.08,0.10,-0.17,-0.00,-0.00,0.00,
5.481,0.08,0.10,-0.17,0.00,-0.00,0.00,
5.482,0.08,0.10,-0.17,0.00,-0.00,0.00,
5.482,0.08,0.11,-0.16,0.00,-0.00,0.00,
5.482,0.08,0.11,-0.16,0.00,-0.00,0.00,
5.49,0.08,0.11,-0.16,0.00,-0.00,-0.00,
5.491,0.08,0.11,-0.16,0.00,-0.00,-0.00,
5.491,0.08,0.11,-0.15,0.00,-0.00,-0.00,
5.491,0.08,0.11,-0.15,0.00,-0.00,-0.00,
5.504,0.08,0.11,-0.15,0.00,0.00,-0.00,
5.504,0.08,0.11,-0.15,0.00,0.00,-0.00,
5.505,0.08,0.11,-0.14,0.00,0.00,-0.00,
5.505,0.08,0.11,-0.14,0.00,0.00,-0.00,
5.51,0.08,0.11,-0.14,0.00,0.00,-0.00,
5.511,0.08,0.11,-0.14,0.00,0.00,-0.00,
5.512,0.08,0.11,-0.14,0.00,0.00,-0.00,
5.512,0.08,0.11,-0.14,0.00,0.00,-0.00,
5.519,0.08,0.11,-0.14,0.00,0.00,-0.00,
5.52,0.08,0.11,-0.14,0.00,0.00,-0.00,
5.52,0.01,-0.01,0.09,0.00,0.00,-0.00,
5.521,0.01,-0.01,0.09,0.00,0.00,-0.00,
5.529,0.01,-0.01,0.09,0.00,-0.00,0.00,
5.53,0.01,-0.01,0.09,0.00,-0.00,0.00,
5.531,0.05,-0.03,0.09,0.00,-0.00,0.00,
5.531,0.05,-0.03,0.09,0.00,-0.00,0.00,
5.539,0.05,-0.03,0.09,-0.00,-0.00,-0.00,
5.54,0.05,-0.03,0.09,-0.00,-0.00,-0.00,
5.541,0.08,-0.02,0.09,-0.00,-0.00,-0.00,
5.541,0.08,-0.02,0.09,-0.00,-0.00,-0.00,
5.548,0.08,-0.02,0.09,-0.00,-0.00,0.00,
5.549,0.08,-0.02,0.09,-0.00,-0.00,0.00,
5.55,0.09,-0.00,0.08,-0.00,-0.00,0.00,
5.55,0.09,-0.00,0.08,-0.00,-0.00,0.00,
5.557,0.09,-0.00,0.08,0.00,0.00,0.00,
5.559,0.09,-0.00,0.08,0.00,0.00,0.00,
5.559,0.10,0.04,0.12,0.00,0.00,0.00,
5.56,0.10,0.04,0.12,0.00,0.00,0.00,
5.567,0.10,0.04,0.12,-0.00,0.00,0.00,
5.568,0.10,0.04,0.12,-0.00,0.00,0.00,
5.569,0.06,0.07,0.15,-0.00,0.00,0.00,
5.569,0.06,0.07,0.15,-0.00,0.00,0.00,
5.576,0.06,0.07,0.15,0.00,-0.00,0.00,
5.577,0.06,0.07,0.15,0.00,-0.00,0.00,
5.578,0.04,0.09,0.15,0.00,-0.00,0.00,
5.579,0.04,0.09,0.15,0.00,-0.00,0.00,
5.586,0.04,0.09,0.15,-0.00,0.00,-0.00,
5.586,0.04,0.09,0.15,-0.00,0.00,-0.00,
5.586,0.01,0.08,0.12,-0.00,0.00,-0.00,
5.587,0.01,0.08,0.12,-0.00,0.00,-0.00,
5.596,0.01,0.08,0.12,0.00,0.00,-0.00,
5.597,0.01,0.08,0.12,0.00,0.00,-0.00,
5.597,-0.04,0.09,0.08,0.00,0.00,-0.00,
5.598,-0.04,0.09,0.08,0.00,0.00,-0.00,
5.607,-0.04,0.09,0.08,-0.00,0.00,-0.00,
5.608,-0.04,0.09,0.08,-0.00,0.00,-0.00,
5.609,-0.05,0.09,0.07,-0.00,0.00,-0.00,
5.609,-0.05,0.09,0.07,-0.00,0.00,-0.00,
5.616,-0.05,0.09,0.07,-0.00,-0.00,-0.00,
5.616,-0.05,0.09,0.07,-0.00,-0.00,-0.00,
5.617,-0.07,0.08,0.07,-0.00,-0.00,-0.00,
5.618,-0.07,0.08,0.07,-0.00,-0.00,-0.00,
5.63,-0.07,0.08,0.07,-0.00,0.00,-0.00,
5.63,-0.07,0.08,0.07,-0.00,0.00,-0.00,
5.631,-0.08,0.08,0.08,-0.00,0.00,-0.00,
5.631,-0.08,0.08,0.08,-0.00,0.00,-0.00,
5.637,-0.08,0.08,0.08,-0.00,-0.00,0.00,
5.638,-0.08,0.08,0.08,-0.00,-0.00,0.00,
5.638,-0.08,0.08,0.09,-0.00,-0.00,0.00,
5.639,-0.08,0.08,0.09,-0.00,-0.00,0.00,
5.644,-0.08,0.08,0.09,-0.00,0.00,0.00,
5.644,-0.08,0.08,0.09,-0.00,0.00,0.00,
5.645,-0.08,0.09,0.09,-0.00,0.00,0.00,
5.645,-0.08,0.09,0.09,-0.00,0.00,0.00,
5.653,-0.08,0.09,0.09,0.00,0.00,0.00,
5.654,-0.08,0.09,0.09,0.00,0.00,0.00,
5.654,-0.01,0.13,0.38,0.00,0.00,0.00,
5.655,-0.01,0.13,0.38,0.00,0.00,0.00,
5.662,-0.01,0.13,0.38,0.00,-0.00,-0.00,
5.663,-0.01,0.13,0.38,0.00,-0.00,-0.00,
5.663,-0.02,0.17,0.40,0.00,-0.00,-0.00,
5.664,-0.02,0.17,0.40,0.00,-0.00,-0.00,
5.672,-0.02,0.17,0.40,-0.00,-0.00,0.00,
5.673,-0.02,0.17,0.40,-0.00,-0.00,0.00,
5.674,-0.06,0.25,0.39,-0.00,-0.00,0.00,
5.675,-0.06,0.25,0.39,-0.00,-0.00,0.00,
5.681,-0.06,0.25,0.39,-0.00,0.00,0.00,
5.681,-0.06,0.25,0.39,-0.00,0.00,0.00,
5.682,-0.12,0.35,0.35,-0.00,0.00,0.00,
5.683,-0.12,0.35,0.35,-0.00,0.00,0.00,
5.691,-0.12,0.35,0.35,-0.00,-0.00,-0.00,
5.692,-0.12,0.35,0.35,-0.00,-0.00,-0.00,
5.693,-0.17,0.49,0.38,-0.00,-0.00,-0.00,
5.693,-0.17,0.49,0.38,-0.00,-0.00,-0.00,
5.705,-0.17,0.49,0.38,0.00,0.00,-0.00,
5.706,-0.17,0.49,0.38,0.00,0.00,-0.00,
5.707,-0.22,0.58,0.41,0.00,0.00,-0.00,
5.707,-0.22,0.58,0.41,0.00,0.00,-0.00,
5.714,-0.22,0.58,0.41,-0.00,0.00,0.00,
5.714,-0.22,0.58,0.41,-0.00,0.00,0.00,
5.715,-0.28,0.60,0.42,-0.00,0.00,0.00,
5.715,-0.28,0.60,0.42,-0.00,0.00,0.00,
5.719,-0.28,0.60,0.42,-0.00,0.00,0.00,
5.72,-0.28,0.60,0.42,-0.00,0.00,0.00,
5.721,-0.28,0.60,0.42,-0.00,0.00,0.00,
5.721,-0.28,0.60,0.42,-0.00,0.00,0.00,
5.729,-0.28,0.60,0.42,0.00,-0.00,-0.00,
5.73,-0.28,0.60,0.42,0.00,-0.00,-0.00,
5.73,-0.43,0.56,0.40,0.00,-0.00,-0.00,
5.731,-0.43,0.56,0.40,0.00,-0.00,-0.00,
5.738,-0.43,0.56,0.40,-0.00,0.00,0.00,
5.74,-0.43,0.56,0.40,-0.00,0.00,0.00,
5.741,-0.48,0.50,0.40,-0.00,0.00,0.00,
5.741,-0.48,0.50,0.40,-0.00,0.00,0.00,
5.748,-0.48,0.50,0.40,-0.00,-0.00,-0.00,
5.748,-0.48,0.50,0.40,-0.00,-0.00,-0.00,
5.749,-0.51,0.46,0.40,-0.00,-0.00,-0.00,
5.749,-0.51,0.46,0.40,-0.00,-0.00,-0.00,
5.757,-0.51,0.46,0.40,0.00,-0.00,-0.00,
5.758,-0.51,0.46,0.40,0.00,-0.00,-0.00,
5.758,-0.54,0.43,0.42,0.00,-0.00,-0.00,
5.759,-0.54,0.43,0.42,0.00,-0.00,-0.00,
5.767,-0.54,0.43,0.42,0.31,0.25,0.31,
5.768,-0.54,0.43,0.42,0.31,0.25,0.31,
5.768,-0.57,0.45,0.44,0.31,0.25,0.31,
5.769,-0.57,0.45,0.44,0.31,0.25,0.31,
5.776,-0.57,0.45,0.44,0.30,0.27,0.34,
5.778,-0.57,0.45,0.44,0.30,0.27,0.34,
5.778,-0.62,0.51,0.46,0.30,0.27,0.34,
5.779,-0.62,0.51,0.46,0.30,0.27,0.34,
5.786,-0.62,0.51,0.46,0.29,0.29,0.36,
5.786,-0.62,0.51,0.46,0.29,0.29,0.36,
5.787,-0.66,0.56,0.50,0.29,0.29,0.36,
5.787,-0.66,0.56,0.50,0.29,0.29,0.36,
5.795,-0.66,0.56,0.50,0.29,0.30,0.37,
5.796,-0.66,0.56,0.50,0.29,0.30,0.37,
5.797,-0.70,0.61,0.55,0.29,0.30,0.37,
5.797,-0.70,0.61,0.55,0.29,0.30,0.37,
5.805,-0.70,0.61,0.55,0.29,0.31,0.38,
5.806,-0.70,0.61,0.55,0.29,0.31,0.38,
5.807,-0.73,0.62,0.62,0.29,0.31,0.38,
5.808,-0.73,0.62,0.62,0.29,0.31,0.38,
5.814,-0.73,0.62,0.62,0.31,0.33,0.39,
5.815,-0.73,0.62,0.62,0.31,0.33,0.39,
5.815,-0.74,0.61,0.73,0.31,0.33,0.39,
5.815,-0.74,0.61,0.73,0.31,0.33,0.39,
5.824,-0.74,0.61,0.73,0.35,0.34,0.40,
5.824,-0.74,0.61,0.73,0.35,0.34,0.40,
5.825,-0.76,0.59,0.84,0.35,0.34,0.40,
5.825,-0.76,0.59,0.84,0.35,0.34,0.40,
5.834,-0.76,0.59,0.84,0.39,0.34,0.40,
5.834,-0.76,0.59,0.84,0.39,0.34,0.40,
5.835,-0.74,0.56,0.96,0.39,0.34,0.40,
5.835,-0.74,0.56,0.96,0.39,0.34,0.40,
5.844,-0.74,0.56,0.96,0.45,0.34,0.39,
5.844,-0.74,0.56,0.96,0.45,0.34,0.39,
5.845,-0.69,0.53,1.01,0.45,0.34,0.39,
5.845,-0.69,0.53,1.01,0.45,0.34,0.39,
5.852,-0.69,0.53,1.01,0.52,0.32,0.36,
5.854,-0.69,0.53,1.01,0.52,0.32,0.36,
5.854,-0.63,0.49,0.88,0.52,0.32,0.36,
5.855,-0.63,0.49,0.88,0.52,0.32,0.36,
5.862,-0.63,0.49,0.88,0.58,0.30,0.33,
5.863,-0.63,0.49,0.88,0.58,0.30,0.33,
5.863,-0.60,0.45,0.58,0.58,0.30,0.33,
5.864,-0.60,0.45,0.58,0.58,0.30,0.33,
5.872,-0.60,0.45,0.58,0.59,0.28,0.28,
5.874,-0.60,0.45,0.58,0.59,0.28,0.28,
5.875,-0.52,0.39,0.13,0.59,0.28,0.28,
5.876,-0.52,0.39,0.13,0.59,0.28,0.28,
5.881,-0.52,0.39,0.13,0.54,0.27,0.22,
5.882,-0.52,0.39,0.13,0.54,0.27,0.22,
5.883,-0.46,0.28,-0.39,0.54,0.27,0.22,
5.884,-0.46,0.28,-0.39,0.54,0.27,0.22,
5.89,-0.46,0.28,-0.39,0.40,0.28,0.15,
5.892,-0.46,0.28,-0.39,0.40,0.28,0.15,
5.893,-0.40,0.19,-0.85,0.40,0.28,0.15,
5.893,-0.40,0.19,-0.85,0.40,0.28,0.15,
5.903,-0.40,0.19,-0.85,0.14,0.30,0.08,
5.904,-0.40,0.19,-0.85,0.14,0.30,0.08,
5.905,-0.29,0.16,-1.18,0.14,0.30,0.08,
5.905,-0.29,0.16,-1.18,0.14,0.30,0.08,
5.91,-0.29,0.16,-1.18,-0.19,0.34,0.01,
5.911,-0.29,0.16,-1.18,-0.19,0.34,0.01,
5.911,-0.22,0.19,-1.34,-0.19,0.34,0.01,
5.912,-0.22,0.19,-1.34,-0.19,0.34,0.01,
5.92,-0.22,0.19,-1.34,-0.19,0.34,0.01,
5.92,-0.22,0.19,-1.34,-0.19,0.34,0.01,
5.92,-0.22,0.19,-1.34,-0.19,0.34,0.01,
5.921,-0.22,0.19,-1.34,-0.19,0.34,0.01,
5.929,-0.22,0.19,-1.34,-0.55,0.38,-0.06,
5.929,-0.22,0.19,-1.34,-0.55,0.38,-0.06,
5.93,-0.10,0.37,-1.34,-0.55,0.38,-0.06,
5.93,-0.10,0.37,-1.34,-0.55,0.38,-0.06,
5.938,-0.10,0.37,-1.34,-0.88,0.41,-0.13,
5.939,-0.10,0.37,-1.34,-0.88,0.41,-0.13,
5.94,-0.08,0.39,-1.45,-0.88,0.41,-0.13,
5.94,-0.08,0.39,-1.45,-0.88,0.41,-0.13,
5.948,-0.08,0.39,-1.45,-1.12,0.42,-0.18,
5.949,-0.08,0.39,-1.45,-1.12,0.42,-0.18,
5.949,-0.11,0.39,-1.77,-1.12,0.42,-0.18,
5.95,-0.11,0.39,-1.77,-1.12,0.42,-0.18,
5.958,-0.11,0.39,-1.77,-1.28,0.43,-0.23,
5.96,-0.11,0.39,-1.77,-1.28,0.43,-0.23,
5.96,-0.18,0.34,-2.34,-1.28,0.43,-0.23,
5.961,-0.18,0.34,-2.34,-1.28,0.43,-0.23,
5.966,-0.18,0.34,-2.34,-1.39,0.44,-0.25,
5.967,-0.18,0.34,-2.34,-1.39,0.44,-0.25,
5.967,-0.28,0.23,-3.79,-1.39,0.44,-0.25,
5.967,-0.28,0.23,-3.79,-1.39,0.44,-0.25,
5.976,-0.28,0.23,-3.79,-1.56,0.48,-0.24,
5.977,-0.28,0.23,-3.79,-1.56,0.48,-0.24,
5.978,-0.38,0.04,-4.11,-1.56,0.48,-0.24,
5.979,-0.38,0.04,-4.11,-1.56,0.48,-0.24,
5.985,-0.38,0.04,-4.11,-1.85,0.55,-0.20,
5.986,-0.38,0.04,-4.11,-1.85,0.55,-0.20,
5.986,-0.42,-0.21,-4.35,-1.85,0.55,-0.20,
5.987,-0.42,-0.21,-4.35,-1.85,0.55,-0.20,
5.995,-0.42,-0.21,-4.35,-2.26,0.64,-0.14,
5.996,-0.42,-0.21,-4.35,-2.26,0.64,-0.14,
5.997,-0.29,-0.41,-4.38,-2.26,0.64,-0.14,
5.998,-0.29,-0.41,-4.38,-2.26,0.64,-0.14,
6.006,-0.29,-0.41,-4.38,-2.64,0.71,-0.08,
6.007,-0.29,-0.41,-4.38,-2.64,0.71,-0.08,
6.008,0.08,-0.53,-4.23,-2.64,0.71,-0.08,
6.008,0.08,-0.53,-4.23,-2.64,0.71,-0.08,
6.014,0.08,-0.53,-4.23,-2.88,0.74,-0.06,
6.016,0.08,-0.53,-4.23,-2.88,0.74,-0.06,
6.016,0.71,-0.52,-3.97,-2.88,0.74,-0.06,
6.017,0.71,-0.52,-3.97,-2.88,0.74,-0.06,
6.024,0.71,-0.52,-3.97,-2.93,0.69,-0.12,
6.024,0.71,-0.52,-3.97,-2.93,0.69,-0.12,
6.025,2.25,-0.44,-3.70,-2.93,0.69,-0.12,
6.025,2.25,-0.44,-3.70,-2.93,0.69,-0.12,
6.034,2.25,-0.44,-3.70,-2.82,0.54,-0.32,
6.034,2.25,-0.44,-3.70,-2.82,0.54,-0.32,
6.035,2.55,-0.32,-3.51,-2.82,0.54,-0.32,
6.035,2.55,-0.32,-3.51,-2.82,0.54,-0.32,
6.043,2.55,-0.32,-3.51,-2.61,0.29,-0.71,
6.044,2.55,-0.32,-3.51,-2.61,0.29,-0.71,
6.045,2.74,-0.21,-3.30,-2.61,0.29,-0.71,
6.046,2.74,-0.21,-3.30,-2.61,0.29,-0.71,
6.053,2.74,-0.21,-3.30,-2.32,-0.00,-1.24,
6.054,2.74,-0.21,-3.30,-2.32,-0.00,-1.24,
6.054,2.70,-0.11,-3.09,-2.32,-0.00,-1.24,
6.055,2.70,-0.11,-3.09,-2.32,-0.00,-1.24,
6.062,2.70,-0.11,-3.09,-1.99,-0.24,-1.74,
6.063,2.70,-0.11,-3.09,-1.99,-0.24,-1.74,
6.064,2.53,-0.01,-2.95,-1.99,-0.24,-1.74,
6.064,2.53,-0.01,-2.95,-1.99,-0.24,-1.74,
6.072,2.53,-0.01,-2.95,-1.63,-0.37,-2.08,
6.074,2.53,-0.01,-2.95,-1.63,-0.37,-2.08,
6.074,2.33,0.11,-2.87,-1.63,-0.37,-2.08,
6.075,2.33,0.11,-2.87,-1.63,-0.37,-2.08,
6.081,2.33,0.11,-2.87,-1.28,-0.39,-2.21,
6.081,2.33,0.11,-2.87,-1.28,-0.39,-2.21,
6.082,2.21,0.27,-2.95,-1.28,-0.39,-2.21,
6.082,2.21,0.27,-2.95,-1.28,-0.39,-2.21,
6.09,2.21,0.27,-2.95,-0.97,-0.35,-2.17,
6.091,2.21,0.27,-2.95,-0.97,-0.35,-2.17,
6.091,2.23,0.42,-3.19,-0.97,-0.35,-2.17,
6.092,2.23,0.42,-3.19,-0.97,-0.35,-2.17,
6.105,2.23,0.42,-3.19,-0.74,-0.26,-1.99,
6.106,2.23,0.42,-3.19,-0.74,-0.26,-1.99,
6.106,2.33,0.58,-3.49,-0.74,-0.26,-1.99,
6.107,2.33,0.58,-3.49,-0.74,-0.26,-1.99,
6.11,2.33,0.58,-3.49,-0.62,-0.16,-1.76,
6.111,2.33,0.58,-3.49,-0.62,-0.16,-1.76,
6.112,2.46,0.66,-3.77,-0.62,-0.16,-1.76,
6.112,2.46,0.66,-3.77,-0.62,-0.16,-1.76,
6.12,2.46,0.66,-3.77,-0.62,-0.16,-1.76,
6.121,2.46,0.66,-3.77,-0.62,-0.16,-1.76,
6.121,2.46,0.66,-3.77,-0.62,-0.16,-1.76,
6.122,2.46,0.66,-3.77,-0.62,-0.16,-1.76,
6.129,2.46,0.66,-3.77,-0.63,-0.09,-1.54,
6.129,2.46,0.66,-3.77,-0.63,-0.09,-1.54,
6.13,2.63,0.63,-4.07,-0.63,-0.09,-1.54,
6.13,2.63,0.63,-4.07,-0.63,-0.09,-1.54,
6.138,2.63,0.63,-4.07,-0.74,-0.04,-1.36,
6.139,2.63,0.63,-4.07,-0.74,-0.04,-1.36,
6.14,2.62,0.54,-3.91,-0.74,-0.04,-1.36,
6.14,2.62,0.54,-3.91,-0.74,-0.04,-1.36,
6.148,2.62,0.54,-3.91,-0.93,-0.02,-1.24,
6.149,2.62,0.54,-3.91,-0.93,-0.02,-1.24,
6.15,2.56,0.44,-3.68,-0.93,-0.02,-1.24,
6.15,2.56,0.44,-3.68,-0.93,-0.02,-1.24,
6.157,2.56,0.44,-3.68,-1.11,-0.00,-1.14,
6.158,2.56,0.44,-3.68,-1.11,-0.00,-1.14,
6.159,2.44,0.35,-3.43,-1.11,-0.00,-1.14,
6.159,2.44,0.35,-3.43,-1.11,-0.00,-1.14,
6.167,2.44,0.35,-3.43,-1.21,0.02,-1.05,
6.169,2.44,0.35,-3.43,-1.21,0.02,-1.05,
6.17,2.30,0.32,-3.24,-1.21,0.02,-1.05,
6.17,2.30,0.32,-3.24,-1.21,0.02,-1.05,
6.176,2.30,0.32,-3.24,-1.21,0.04,-0.93,
6.177,2.30,0.32,-3.24,-1.21,0.04,-0.93,
6.178,2.14,0.37,-3.25,-1.21,0.04,-0.93,
6.178,2.14,0.37,-3.25,-1.21,0.04,-0.93,
6.186,2.14,0.37,-3.25,-1.13,0.06,-0.78,
6.186,2.14,0.37,-3.25,-1.13,0.06,-0.78,
6.187,1.99,0.52,-3.33,-1.13,0.06,-0.78,
6.188,1.99,0.52,-3.33,-1.13,0.06,-0.78,
6.195,1.99,0.52,-3.33,-1.03,0.05,-0.62,
6.196,1.99,0.52,-3.33,-1.03,0.05,-0.62,
6.196,1.85,0.74,-3.42,-1.03,0.05,-0.62,
6.197,1.85,0.74,-3.42,-1.03,0.05,-0.62,
6.205,1.85,0.74,-3.42,-0.96,0.03,-0.46,
6.206,1.85,0.74,-3.42,-0.96,0.03,-0.46,
6.206,1.70,1.00,-3.49,-0.96,0.03,-0.46,
6.207,1.70,1.00,-3.49,-0.96,0.03,-0.46,
6.214,1.70,1.00,-3.49,-0.95,-0.01,-0.32,
6.215,1.70,1.00,-3.49,-0.95,-0.01,-0.32,
6.215,1.56,1.25,-3.43,-0.95,-0.01,-0.32,
6.216,1.56,1.25,-3.43,-0.95,-0.01,-0.32,
6.224,1.56,1.25,-3.43,-1.00,-0.04,-0.18,
6.224,1.56,1.25,-3.43,-1.00,-0.04,-0.18,
6.225,1.46,1.43,-3.26,-1.00,-0.04,-0.18,
6.225,1.46,1.43,-3.26,-1.00,-0.04,-0.18,
6.233,1.46,1.43,-3.26,-1.08,-0.05,-0.06,
6.234,1.46,1.43,-3.26,-1.08,-0.05,-0.06,
6.234,1.44,1.58,-3.12,-1.08,-0.05,-0.06,
6.234,1.44,1.58,-3.12,-1.08,-0.05,-0.06,
6.243,1.44,1.58,-3.12,-1.16,-0.05,0.05,
6.244,1.44,1.58,-3.12,-1.16,-0.05,0.05,
6.245,1.48,1.75,-2.98,-1.16,-0.05,0.05,
6.245,1.48,1.75,-2.98,-1.16,-0.05,0.05,
6.253,1.48,1.75,-2.98,-1.21,-0.05,0.12,
6.253,1.48,1.75,-2.98,-1.21,-0.05,0.12,
6.254,1.54,1.95,-2.89,-1.21,-0.05,0.12,
6.254,1.54,1.95,-2.89,-1.21,-0.05,0.12,
6.262,1.54,1.95,-2.89,-1.23,-0.04,0.15,
6.263,1.54,1.95,-2.89,-1.23,-0.04,0.15,
6.264,1.52,2.22,-2.89,-1.23,-0.04,0.15,
6.265,1.52,2.22,-2.89,-1.23,-0.04,0.15,
6.272,1.52,2.22,-2.89,-1.24,-0.03,0.14,
6.273,1.52,2.22,-2.89,-1.24,-0.03,0.14,
6.274,1.44,2.51,-2.94,-1.24,-0.03,0.14,
6.275,1.44,2.51,-2.94,-1.24,-0.03,0.14,
6.28,1.44,2.51,-2.94,-1.27,-0.01,0.09,
6.281,1.44,2.51,-2.94,-1.27,-0.01,0.09,
6.282,1.31,2.75,-3.07,-1.27,-0.01,0.09,
6.282,1.31,2.75,-3.07,-1.27,-0.01,0.09,
6.291,1.31,2.75,-3.07,-1.34,0.02,0.03,
6.292,1.31,2.75,-3.07,-1.34,0.02,0.03,
6.292,1.18,2.91,-3.28,-1.34,0.02,0.03,
6.293,1.18,2.91,-3.28,-1.34,0.02,0.03,
6.306,1.18,2.91,-3.28,-1.47,0.04,-0.00,
6.307,1.18,2.91,-3.28,-1.47,0.04,-0.00,
6.307,1.09,2.92,-3.56,-1.47,0.04,-0.00,
6.308,1.09,2.92,-3.56,-1.47,0.04,-0.00,
6.31,1.09,2.92,-3.56,-1.65,0.05,-0.02,
6.311,1.09,2.92,-3.56,-1.65,0.05,-0.02,
6.311,0.96,2.79,-3.77,-1.65,0.05,-0.02,
6.312,0.96,2.79,-3.77,-1.65,0.05,-0.02,
6.319,0.96,2.79,-3.77,-1.65,0.05,-0.02,
6.32,0.96,2.79,-3.77,-1.65,0.05,-0.02,
6.32,0.96,2.79,-3.77,-1.65,0.05,-0.02,
6.321,0.96,2.79,-3.77,-1.65,0.05,-0.02,
6.341,0.96,2.79,-3.77,-1.89,0.05,-0.01,
6.342,0.96,2.79,-3.77,-1.89,0.05,-0.01,
6.343,0.87,2.49,-3.84,-1.89,0.05,-0.01,
6.343,0.87,2.49,-3.84,-1.89,0.05,-0.01,
6.344,0.87,2.49,-3.84,-1.89,0.05,-0.01,
6.344,0.87,2.49,-3.84,-1.89,0.05,-0.01,
6.345,0.87,2.49,-3.84,-1.89,0.05,-0.01,
6.345,0.87,2.49,-3.84,-1.89,0.05,-0.01,
6.346,0.87,2.49,-3.84,-1.89,0.05,-0.01,
6.346,0.87,2.49,-3.84,-1.89,0.05,-0.01,
6.352,0.87,2.49,-3.84,-2.30,0.02,-0.01,
6.353,0.87,2.49,-3.84,-2.30,0.02,-0.01,
6.353,0.64,2.26,-2.95,-2.30,0.02,-0.01,
6.353,0.64,2.26,-2.95,-2.30,0.02,-0.01,
6.362,0.64,2.26,-2.95,-2.30,0.02,-0.01,
6.362,0.64,2.26,-2.95,-2.30,0.02,-0.01,
6.363,0.64,2.26,-2.95,-2.30,0.02,-0.01,
6.364,0.64,2.26,-2.95,-2.30,0.02,-0.01,
6.372,0.64,2.26,-2.95,-1.99,0.01,-0.04,
6.373,0.64,2.26,-2.95,-1.99,0.01,-0.04,
6.373,0.27,2.28,-2.71,-1.99,0.01,-0.04,
6.374,0.27,2.28,-2.71,-1.99,0.01,-0.04,
6.38,0.27,2.28,-2.71,-1.78,0.00,-0.02,
6.381,0.27,2.28,-2.71,-1.78,0.00,-0.02,
6.382,-0.04,2.41,-2.80,-1.78,0.00,-0.02,
6.382,-0.04,2.41,-2.80,-1.78,0.00,-0.02,
6.39,-0.04,2.41,-2.80,-1.58,-0.02,0.04,
6.392,-0.04,2.41,-2.80,-1.58,-0.02,0.04,
6.393,-0.35,2.59,-3.05,-1.58,-0.02,0.04,
6.394,-0.35,2.59,-3.05,-1.58,-0.02,0.04,
6.405,-0.35,2.59,-3.05,-1.43,-0.05,0.13,
6.406,-0.35,2.59,-3.05,-1.43,-0.05,0.13,
6.407,-0.51,2.77,-3.33,-1.43,-0.05,0.13,
6.407,-0.51,2.77,-3.33,-1.43,-0.05,0.13,
6.41,-0.51,2.77,-3.33,-1.38,-0.09,0.24,
6.411,-0.51,2.77,-3.33,-1.38,-0.09,0.24,
6.412,-0.46,2.89,-3.48,-1.38,-0.09,0.24,
6.412,-0.46,2.89,-3.48,-1.38,-0.09,0.24,
6.421,-0.46,2.89,-3.48,-1.38,-0.09,0.24,
6.422,-0.46,2.89,-3.48,-1.38,-0.09,0.24,
6.425,-0.46,2.89,-3.48,-1.38,-0.09,0.24,
6.426,-0.46,2.89,-3.48,-1.38,-0.09,0.24,
6.429,-0.46,2.89,-3.48,-1.42,-0.14,0.36,
6.429,-0.46,2.89,-3.48,-1.42,-0.14,0.36,
6.43,0.02,2.75,-3.47,-1.42,-0.14,0.36,
6.43,0.02,2.75,-3.47,-1.42,-0.14,0.36,
6.439,0.02,2.75,-3.47,-1.53,-0.17,0.43,
6.44,0.02,2.75,-3.47,-1.53,-0.17,0.43,
6.44,0.24,2.55,-3.24,-1.53,-0.17,0.43,
6.441,0.24,2.55,-3.24,-1.53,-0.17,0.43,
6.448,0.24,2.55,-3.24,-1.63,-0.17,0.39,
6.449,0.24,2.55,-3.24,-1.63,-0.17,0.39,
6.449,0.45,2.30,-2.99,-1.63,-0.17,0.39,
6.45,0.45,2.30,-2.99,-1.63,-0.17,0.39,
6.458,0.45,2.30,-2.99,-1.65,-0.12,0.24,
6.459,0.45,2.30,-2.99,-1.65,-0.12,0.24,
6.459,0.60,2.09,-2.79,-1.65,-0.12,0.24,
6.46,0.60,2.09,-2.79,-1.65,-0.12,0.24,
6.467,0.60,2.09,-2.79,-1.57,-0.12,0.01,
6.468,0.60,2.09,-2.79,-1.57,-0.12,0.01,
6.469,0.68,1.93,-2.67,-1.57,-0.12,0.01,
6.469,0.68,1.93,-2.67,-1.57,-0.12,0.01,
6.476,0.68,1.93,-2.67,-1.41,-0.08,-0.24,
6.478,0.68,1.93,-2.67,-1.41,-0.08,-0.24,
6.479,0.66,1.81,-2.57,-1.41,-0.08,-0.24,
6.479,0.66,1.81,-2.57,-1.41,-0.08,-0.24,
6.485,0.66,1.81,-2.57,-1.19,0.04,-0.44,
6.486,0.66,1.81,-2.57,-1.19,0.04,-0.44,
6.487,0.55,1.76,-2.51,-1.19,0.04,-0.44,
6.487,0.55,1.76,-2.51,-1.19,0.04,-0.44,
6.496,0.55,1.76,-2.51,-0.97,0.13,-0.59,
6.497,0.55,1.76,-2.51,-0.97,0.13,-0.59,
6.497,0.44,1.74,-2.45,-0.97,0.13,-0.59,
6.498,0.44,1.74,-2.45,-0.97,0.13,-0.59,
6.507,0.44,1.74,-2.45,-0.78,0.18,-0.66,
6.508,0.44,1.74,-2.45,-0.78,0.18,-0.66,
6.509,0.37,1.76,-2.37,-0.78,0.18,-0.66,
6.509,0.37,1.76,-2.37,-0.78,0.18,-0.66,
6.515,0.37,1.76,-2.37,-0.64,0.19,-0.66,
6.516,0.37,1.76,-2.37,-0.64,0.19,-0.66,
6.516,0.34,1.85,-2.31,-0.64,0.19,-0.66,
6.517,0.34,1.85,-2.31,-0.64,0.19,-0.66,
6.525,0.34,1.85,-2.31,-0.55,0.17,-0.61,
6.526,0.34,1.85,-2.31,-0.55,0.17,-0.61,
6.526,0.32,2.01,-2.26,-0.55,0.17,-0.61,
6.526,0.32,2.01,-2.26,-0.55,0.17,-0.61,
6.533,0.32,2.01,-2.26,-0.50,0.15,-0.52,
6.534,0.32,2.01,-2.26,-0.50,0.15,-0.52,
6.535,0.28,2.24,-2.22,-0.50,0.15,-0.52,
6.535,0.28,2.24,-2.22,-0.50,0.15,-0.52,
6.542,0.28,2.24,-2.22,-0.51,0.12,-0.43,
6.543,0.28,2.24,-2.22,-0.51,0.12,-0.43,
6.544,0.21,2.44,-2.26,-0.51,0.12,-0.43,
6.544,0.21,2.44,-2.26,-0.51,0.12,-0.43,
6.552,0.21,2.44,-2.26,-0.57,0.09,-0.34,
6.553,0.21,2.44,-2.26,-0.57,0.09,-0.34,
6.554,0.10,2.58,-2.26,-0.57,0.09,-0.34,
6.554,0.10,2.58,-2.26,-0.57,0.09,-0.34,
6.562,0.10,2.58,-2.26,-0.68,0.04,-0.27,
6.563,0.10,2.58,-2.26,-0.68,0.04,-0.27,
6.563,-0.06,2.60,-2.21,-0.68,0.04,-0.27,
6.564,-0.06,2.60,-2.21,-0.68,0.04,-0.27,
6.571,-0.06,2.60,-2.21,-0.82,-0.02,-0.20,
6.572,-0.06,2.60,-2.21,-0.82,-0.02,-0.20,
6.573,-0.20,2.56,-2.14,-0.82,-0.02,-0.20,
6.574,-0.20,2.56,-2.14,-0.82,-0.02,-0.20,
6.581,-0.20,2.56,-2.14,-0.98,-0.08,-0.10,
6.581,-0.20,2.56,-2.14,-0.98,-0.08,-0.10,
6.582,-0.26,2.52,-2.00,-0.98,-0.08,-0.10,
6.583,-0.26,2.52,-2.00,-0.98,-0.08,-0.10,
6.59,-0.26,2.52,-2.00,-1.10,-0.13,0.02,
6.591,-0.26,2.52,-2.00,-1.10,-0.13,0.02,
6.593,-0.23,2.50,-1.94,-1.10,-0.13,0.02,
6.594,-0.23,2.50,-1.94,-1.10,-0.13,0.02,
6.605,-0.23,2.50,-1.94,-1.17,-0.18,0.14,
6.606,-0.23,2.50,-1.94,-1.17,-0.18,0.14,
6.607,-0.12,2.52,-1.98,-1.17,-0.18,0.14,
6.607,-0.12,2.52,-1.98,-1.17,-0.18,0.14,
6.61,-0.12,2.52,-1.98,-1.21,-0.21,0.23,
6.611,-0.12,2.52,-1.98,-1.21,-0.21,0.23,
6.612,0.02,2.56,-2.00,-1.21,-0.21,0.23,
6.612,0.02,2.56,-2.00,-1.21,-0.21,0.23,
6.621,0.02,2.56,-2.00,-1.21,-0.21,0.23,
6.622,0.02,2.56,-2.00,-1.21,-0.21,0.23,
6.622,0.02,2.56,-2.00,-1.21,-0.21,0.23,
6.623,0.02,2.56,-2.00,-1.21,-0.21,0.23,
6.629,0.02,2.56,-2.00,-1.23,-0.23,0.27,
6.629,0.02,2.56,-2.00,-1.23,-0.23,0.27,
6.63,0.18,2.87,-2.14,-1.23,-0.23,0.27,
6.63,0.18,2.87,-2.14,-1.23,-0.23,0.27,
6.638,0.18,2.87,-2.14,-1.26,-0.22,0.26,
6.64,0.18,2.87,-2.14,-1.26,-0.22,0.26,
6.64,0.14,3.01,-2.10,-1.26,-0.22,0.26,
6.641,0.14,3.01,-2.10,-1.26,-0.22,0.26,
6.648,0.14,3.01,-2.10,-1.33,-0.19,0.19,
6.649,0.14,3.01,-2.10,-1.33,-0.19,0.19,
6.649,0.08,3.16,-2.04,-1.33,-0.19,0.19,
6.65,0.08,3.16,-2.04,-1.33,-0.19,0.19,
6.658,0.08,3.16,-2.04,-1.44,-0.14,0.13,
6.659,0.08,3.16,-2.04,-1.44,-0.14,0.13,
6.666,0.02,3.22,-1.97,-1.44,-0.14,0.13,
6.667,0.02,3.22,-1.97,-1.44,-0.14,0.13,
6.667,0.02,3.22,-1.97,-1.57,-0.08,0.10,
6.668,0.02,3.22,-1.97,-1.57,-0.08,0.10,
6.669,0.01,3.21,-1.86,-1.57,-0.08,0.10,
6.67,0.01,3.21,-1.86,-1.57,-0.08,0.10,
6.676,0.01,3.21,-1.86,-1.67,-0.03,0.09,
6.677,0.01,3.21,-1.86,-1.67,-0.03,0.09,
6.678,0.07,3.15,-1.77,-1.67,-0.03,0.09,
6.679,0.07,3.15,-1.77,-1.67,-0.03,0.09,
6.686,0.07,3.15,-1.77,-1.73,-0.01,0.09,
6.687,0.07,3.15,-1.77,-1.73,-0.01,0.09,
6.687,0.19,3.13,-1.67,-1.73,-0.01,0.09,
6.687,0.19,3.13,-1.67,-1.73,-0.01,0.09,
6.695,0.19,3.13,-1.67,-1.73,0.00,0.08,
6.696,0.19,3.13,-1.67,-1.73,0.00,0.08,
6.696,0.33,3.21,-1.62,-1.73,0.00,0.08,
6.696,0.33,3.21,-1.62,-1.73,0.00,0.08,
6.704,0.33,3.21,-1.62,-1.70,0.03,0.07,
6.705,0.33,3.21,-1.62,-1.70,0.03,0.07,
6.705,0.41,3.31,-1.65,-1.70,0.03,0.07,
6.705,0.41,3.31,-1.65,-1.70,0.03,0.07,
6.714,0.41,3.31,-1.65,-1.65,0.08,0.03,
6.715,0.41,3.31,-1.65,-1.65,0.08,0.03,
6.715,0.47,3.46,-1.73,-1.65,0.08,0.03,
6.716,0.47,3.46,-1.73,-1.65,0.08,0.03,
6.724,0.47,3.46,-1.73,-1.61,0.14,-0.02,
6.725,0.47,3.46,-1.73,-1.61,0.14,-0.02,
6.725,0.49,3.56,-1.82,-1.61,0.14,-0.02,
6.725,0.49,3.56,-1.82,-1.61,0.14,-0.02,
6.733,0.49,3.56,-1.82,-1.61,0.21,-0.08,
6.734,0.49,3.56,-1.82,-1.61,0.21,-0.08,
6.735,0.53,3.56,-1.85,-1.61,0.21,-0.08,
6.735,0.53,3.56,-1.85,-1.61,0.21,-0.08,
6.743,0.53,3.56,-1.85,-1.64,0.27,-0.13,
6.744,0.53,3.56,-1.85,-1.64,0.27,-0.13,
6.744,0.64,3.53,-1.78,-1.64,0.27,-0.13,
6.745,0.64,3.53,-1.78,-1.64,0.27,-0.13,
6.753,0.64,3.53,-1.78,-1.68,0.32,-0.16,
6.754,0.64,3.53,-1.78,-1.68,0.32,-0.16,
6.754,0.73,3.42,-1.69,-1.68,0.32,-0.16,
6.755,0.73,3.42,-1.69,-1.68,0.32,-0.16,
6.762,0.73,3.42,-1.69,-1.69,0.37,-0.18,
6.762,0.73,3.42,-1.69,-1.69,0.37,-0.18,
6.763,0.82,3.25,-1.65,-1.69,0.37,-0.18,
6.764,0.82,3.25,-1.65,-1.69,0.37,-0.18,
6.772,0.82,3.25,-1.65,-1.64,0.43,-0.18,
6.773,0.82,3.25,-1.65,-1.64,0.43,-0.18,
6.774,0.90,3.05,-1.69,-1.64,0.43,-0.18,
6.774,0.90,3.05,-1.69,-1.64,0.43,-0.18,
6.78,0.90,3.05,-1.69,-1.55,0.50,-0.18,
6.781,0.90,3.05,-1.69,-1.55,0.50,-0.18,
6.782,0.95,2.86,-1.75,-1.55,0.50,-0.18,
6.782,0.95,2.86,-1.75,-1.55,0.50,-0.18,
6.79,0.95,2.86,-1.75,-1.41,0.56,-0.17,
6.791,0.95,2.86,-1.75,-1.41,0.56,-0.17,
6.791,1.00,2.72,-1.71,-1.41,0.56,-0.17,
6.792,1.00,2.72,-1.71,-1.41,0.56,-0.17,
6.804,1.00,2.72,-1.71,-1.25,0.62,-0.16,
6.805,1.00,2.72,-1.71,-1.25,0.62,-0.16,
6.806,1.06,2.70,-1.56,-1.25,0.62,-0.16,
6.806,1.06,2.70,-1.56,-1.25,0.62,-0.16,
6.81,1.06,2.70,-1.56,-1.09,0.65,-0.16,
6.811,1.06,2.70,-1.56,-1.09,0.65,-0.16,
6.811,1.14,2.78,-1.40,-1.09,0.65,-0.16,
6.811,1.14,2.78,-1.40,-1.09,0.65,-0.16,
6.821,1.14,2.78,-1.40,-1.09,0.65,-0.16,
6.822,1.14,2.78,-1.40,-1.09,0.65,-0.16,
6.822,1.14,2.78,-1.40,-1.09,0.65,-0.16,
6.822,1.14,2.78,-1.40,-1.09,0.65,-0.16,
6.829,1.14,2.78,-1.40,-0.94,0.68,-0.15,
6.83,1.14,2.78,-1.40,-0.94,0.68,-0.15,
6.83,1.54,3.17,-1.49,-0.94,0.68,-0.15,
6.83,1.54,3.17,-1.49,-0.94,0.68,-0.15,
6.838,1.54,3.17,-1.49,-0.84,0.70,-0.17,
6.839,1.54,3.17,-1.49,-0.84,0.70,-0.17,
6.84,1.81,3.32,-1.63,-0.84,0.70,-0.17,
6.84,1.81,3.32,-1.63,-0.84,0.70,-0.17,
6.848,1.81,3.32,-1.63,-0.83,0.74,-0.21,
6.849,1.81,3.32,-1.63,-0.83,0.74,-0.21,
6.849,2.06,3.45,-1.69,-0.83,0.74,-0.21,
6.85,2.06,3.45,-1.69,-0.83,0.74,-0.21,
6.858,2.06,3.45,-1.69,-0.89,0.83,-0.28,
6.859,2.06,3.45,-1.69,-0.89,0.83,-0.28,
6.859,2.21,3.56,-1.56,-0.89,0.83,-0.28,
6.86,2.21,3.56,-1.56,-0.89,0.83,-0.28,
6.867,2.21,3.56,-1.56,-1.02,0.94,-0.37,
6.868,2.21,3.56,-1.56,-1.02,0.94,-0.37,
6.868,2.26,3.63,-1.46,-1.02,0.94,-0.37,
6.868,2.26,3.63,-1.46,-1.02,0.94,-0.37,
6.876,2.26,3.63,-1.46,-1.17,1.06,-0.47,
6.877,2.26,3.63,-1.46,-1.17,1.06,-0.47,
6.878,2.27,3.65,-1.42,-1.17,1.06,-0.47,
6.878,2.27,3.65,-1.42,-1.17,1.06,-0.47,
6.885,2.27,3.65,-1.42,-1.29,1.15,-0.56,
6.886,2.27,3.65,-1.42,-1.29,1.15,-0.56,
6.887,2.25,3.62,-1.53,-1.29,1.15,-0.56,
6.887,2.25,3.62,-1.53,-1.29,1.15,-0.56,
6.895,2.25,3.62,-1.53,-1.38,1.19,-0.62,
6.896,2.25,3.62,-1.53,-1.38,1.19,-0.62,
6.903,2.28,3.58,-1.87,-1.38,1.19,-0.62,
6.904,2.28,3.58,-1.87,-1.38,1.19,-0.62,
6.905,2.28,3.58,-1.87,-1.44,1.19,-0.64,
6.905,2.28,3.58,-1.87,-1.44,1.19,-0.64,
6.906,2.28,3.51,-2.22,-1.44,1.19,-0.64,
6.906,2.28,3.51,-2.22,-1.44,1.19,-0.64,
6.914,2.28,3.51,-2.22,-1.49,1.15,-0.62,
6.915,2.28,3.51,-2.22,-1.49,1.15,-0.62,
6.915,2.26,3.43,-2.47,-1.49,1.15,-0.62,
6.916,2.26,3.43,-2.47,-1.49,1.15,-0.62,
6.924,2.26,3.43,-2.47,-1.52,1.07,-0.58,
6.924,2.26,3.43,-2.47,-1.52,1.07,-0.58,
6.925,2.20,3.33,-2.52,-1.52,1.07,-0.58,
6.925,2.20,3.33,-2.52,-1.52,1.07,-0.58,
6.935,2.20,3.33,-2.52,-1.53,0.96,-0.53,
6.936,2.20,3.33,-2.52,-1.53,0.96,-0.53,
6.936,2.16,3.18,-2.32,-1.53,0.96,-0.53,
6.937,2.16,3.18,-2.32,-1.53,0.96,-0.53,
6.943,2.16,3.18,-2.32,-1.51,0.85,-0.45,
6.944,2.16,3.18,-2.32,-1.51,0.85,-0.45,
6.944,2.16,3.00,-1.89,-1.51,0.85,-0.45,
6.945,2.16,3.00,-1.89,-1.51,0.85,-0.45,
6.952,2.16,3.00,-1.89,-1.45,0.74,-0.36,
6.952,2.16,3.00,-1.89,-1.45,0.74,-0.36,
6.953,2.24,2.81,-1.33,-1.45,0.74,-0.36,
6.953,2.24,2.81,-1.33,-1.45,0.74,-0.36,
6.962,2.24,2.81,-1.33,-1.34,0.66,-0.26,
6.962,2.24,2.81,-1.33,-1.34,0.66,-0.26,
6.963,2.34,2.63,-0.74,-1.34,0.66,-0.26,
6.963,2.34,2.63,-0.74,-1.34,0.66,-0.26,
6.971,2.34,2.63,-0.74,-1.18,0.62,-0.17,
6.972,2.34,2.63,-0.74,-1.18,0.62,-0.17,
6.973,2.44,2.52,-0.21,-1.18,0.62,-0.17,
6.973,2.44,2.52,-0.21,-1.18,0.62,-0.17,
6.983,2.44,2.52,-0.21,-0.98,0.64,-0.12,
6.984,2.44,2.52,-0.21,-0.98,0.64,-0.12,
6.985,2.56,2.48,0.20,-0.98,0.64,-0.12,
6.985,2.56,2.48,0.20,-0.98,0.64,-0.12,
6.991,2.56,2.48,0.20,-0.76,0.71,-0.08,
6.992,2.56,2.48,0.20,-0.76,0.71,-0.08,
6.992,2.70,2.47,0.50,-0.76,0.71,-0.08,
6.993,2.70,2.47,0.50,-0.76,0.71,-0.08,
7.001,2.70,2.47,0.50,-0.56,0.83,-0.06,
7.002,2.70,2.47,0.50,-0.56,0.83,-0.06,
7.002,2.87,2.44,0.67,-0.56,0.83,-0.06,
7.003,2.87,2.44,0.67,-0.56,0.83,-0.06,
7.01,2.87,2.44,0.67,-0.40,0.98,-0.07,
7.011,2.87,2.44,0.67,-0.40,0.98,-0.07,
7.012,3.12,2.39,0.71,-0.40,0.98,-0.07,
7.012,3.12,2.39,0.71,-0.40,0.98,-0.07,
7.021,3.12,2.39,0.71,-0.40,0.98,-0.07,
7.022,3.12,2.39,0.71,-0.40,0.98,-0.07,
7.023,3.12,2.39,0.71,-0.40,0.98,-0.07,
7.024,3.12,2.39,0.71,-0.40,0.98,-0.07,
7.028,3.12,2.39,0.71,-0.28,1.14,-0.11,
7.029,3.12,2.39,0.71,-0.28,1.14,-0.11,
7.03,3.63,2.42,0.41,-0.28,1.14,-0.11,
7.03,3.63,2.42,0.41,-0.28,1.14,-0.11,
7.044,3.63,2.42,0.41,-0.22,1.32,-0.19,
7.045,3.63,2.42,0.41,-0.22,1.32,-0.19,
7.045,3.68,2.39,0.21,-0.22,1.32,-0.19,
7.046,3.68,2.39,0.21,-0.22,1.32,-0.19,
7.048,3.68,2.39,0.21,-0.21,1.51,-0.29,
7.048,3.68,2.39,0.21,-0.21,1.51,-0.29,
7.049,3.58,2.37,0.08,-0.21,1.51,-0.29,
7.049,3.58,2.37,0.08,-0.21,1.51,-0.29,
7.057,3.58,2.37,0.08,-0.24,1.67,-0.39,
7.058,3.58,2.37,0.08,-0.24,1.67,-0.39,
7.058,3.35,2.36,0.12,-0.24,1.67,-0.39,
7.058,3.35,2.36,0.12,-0.24,1.67,-0.39,
7.068,3.35,2.36,0.12,-0.32,1.76,-0.47,
7.07,3.35,2.36,0.12,-0.32,1.76,-0.47,
7.071,3.04,2.35,0.29,-0.32,1.76,-0.47,
7.072,3.04,2.35,0.29,-0.32,1.76,-0.47,
7.076,3.04,2.35,0.29,-0.40,1.74,-0.51,
7.077,3.04,2.35,0.29,-0.40,1.74,-0.51,
7.078,2.71,2.32,0.46,-0.40,1.74,-0.51,
7.078,2.71,2.32,0.46,-0.40,1.74,-0.51,
7.087,2.71,2.32,0.46,-0.49,1.63,-0.50,
7.088,2.71,2.32,0.46,-0.49,1.63,-0.50,
7.089,2.42,2.29,0.60,-0.49,1.63,-0.50,
7.09,2.42,2.29,0.60,-0.49,1.63,-0.50,
7.095,2.42,2.29,0.60,-0.56,1.44,-0.46,
7.096,2.42,2.29,0.60,-0.56,1.44,-0.46,
7.097,2.20,2.22,0.63,-0.56,1.44,-0.46,
7.098,2.20,2.22,0.63,-0.56,1.44,-0.46,
7.108,2.20,2.22,0.63,-0.62,1.21,-0.39,
7.109,2.20,2.22,0.63,-0.62,1.21,-0.39,
7.11,2.06,2.07,0.54,-0.62,1.21,-0.39,
7.111,2.06,2.07,0.54,-0.62,1.21,-0.39,
7.122,2.06,2.07,0.54,-0.64,0.97,-0.32,
7.123,2.06,2.07,0.54,-0.64,0.97,-0.32,
7.123,2.01,1.86,0.40,-0.64,0.97,-0.32,
7.123,2.01,1.86,0.40,-0.64,0.97,-0.32,
7.124,2.01,1.86,0.40,-0.64,0.73,-0.26,
7.124,2.01,1.86,0.40,-0.64,0.73,-0.26,
7.124,2.03,1.59,0.24,-0.64,0.73,-0.26,
7.124,2.03,1.59,0.24,-0.64,0.73,-0.26,
7.133,2.03,1.59,0.24,-0.60,0.52,-0.21,
7.134,2.03,1.59,0.24,-0.60,0.52,-0.21,
7.138,2.13,1.32,0.09,-0.60,0.52,-0.21,
7.138,2.13,1.32,0.09,-0.60,0.52,-0.21,
7.142,2.13,1.32,0.09,-0.52,0.35,-0.15,
7.143,2.13,1.32,0.09,-0.52,0.35,-0.15,
7.143,2.27,1.08,-0.04,-0.52,0.35,-0.15,
7.143,2.27,1.08,-0.04,-0.52,0.35,-0.15,
7.152,2.27,1.08,-0.04,-0.40,0.25,-0.09,
7.153,2.27,1.08,-0.04,-0.40,0.25,-0.09,
7.153,2.46,0.89,-0.11,-0.40,0.25,-0.09,
