
time,ax,ay,az,wx,wy,wz,
0.002,-0.09,-0.00,0.40,0.04,0.03,0.02,
0.002,-0.09,-0.00,0.40,0.04,0.03,0.02,
0.003,-0.09,-0.00,0.40,0.04,0.03,0.02,
0.003,-0.09,-0.00,0.40,0.04,0.03,0.02,
0.009,-0.09,-0.00,0.40,0.03,0.06,0.02,
0.01,-0.09,-0.00,0.40,0.03,0.06,0.02,
0.011,-0.07,-0.02,0.42,0.03,0.06,0.02,
0.011,-0.07,-0.02,0.42,0.03,0.06,0.02,
0.032,-0.07,-0.02,0.42,0.01,0.10,0.03,
0.032,-0.07,-0.02,0.42,0.01,0.10,0.03,
0.033,-0.04,0.02,0.37,0.01,0.10,0.03,
0.033,-0.04,0.02,0.37,0.01,0.10,0.03,
0.034,-0.04,0.02,0.37,-0.05,0.13,0.07,
0.035,-0.04,0.02,0.37,-0.05,0.13,0.07,
0.035,-0.04,0.02,0.37,-0.05,0.13,0.07,
0.035,-0.01,0.06,0.33,-0.05,0.13,0.07,
0.036,-0.01,0.06,0.33,-0.05,0.13,0.07,
0.036,-0.01,0.06,0.33,-0.05,0.13,0.07,
0.044,-0.01,0.06,0.33,-0.05,0.11,0.10,
0.044,-0.01,0.06,0.33,-0.05,0.11,0.10,
0.045,0.11,0.14,0.29,-0.05,0.11,0.10,
0.045,0.11,0.14,0.29,-0.05,0.11,0.10,
0.052,0.11,0.14,0.29,-0.05,0.11,0.10,
0.053,0.11,0.14,0.29,-0.05,0.11,0.10,
0.053,0.11,0.14,0.29,-0.05,0.11,0.10,
0.053,0.11,0.14,0.29,-0.05,0.11,0.10,
0.061,0.11,0.14,0.29,0.01,0.01,0.09,
0.061,0.11,0.14,0.29,0.01,0.01,0.09,
0.062,0.19,0.22,0.25,0.01,0.01,0.09,
0.062,0.19,0.22,0.25,0.01,0.01,0.09,
0.073,0.19,0.22,0.25,0.05,-0.05,0.08,
0.074,0.19,0.22,0.25,0.05,-0.05,0.08,
0.074,0.18,0.21,0.27,0.05,-0.05,0.08,
0.075,0.18,0.21,0.27,0.05,-0.05,0.08,
0.082,0.18,0.21,0.27,0.08,-0.09,0.07,
0.082,0.18,0.21,0.27,0.08,-0.09,0.07,
0.082,0.14,0.18,0.33,0.08,-0.09,0.07,
0.083,0.14,0.18,0.33,0.08,-0.09,0.07,
0.091,0.14,0.18,0.33,0.10,-0.12,0.06,
0.091,0.14,0.18,0.33,0.10,-0.12,0.06,
0.092,0.10,0.14,0.40,0.10,-0.12,0.06,
0.092,0.10,0.14,0.40,0.10,-0.12,0.06,
0.1,0.10,0.14,0.40,0.10,-0.12,0.06,
0.101,0.10,0.14,0.40,0.10,-0.12,0.06,
0.101,0.10,0.14,0.40,0.10,-0.12,0.06,
0.102,0.10,0.14,0.40,0.10,-0.12,0.06,
0.11,0.10,0.14,0.40,0.11,-0.14,0.04,
0.111,0.10,0.14,0.40,0.11,-0.14,0.04,
0.111,-0.01,0.09,0.44,0.11,-0.14,0.04,
0.112,-0.01,0.09,0.44,0.11,-0.14,0.04,
0.12,-0.01,0.09,0.44,0.10,-0.14,0.02,
0.12,-0.01,0.09,0.44,0.10,-0.14,0.02,
0.121,-0.08,0.08,0.40,0.10,-0.14,0.02,
0.121,-0.08,0.08,0.40,0.10,-0.14,0.02,
0.128,-0.08,0.08,0.40,0.07,-0.11,0.00,
0.129,-0.08,0.08,0.40,0.07,-0.11,0.00,
0.13,-0.13,0.06,0.38,0.07,-0.11,0.00,
0.13,-0.13,0.06,0.38,0.07,-0.11,0.00,
0.138,-0.13,0.06,0.38,0.04,-0.06,0.00,
0.139,-0.13,0.06,0.38,0.04,-0.06,0.00,
0.14,-0.17,0.04,0.36,0.04,-0.06,0.00,
0.14,-0.17,0.04,0.36,0.04,-0.06,0.00,
0.148,-0.17,0.04,0.36,0.00,-0.00,0.01,
0.148,-0.17,0.04,0.36,0.00,-0.00,0.01,
0.149,-0.17,0.01,0.33,0.00,-0.00,0.01,
0.149,-0.17,0.01,0.33,0.00,-0.00,0.01,
0.157,-0.17,0.01,0.33,-0.02,0.05,0.00,
0.157,-0.17,0.01,0.33,-0.02,0.05,0.00,
0.158,-0.14,-0.02,0.31,-0.02,0.05,0.00,
0.158,-0.14,-0.02,0.31,-0.02,0.05,0.00,
0.166,-0.14,-0.02,0.31,-0.05,0.09,-0.01,
0.167,-0.14,-0.02,0.31,-0.05,0.09,-0.01,
0.168,-0.11,-0.03,0.25,-0.05,0.09,-0.01,
0.168,-0.11,-0.03,0.25,-0.05,0.09,-0.01,
0.176,-0.11,-0.03,0.25,-0.07,0.12,-0.01,
0.177,-0.11,-0.03,0.25,-0.07,0.12,-0.01,
0.178,-0.07,-0.01,0.20,-0.07,0.12,-0.01,
0.179,-0.07,-0.01,0.20,-0.07,0.12,-0.01,
0.185,-0.07,-0.01,0.20,-0.08,0.12,-0.02,
0.186,-0.07,-0.01,0.20,-0.08,0.12,-0.02,
0.186,-0.05,0.06,0.17,-0.08,0.12,-0.02,
0.187,-0.05,0.06,0.17,-0.08,0.12,-0.02,
0.198,-0.05,0.06,0.17,-0.08,0.11,-0.04,
0.2,-0.05,0.06,0.17,-0.08,0.11,-0.04,
0.2,-0.05,0.09,0.11,-0.08,0.11,-0.04,
0.201,-0.05,0.09,0.11,-0.08,0.11,-0.04,
0.205,-0.05,0.09,0.11,-0.07,0.08,-0.05,
0.207,-0.05,0.09,0.11,-0.07,0.08,-0.05,
0.208,-0.03,0.12,0.08,-0.07,0.08,-0.05,
0.209,-0.03,0.12,0.08,-0.07,0.08,-0.05,
0.214,-0.03,0.12,0.08,-0.04,0.05,-0.05,
0.215,-0.03,0.12,0.08,-0.04,0.05,-0.05,
0.216,-0.04,0.10,0.07,-0.04,0.05,-0.05,
0.217,-0.04,0.10,0.07,-0.04,0.05,-0.05,
0.223,-0.04,0.10,0.07,-0.01,0.03,-0.05,
0.224,-0.04,0.10,0.07,-0.01,0.03,-0.05,
0.225,-0.04,0.06,0.13,-0.01,0.03,-0.05,
0.225,-0.04,0.06,0.13,-0.01,0.03,-0.05,
0.233,-0.04,0.06,0.13,0.02,0.02,-0.05,
0.234,-0.04,0.06,0.13,0.02,0.02,-0.05,
0.24,-0.02,0.04,0.27,0.02,0.02,-0.05,
0.241,-0.02,0.04,0.27,0.02,0.02,-0.05,
0.248,-0.02,0.04,0.27,0.04,0.01,-0.04,
0.25,-0.02,0.04,0.27,0.04,0.01,-0.04,
0.251,-0.02,0.01,0.39,0.04,0.01,-0.04,
0.252,-0.02,0.01,0.39,0.04,0.01,-0.04,
0.253,-0.02,0.01,0.39,0.03,-0.01,-0.03,
0.254,-0.02,0.01,0.39,0.03,-0.01,-0.03,
0.255,-0.03,-0.03,0.52,0.03,-0.01,-0.03,
0.256,-0.03,-0.03,0.52,0.03,-0.01,-0.03,
0.267,-0.03,-0.03,0.52,0.01,-0.02,-0.03,
0.269,-0.03,-0.03,0.52,0.01,-0.02,-0.03,
0.269,-0.06,-0.04,0.58,0.01,-0.02,-0.03,
0.27,-0.06,-0.04,0.58,0.01,-0.02,-0.03,
0.271,-0.06,-0.04,0.58,-0.03,-0.03,-0.04,
0.272,-0.06,-0.04,0.58,-0.03,-0.03,-0.04,
0.273,-0.09,-0.06,0.57,-0.03,-0.03,-0.04,
0.274,-0.09,-0.06,0.57,-0.03,-0.03,-0.04,
0.281,-0.09,-0.06,0.57,-0.07,-0.03,-0.06,
0.282,-0.09,-0.06,0.57,-0.07,-0.03,-0.06,
0.283,-0.11,-0.05,0.51,-0.07,-0.03,-0.06,
0.283,-0.11,-0.05,0.51,-0.07,-0.03,-0.06,
0.298,-0.11,-0.05,0.51,-0.07,-0.03,-0.06,
0.299,-0.11,-0.05,0.51,-0.07,-0.03,-0.06,
0.3,-0.11,-0.05,0.51,-0.07,-0.03,-0.06,
0.301,-0.11,-0.05,0.51,-0.07,-0.03,-0.06,
0.301,-0.11,-0.05,0.51,-0.10,-0.02,-0.06,
0.302,-0.11,-0.05,0.51,-0.10,-0.02,-0.06,
0.302,-0.07,0.01,0.32,-0.10,-0.02,-0.06,
0.303,-0.07,0.01,0.32,-0.10,-0.02,-0.06,
0.31,-0.07,0.01,0.32,-0.12,-0.01,-0.05,
0.311,-0.07,0.01,0.32,-0.12,-0.01,-0.05,
0.312,-0.05,0.05,0.26,-0.12,-0.01,-0.05,
0.312,-0.05,0.05,0.26,-0.12,-0.01,-0.05,
0.32,-0.05,0.05,0.26,-0.11,-0.00,-0.04,
0.32,-0.05,0.05,0.26,-0.11,-0.00,-0.04,
0.321,-0.02,0.07,0.23,-0.11,-0.00,-0.04,
0.321,-0.02,0.07,0.23,-0.11,-0.00,-0.04,
0.329,-0.02,0.07,0.23,-0.09,-0.00,-0.03,
0.33,-0.02,0.07,0.23,-0.09,-0.00,-0.03,
0.33,0.00,0.09,0.21,-0.09,-0.00,-0.03,
0.331,0.00,0.09,0.21,-0.09,-0.00,-0.03,
0.338,0.00,0.09,0.21,-0.06,-0.00,-0.03,
0.338,0.00,0.09,0.21,-0.06,-0.00,-0.03,
0.338,-0.00,0.10,0.18,-0.06,-0.00,-0.03,
0.339,-0.00,0.10,0.18,-0.06,-0.00,-0.03,
0.348,-0.00,0.10,0.18,-0.02,-0.01,-0.03,
0.348,-0.00,0.10,0.18,-0.02,-0.01,-0.03,
0.349,0.01,0.08,0.14,-0.02,-0.01,-0.03,
0.349,0.01,0.08,0.14,-0.02,-0.01,-0.03,
0.356,0.01,0.08,0.14,0.01,-0.02,-0.02,
0.357,0.01,0.08,0.14,0.01,-0.02,-0.02,
0.358,-0.01,0.06,0.13,0.01,-0.02,-0.02,
0.358,-0.01,0.06,0.13,0.01,-0.02,-0.02,
0.366,-0.01,0.06,0.13,0.04,-0.02,0.00,
0.367,-0.01,0.06,0.13,0.04,-0.02,0.00,
0.367,-0.04,0.05,0.14,0.04,-0.02,0.00,
0.368,-0.04,0.05,0.14,0.04,-0.02,0.00,
0.376,-0.04,0.05,0.14,0.05,-0.02,0.01,
0.377,-0.04,0.05,0.14,0.05,-0.02,0.01,
0.377,-0.04,0.05,0.18,0.05,-0.02,0.01,
0.378,-0.04,0.05,0.18,0.05,-0.02,0.01,
0.385,-0.04,0.05,0.18,0.06,-0.02,0.02,
0.386,-0.04,0.05,0.18,0.06,-0.02,0.02,
0.387,-0.04,0.08,0.21,0.06,-0.02,0.02,
0.387,-0.04,0.08,0.21,0.06,-0.02,0.02,
0.401,-0.04,0.08,0.21,0.05,-0.01,0.02,
0.402,-0.04,0.08,0.21,0.05,-0.01,0.02,
0.403,-0.01,0.08,0.24,0.05,-0.01,0.02,
0.404,-0.01,0.08,0.24,0.05,-0.01,0.02,
0.404,-0.01,0.08,0.24,0.04,-0.01,0.01,
0.405,-0.01,0.08,0.24,0.04,-0.01,0.01,
0.405,-0.01,0.08,0.26,0.04,-0.01,0.01,
0.406,-0.01,0.08,0.26,0.04,-0.01,0.01,
0.42,-0.01,0.08,0.26,0.04,-0.01,0.02,
0.421,-0.01,0.08,0.26,0.04,-0.01,0.02,
0.422,-0.00,0.09,0.27,0.04,-0.01,0.02,
0.422,-0.00,0.09,0.27,0.04,-0.01,0.02,
0.423,-0.00,0.09,0.27,0.03,-0.00,0.02,
0.423,-0.00,0.09,0.27,0.03,-0.00,0.02,
0.424,-0.02,0.08,0.25,0.03,-0.00,0.02,
0.424,-0.02,0.08,0.25,0.03,-0.00,0.02,
0.433,-0.02,0.08,0.25,0.03,-0.00,0.02,
0.434,-0.02,0.08,0.25,0.03,-0.00,0.02,
0.434,-0.03,0.08,0.22,0.03,-0.00,0.02,
0.435,-0.03,0.08,0.22,0.03,-0.00,0.02,
0.443,-0.03,0.08,0.22,0.02,-0.00,0.01,
0.444,-0.03,0.08,0.22,0.02,-0.00,0.01,
0.444,-0.00,0.07,0.18,0.02,-0.00,0.01,
0.445,-0.00,0.07,0.18,0.02,-0.00,0.01,
0.452,-0.00,0.07,0.18,0.02,-0.00,0.01,
0.453,-0.00,0.07,0.18,0.02,-0.00,0.01,
0.454,0.02,0.05,0.14,0.02,-0.00,0.01,
0.454,0.02,0.05,0.14,0.02,-0.00,0.01,
0.461,0.02,0.05,0.14,0.02,-0.00,0.01,
0.462,0.02,0.05,0.14,0.02,-0.00,0.01,
0.463,0.06,0.05,0.14,0.02,-0.00,0.01,
0.463,0.06,0.05,0.14,0.02,-0.00,0.01,
0.476,0.06,0.05,0.14,0.01,-0.01,0.00,
0.477,0.06,0.05,0.14,0.01,-0.01,0.00,
0.482,0.09,0.04,0.16,0.01,-0.01,0.00,
0.482,0.09,0.04,0.16,0.01,-0.01,0.00,
0.482,0.09,0.04,0.16,0.01,-0.02,-0.01,
0.483,0.09,0.04,0.16,0.01,-0.02,-0.01,
0.483,0.09,0.06,0.19,0.01,-0.02,-0.01,
0.483,0.09,0.06,0.19,0.01,-0.02,-0.01,
0.49,0.09,0.06,0.19,0.01,-0.02,-0.01,
0.491,0.09,0.06,0.19,0.01,-0.02,-0.01,
0.492,0.09,0.06,0.19,0.01,-0.02,-0.01,
0.492,0.09,0.06,0.19,0.01,-0.02,-0.01,
0.5,0.09,0.06,0.19,0.01,-0.04,-0.02,
0.501,0.09,0.06,0.19,0.01,-0.04,-0.02,
0.502,0.09,0.11,0.25,0.01,-0.04,-0.02,
0.502,0.09,0.11,0.25,0.01,-0.04,-0.02,
0.51,0.09,0.11,0.25,0.01,-0.06,-0.02,
0.511,0.09,0.11,0.25,0.01,-0.06,-0.02,
0.512,0.09,0.12,0.26,0.01,-0.06,-0.02,
0.512,0.09,0.12,0.26,0.01,-0.06,-0.02,
0.518,0.09,0.12,0.26,0.01,-0.07,-0.01,
0.519,0.09,0.12,0.26,0.01,-0.07,-0.01,
0.52,0.08,0.12,0.24,0.01,-0.07,-0.01,
0.52,0.08,0.12,0.24,0.01,-0.07,-0.01,
0.528,0.08,0.12,0.24,0.01,-0.07,0.01,
0.529,0.08,0.12,0.24,0.01,-0.07,0.01,
0.529,0.08,0.10,0.23,0.01,-0.07,0.01,
0.53,0.08,0.10,0.23,0.01,-0.07,0.01,
0.538,0.08,0.10,0.23,0.02,-0.07,0.03,
0.539,0.08,0.10,0.23,0.02,-0.07,0.03,
0.539,0.09,0.08,0.23,0.02,-0.07,0.03,
0.54,0.09,0.08,0.23,0.02,-0.07,0.03,
0.548,0.09,0.08,0.23,0.02,-0.06,0.04,
0.549,0.09,0.08,0.23,0.02,-0.06,0.04,
0.55,0.09,0.06,0.25,0.02,-0.06,0.04,
0.55,0.09,0.06,0.25,0.02,-0.06,0.04,
0.556,0.09,0.06,0.25,0.02,-0.05,0.04,
0.558,0.09,0.06,0.25,0.02,-0.05,0.04,
0.559,0.11,0.04,0.29,0.02,-0.05,0.04,
0.56,0.11,0.04,0.29,0.02,-0.05,0.04,
0.566,0.11,0.04,0.29,0.01,-0.05,0.04,
0.567,0.11,0.04,0.29,0.01,-0.05,0.04,
0.568,0.12,0.03,0.32,0.01,-0.05,0.04,
0.568,0.12,0.03,0.32,0.01,-0.05,0.04,
0.576,0.12,0.03,0.32,0.00,-0.05,0.04,
0.577,0.12,0.03,0.32,0.00,-0.05,0.04,
0.578,0.11,0.03,0.31,0.00,-0.05,0.04,
0.579,0.11,0.03,0.31,0.00,-0.05,0.04,
0.585,0.11,0.03,0.31,-0.01,-0.05,0.03,
0.585,0.11,0.03,0.31,-0.01,-0.05,0.03,
0.586,0.11,0.03,0.31,-0.01,-0.05,0.03,
0.586,0.11,0.03,0.31,-0.01,-0.05,0.03,
0.594,0.11,0.03,0.31,-0.03,-0.06,0.01,
0.595,0.11,0.03,0.31,-0.03,-0.06,0.01,
0.596,0.11,0.03,0.31,-0.03,-0.06,0.01,
0.596,0.11,0.03,0.31,-0.03,-0.06,0.01,
0.604,0.11,0.03,0.31,-0.04,-0.06,-0.01,
0.605,0.11,0.03,0.31,-0.04,-0.06,-0.01,
0.606,0.11,0.03,0.31,-0.04,-0.06,-0.01,
0.607,0.11,0.03,0.31,-0.04,-0.06,-0.01,
0.614,0.11,0.03,0.31,-0.04,-0.07,-0.03,
0.614,0.11,0.03,0.31,-0.04,-0.07,-0.03,
0.615,0.11,0.03,0.31,-0.04,-0.07,-0.03,
0.615,0.11,0.03,0.31,-0.04,-0.07,-0.03,
0.623,0.11,0.03,0.31,-0.04,-0.07,-0.04,
0.624,0.11,0.03,0.31,-0.04,-0.07,-0.04,
0.625,0.11,0.03,0.31,-0.04,-0.07,-0.04,
0.625,0.11,0.03,0.31,-0.04,-0.07,-0.04,
0.633,0.11,0.03,0.31,-0.04,-0.06,-0.05,
0.634,0.11,0.03,0.31,-0.04,-0.06,-0.05,
0.634,0.10,0.03,0.31,-0.04,-0.06,-0.05,
0.635,0.10,0.03,0.31,-0.04,-0.06,-0.05,
0.645,0.10,0.03,0.31,-0.04,-0.06,-0.05,
0.646,0.10,0.03,0.31,-0.04,-0.06,-0.05,
0.647,0.10,0.03,0.31,-0.04,-0.06,-0.05,
0.647,0.10,0.03,0.31,-0.04,-0.06,-0.05,
0.652,0.10,0.03,0.31,-0.03,-0.05,-0.04,
0.653,0.10,0.03,0.31,-0.03,-0.05,-0.04,
0.653,0.10,0.03,0.31,-0.03,-0.05,-0.04,
0.654,0.10,0.03,0.31,-0.03,-0.05,-0.04,
0.661,0.10,0.03,0.31,-0.03,-0.04,-0.03,
0.663,0.10,0.03,0.31,-0.03,-0.04,-0.03,
0.663,0.09,0.03,0.31,-0.03,-0.04,-0.03,
0.664,0.09,0.03,0.31,-0.03,-0.04,-0.03,
0.675,0.09,0.03,0.31,-0.02,-0.03,-0.03,
0.676,0.09,0.03,0.31,-0.02,-0.03,-0.03,
0.676,0.09,0.03,0.31,-0.02,-0.03,-0.03,
0.677,0.09,0.03,0.31,-0.02,-0.03,-0.03,
0.681,0.09,0.03,0.31,-0.02,-0.03,-0.02,
0.682,0.09,0.03,0.31,-0.02,-0.03,-0.02,
0.682,0.09,0.03,0.31,-0.02,-0.03,-0.02,
0.683,0.09,0.03,0.31,-0.02,-0.03,-0.02,
0.69,0.09,0.03,0.31,-0.02,-0.03,-0.02,
0.691,0.09,0.03,0.31,-0.02,-0.03,-0.02,
0.692,0.09,0.03,0.31,-0.02,-0.03,-0.02,
0.692,0.09,0.03,0.31,-0.02,-0.03,-0.02,
0.7,0.09,0.03,0.31,-0.01,-0.02,-0.02,
0.701,0.09,0.03,0.31,-0.01,-0.02,-0.02,
0.701,0.08,0.03,0.31,-0.01,-0.02,-0.02,
0.701,0.08,0.03,0.31,-0.01,-0.02,-0.02,
0.709,0.08,0.03,0.31,-0.01,-0.02,-0.01,
0.71,0.08,0.03,0.31,-0.01,-0.02,-0.01,
0.716,0.08,0.03,0.31,-0.01,-0.02,-0.01,
0.716,0.08,0.03,0.31,-0.01,-0.02,-0.01,
0.719,0.08,0.03,0.31,-0.01,-0.01,-0.01,
0.72,0.08,0.03,0.31,-0.01,-0.01,-0.01,
0.721,0.07,0.04,0.31,-0.01,-0.01,-0.01,
0.722,0.07,0.04,0.31,-0.01,-0.01,-0.01,
0.728,0.07,0.04,0.31,-0.01,-0.01,-0.01,
0.729,0.07,0.04,0.31,-0.01,-0.01,-0.01,
0.729,0.07,0.04,0.31,-0.01,-0.01,-0.01,
0.73,0.07,0.04,0.31,-0.01,-0.01,-0.01,
0.737,0.07,0.04,0.31,-0.01,-0.01,-0.01,
0.738,0.07,0.04,0.31,-0.01,-0.01,-0.01,
0.739,0.07,0.04,0.31,-0.01,-0.01,-0.01,
0.739,0.07,0.04,0.31,-0.01,-0.01,-0.01,
0.747,0.07,0.04,0.31,-0.01,-0.01,-0.01,
0.748,0.07,0.04,0.31,-0.01,-0.01,-0.01,
0.748,0.06,0.04,0.31,-0.01,-0.01,-0.01,
0.75,0.06,0.04,0.31,-0.01,-0.01,-0.01,
0.756,0.06,0.04,0.31,-0.00,-0.01,-0.01,
0.758,0.06,0.04,0.31,-0.00,-0.01,-0.01,
0.759,0.06,0.04,0.31,-0.00,-0.01,-0.01,
0.76,0.06,0.04,0.31,-0.00,-0.01,-0.01,
0.766,0.06,0.04,0.31,-0.00,-0.01,-0.00,
0.767,0.06,0.04,0.31,-0.00,-0.01,-0.00,
0.767,0.05,0.04,0.31,-0.00,-0.01,-0.00,
0.768,0.05,0.04,0.31,-0.00,-0.01,-0.00,
0.776,0.05,0.04,0.31,-0.00,-0.00,-0.00,
0.776,0.05,0.04,0.31,-0.00,-0.00,-0.00,
0.777,0.05,0.04,0.31,-0.00,-0.00,-0.00,
0.778,0.05,0.04,0.31,-0.00,-0.00,-0.00,
0.785,0.05,0.04,0.31,-0.00,-0.00,-0.00,
0.785,0.05,0.04,0.31,-0.00,-0.00,-0.00,
0.786,0.05,0.05,0.31,-0.00,-0.00,-0.00,
0.786,0.05,0.05,0.31,-0.00,-0.00,-0.00,
0.794,0.05,0.05,0.31,-0.00,-0.00,-0.00,
0.795,0.05,0.05,0.31,-0.00,-0.00,-0.00,
0.795,0.04,0.05,0.31,-0.00,-0.00,-0.00,
0.796,0.04,0.05,0.31,-0.00,-0.00,-0.00,
0.804,0.04,0.05,0.31,-0.00,-0.00,-0.00,
0.804,0.04,0.05,0.31,-0.00,-0.00,-0.00,
0.805,0.04,0.05,0.31,-0.00,-0.00,-0.00,
0.805,0.04,0.05,0.31,-0.00,-0.00,-0.00,
0.813,0.04,0.05,0.31,0.00,-0.00,0.00,
0.814,0.04,0.05,0.31,0.00,-0.00,0.00,
0.814,0.06,0.01,0.06,0.00,-0.00,0.00,
0.815,0.06,0.01,0.06,0.00,-0.00,0.00,
0.823,0.06,0.01,0.06,-0.00,0.00,-0.00,
0.824,0.06,0.01,0.06,-0.00,0.00,-0.00,
0.824,0.04,0.04,0.05,-0.00,0.00,-0.00,
0.824,0.04,0.04,0.05,-0.00,0.00,-0.00,
0.832,0.04,0.04,0.05,-0.00,0.00,-0.00,
0.833,0.04,0.04,0.05,-0.00,0.00,-0.00,
0.834,0.05,0.09,0.10,-0.00,0.00,-0.00,
0.834,0.05,0.09,0.10,-0.00,0.00,-0.00,
0.842,0.05,0.09,0.10,-0.00,-0.00,0.00,
0.844,0.05,0.09,0.10,-0.00,-0.00,0.00,
0.844,0.08,0.15,0.19,-0.00,-0.00,0.00,
0.845,0.08,0.15,0.19,-0.00,-0.00,0.00,
0.851,0.08,0.15,0.19,-0.00,0.00,0.00,
0.852,0.08,0.15,0.19,-0.00,0.00,0.00,
0.853,0.10,0.16,0.29,-0.00,0.00,0.00,
0.853,0.10,0.16,0.29,-0.00,0.00,0.00,
0.861,0.10,0.16,0.29,0.00,0.00,0.00,
0.862,0.10,0.16,0.29,0.00,0.00,0.00,
0.862,0.16,0.15,0.36,0.00,0.00,0.00,
0.863,0.16,0.15,0.36,0.00,0.00,0.00,
0.871,0.16,0.15,0.36,-0.00,-0.00,-0.00,
0.871,0.16,0.15,0.36,-0.00,-0.00,-0.00,
0.872,0.21,0.13,0.42,-0.00,-0.00,-0.00,
0.872,0.21,0.13,0.42,-0.00,-0.00,-0.00,
0.881,0.21,0.13,0.42,-0.00,0.00,0.00,
0.881,0.21,0.13,0.42,-0.00,0.00,0.00,
0.882,0.22,0.10,0.40,-0.00,0.00,0.00,
0.883,0.22,0.10,0.40,-0.00,0.00,0.00,
0.892,0.22,0.10,0.40,-0.00,0.00,0.00,
0.893,0.22,0.10,0.40,-0.00,0.00,0.00,
0.893,0.22,0.10,0.40,-0.00,0.00,0.00,
0.894,0.22,0.10,0.40,-0.00,0.00,0.00,
0.899,0.22,0.10,0.40,0.00,0.00,-0.00,
0.9,0.22,0.10,0.40,0.00,0.00,-0.00,
0.901,0.24,0.11,0.30,0.00,0.00,-0.00,
0.901,0.24,0.11,0.30,0.00,0.00,-0.00,
0.909,0.24,0.11,0.30,-0.00,-0.00,-0.00,
0.91,0.24,0.11,0.30,-0.00,-0.00,-0.00,
0.91,0.23,0.11,0.23,-0.00,-0.00,-0.00,
0.911,0.23,0.11,0.23,-0.00,-0.00,-0.00,
0.918,0.23,0.11,0.23,-0.00,-0.00,0.00,
0.918,0.23,0.11,0.23,-0.00,-0.00,0.00,
0.919,0.21,0.13,0.16,-0.00,-0.00,0.00,
0.919,0.21,0.13,0.16,-0.00,-0.00,0.00,
0.928,0.21,0.13,0.16,0.03,-0.15,0.04,
0.929,0.21,0.13,0.16,0.03,-0.15,0.04,
0.929,0.18,0.12,0.04,0.03,-0.15,0.04,
0.929,0.18,0.12,0.04,0.03,-0.15,0.04,
0.937,0.18,0.12,0.04,0.03,-0.15,0.02,
0.938,0.18,0.12,0.04,0.03,-0.15,0.02,
0.939,0.12,0.13,-0.08,0.03,-0.15,0.02,
0.939,0.12,0.13,-0.08,0.03,-0.15,0.02,
0.947,0.12,0.13,-0.08,0.04,-0.15,0.01,
0.947,0.12,0.13,-0.08,0.04,-0.15,0.01,
0.953,0.10,0.16,-0.21,0.04,-0.15,0.01,
0.953,0.10,0.16,-0.21,0.04,-0.15,0.01,
0.957,0.10,0.16,-0.21,0.05,-0.13,0.01,
0.958,0.10,0.16,-0.21,0.05,-0.13,0.01,
0.958,0.16,0.18,-0.30,0.05,-0.13,0.01,
0.959,0.16,0.18,-0.30,0.05,-0.13,0.01,
0.965,0.16,0.18,-0.30,0.07,-0.09,0.02,
0.966,0.16,0.18,-0.30,0.07,-0.09,0.02,
0.966,0.28,0.16,-0.28,0.07,-0.09,0.02,
0.967,0.28,0.16,-0.28,0.07,-0.09,0.02,
0.975,0.28,0.16,-0.28,0.10,-0.07,0.03,
0.976,0.28,0.16,-0.28,0.10,-0.07,0.03,
0.976,0.50,0.12,-0.20,0.10,-0.07,0.03,
0.977,0.50,0.12,-0.20,0.10,-0.07,0.03,
0.985,0.50,0.12,-0.20,0.12,-0.07,0.04,
0.985,0.50,0.12,-0.20,0.12,-0.07,0.04,
0.986,0.71,0.04,-0.06,0.12,-0.07,0.04,
0.986,0.71,0.04,-0.06,0.12,-0.07,0.04,
0.994,0.71,0.04,-0.06,0.12,-0.13,0.03,
0.995,0.71,0.04,-0.06,0.12,-0.13,0.03,
0.996,0.87,-0.03,0.08,0.12,-0.13,0.03,
0.996,0.87,-0.03,0.08,0.12,-0.13,0.03,
1.004,0.87,-0.03,0.08,0.10,-0.23,0.00,
1.004,0.87,-0.03,0.08,0.10,-0.23,0.00,
1.005,0.90,-0.10,0.16,0.10,-0.23,0.00,
1.005,0.90,-0.10,0.16,0.10,-0.23,0.00,
1.013,0.90,-0.10,0.16,0.05,-0.36,-0.04,
1.014,0.90,-0.10,0.16,0.05,-0.36,-0.04,
1.015,0.81,-0.15,0.23,0.05,-0.36,-0.04,
1.015,0.81,-0.15,0.23,0.05,-0.36,-0.04,
1.036,0.81,-0.15,0.23,-0.02,-0.48,-0.11,
1.037,0.81,-0.15,0.23,-0.02,-0.48,-0.11,
1.038,0.67,-0.19,0.26,-0.02,-0.48,-0.11,
1.038,0.67,-0.19,0.26,-0.02,-0.48,-0.11,
1.039,0.67,-0.19,0.26,-0.02,-0.48,-0.11,
1.039,0.67,-0.19,0.26,-0.02,-0.48,-0.11,
1.04,0.67,-0.19,0.26,-0.02,-0.48,-0.11,
1.041,0.67,-0.19,0.26,-0.02,-0.48,-0.11,
1.041,0.67,-0.19,0.26,-0.02,-0.48,-0.11,
1.042,0.67,-0.19,0.26,-0.02,-0.48,-0.11,
1.047,0.67,-0.19,0.26,-0.17,-0.58,-0.21,
1.048,0.67,-0.19,0.26,-0.17,-0.58,-0.21,
1.049,0.34,-0.25,0.16,-0.17,-0.58,-0.21,
1.049,0.34,-0.25,0.16,-0.17,-0.58,-0.21,
1.057,0.34,-0.25,0.16,-0.23,-0.51,-0.22,
1.058,0.34,-0.25,0.16,-0.23,-0.51,-0.22,
1.059,0.26,-0.32,0.06,-0.23,-0.51,-0.22,
1.06,0.26,-0.32,0.06,-0.23,-0.51,-0.22,
1.067,0.26,-0.32,0.06,-0.27,-0.38,-0.20,
1.068,0.26,-0.32,0.06,-0.27,-0.38,-0.20,
1.068,0.22,-0.38,-0.02,-0.27,-0.38,-0.20,
1.069,0.22,-0.38,-0.02,-0.27,-0.38,-0.20,
1.076,0.22,-0.38,-0.02,-0.29,-0.24,-0.17,
1.077,0.22,-0.38,-0.02,-0.29,-0.24,-0.17,
1.078,0.24,-0.43,-0.03,-0.29,-0.24,-0.17,
1.078,0.24,-0.43,-0.03,-0.29,-0.24,-0.17,
1.085,0.24,-0.43,-0.03,-0.31,-0.13,-0.14,
1.085,0.24,-0.43,-0.03,-0.31,-0.13,-0.14,
1.086,0.31,-0.43,0.07,-0.31,-0.13,-0.14,
1.087,0.31,-0.43,0.07,-0.31,-0.13,-0.14,
1.094,0.31,-0.43,0.07,-0.33,-0.04,-0.12,
1.095,0.31,-0.43,0.07,-0.33,-0.04,-0.12,
1.096,0.39,-0.41,0.22,-0.33,-0.04,-0.12,
1.097,0.39,-0.41,0.22,-0.33,-0.04,-0.12,
1.104,0.39,-0.41,0.22,-0.34,0.01,-0.12,
1.104,0.39,-0.41,0.22,-0.34,0.01,-0.12,
1.105,0.48,-0.38,0.43,-0.34,0.01,-0.12,
1.105,0.48,-0.38,0.43,-0.34,0.01,-0.12,
1.114,0.48,-0.38,0.43,-0.34,0.02,-0.13,
1.114,0.48,-0.38,0.43,-0.34,0.02,-0.13,
1.115,0.58,-0.35,0.63,-0.34,0.02,-0.13,
1.115,0.58,-0.35,0.63,-0.34,0.02,-0.13,
1.123,0.58,-0.35,0.63,-0.34,-0.01,-0.13,
1.124,0.58,-0.35,0.63,-0.34,-0.01,-0.13,
1.125,0.63,-0.34,0.75,-0.34,-0.01,-0.13,
1.125,0.63,-0.34,0.75,-0.34,-0.01,-0.13,
1.133,0.63,-0.34,0.75,-0.33,-0.06,-0.12,
1.134,0.63,-0.34,0.75,-0.33,-0.06,-0.12,
1.134,0.67,-0.32,0.81,-0.33,-0.06,-0.12,
1.135,0.67,-0.32,0.81,-0.33,-0.06,-0.12,
1.142,0.67,-0.32,0.81,-0.31,-0.11,-0.11,
1.143,0.67,-0.32,0.81,-0.31,-0.11,-0.11,
1.144,0.66,-0.34,0.78,-0.31,-0.11,-0.11,
1.145,0.66,-0.34,0.78,-0.31,-0.11,-0.11,
1.151,0.66,-0.34,0.78,-0.29,-0.17,-0.10,
1.152,0.66,-0.34,0.78,-0.29,-0.17,-0.10,
1.152,0.56,-0.39,0.69,-0.29,-0.17,-0.10,
1.153,0.56,-0.39,0.69,-0.29,-0.17,-0.10,
1.161,0.56,-0.39,0.69,-0.27,-0.21,-0.10,
1.162,0.56,-0.39,0.69,-0.27,-0.21,-0.10,
1.162,0.41,-0.46,0.57,-0.27,-0.21,-0.10,
1.163,0.41,-0.46,0.57,-0.27,-0.21,-0.10,
1.171,0.41,-0.46,0.57,-0.26,-0.23,-0.11,
1.172,0.41,-0.46,0.57,-0.26,-0.23,-0.11,
1.172,0.29,-0.55,0.43,-0.26,-0.23,-0.11,
1.172,0.29,-0.55,0.43,-0.26,-0.23,-0.11,
1.181,0.29,-0.55,0.43,-0.25,-0.21,-0.13,
1.182,0.29,-0.55,0.43,-0.25,-0.21,-0.13,
1.182,0.22,-0.56,0.30,-0.25,-0.21,-0.13,
1.183,0.22,-0.56,0.30,-0.25,-0.21,-0.13,
1.199,0.22,-0.56,0.30,-0.25,-0.21,-0.13,
1.201,0.22,-0.56,0.30,-0.25,-0.21,-0.13,
1.201,0.22,-0.56,0.30,-0.25,-0.21,-0.13,
1.202,0.22,-0.56,0.30,-0.25,-0.21,-0.13,
1.202,0.22,-0.56,0.30,-0.25,-0.16,-0.14,
1.203,0.22,-0.56,0.30,-0.25,-0.16,-0.14,
1.203,0.30,-0.42,0.21,-0.25,-0.16,-0.14,
1.204,0.30,-0.42,0.21,-0.25,-0.16,-0.14,
1.209,0.30,-0.42,0.21,-0.25,-0.10,-0.14,
1.21,0.30,-0.42,0.21,-0.25,-0.10,-0.14,
1.211,0.37,-0.29,0.26,-0.25,-0.10,-0.14,
1.211,0.37,-0.29,0.26,-0.25,-0.10,-0.14,
1.22,0.37,-0.29,0.26,-0.23,-0.05,-0.14,
1.22,0.37,-0.29,0.26,-0.23,-0.05,-0.14,
1.221,0.39,-0.23,0.32,-0.23,-0.05,-0.14,
1.221,0.39,-0.23,0.32,-0.23,-0.05,-0.14,
1.228,0.39,-0.23,0.32,-0.19,-0.02,-0.14,
1.229,0.39,-0.23,0.32,-0.19,-0.02,-0.14,
1.229,0.36,-0.20,0.38,-0.19,-0.02,-0.14,
1.23,0.36,-0.20,0.38,-0.19,-0.02,-0.14,
1.237,0.36,-0.20,0.38,-0.12,-0.02,-0.14,
1.238,0.36,-0.20,0.38,-0.12,-0.02,-0.14,
1.239,0.30,-0.17,0.45,-0.12,-0.02,-0.14,
1.239,0.30,-0.17,0.45,-0.12,-0.02,-0.14,
1.247,0.30,-0.17,0.45,-0.06,-0.03,-0.12,
1.248,0.30,-0.17,0.45,-0.06,-0.03,-0.12,
1.249,0.29,-0.13,0.43,-0.06,-0.03,-0.12,
1.25,0.29,-0.13,0.43,-0.06,-0.03,-0.12,
1.256,0.29,-0.13,0.43,0.00,-0.03,-0.09,
1.257,0.29,-0.13,0.43,0.00,-0.03,-0.09,
1.258,0.29,-0.04,0.30,0.00,-0.03,-0.09,
1.259,0.29,-0.04,0.30,0.00,-0.03,-0.09,
1.266,0.29,-0.04,0.30,0.05,-0.02,-0.05,
1.267,0.29,-0.04,0.30,0.05,-0.02,-0.05,
1.267,0.42,0.07,0.05,0.05,-0.02,-0.05,
1.268,0.42,0.07,0.05,0.05,-0.02,-0.05,
1.276,0.42,0.07,0.05,0.09,-0.02,-0.04,
1.276,0.42,0.07,0.05,0.09,-0.02,-0.04,
1.277,0.70,0.18,-0.27,0.09,-0.02,-0.04,
1.278,0.70,0.18,-0.27,0.09,-0.02,-0.04,
1.29,0.70,0.18,-0.27,0.15,-0.06,-0.06,
1.291,0.70,0.18,-0.27,0.15,-0.06,-0.06,
1.292,1.08,0.27,-0.49,0.15,-0.06,-0.06,
1.292,1.08,0.27,-0.49,0.15,-0.06,-0.06,
1.295,1.08,0.27,-0.49,0.22,-0.15,-0.14,
1.296,1.08,0.27,-0.49,0.22,-0.15,-0.14,
1.296,1.56,0.29,-0.39,0.22,-0.15,-0.14,
1.297,1.56,0.29,-0.39,0.22,-0.15,-0.14,
1.304,1.56,0.29,-0.39,0.30,-0.33,-0.26,
1.305,1.56,0.29,-0.39,0.30,-0.33,-0.26,
1.305,2.03,0.17,0.00,0.30,-0.33,-0.26,
1.305,2.03,0.17,0.00,0.30,-0.33,-0.26,
1.314,2.03,0.17,0.00,0.36,-0.60,-0.41,
1.314,2.03,0.17,0.00,0.36,-0.60,-0.41,
1.315,2.42,-0.22,0.62,0.36,-0.60,-0.41,
1.316,2.42,-0.22,0.62,0.36,-0.60,-0.41,
1.323,2.42,-0.22,0.62,0.36,-0.95,-0.57,
1.324,2.42,-0.22,0.62,0.36,-0.95,-0.57,
1.325,2.63,-0.73,2.10,0.36,-0.95,-0.57,
1.326,2.63,-0.73,2.10,0.36,-0.95,-0.57,
1.333,2.63,-0.73,2.10,0.22,-1.31,-0.76,
1.334,2.63,-0.73,2.10,0.22,-1.31,-0.76,
1.334,2.59,-1.22,2.17,0.22,-1.31,-0.76,
1.335,2.59,-1.22,2.17,0.22,-1.31,-0.76,
1.343,2.59,-1.22,2.17,-0.07,-1.61,-0.96,
1.344,2.59,-1.22,2.17,-0.07,-1.61,-0.96,
1.345,2.19,-1.67,2.12,-0.07,-1.61,-0.96,
1.346,2.19,-1.67,2.12,-0.07,-1.61,-0.96,
1.351,2.19,-1.67,2.12,-0.47,-1.77,-1.09,
1.352,2.19,-1.67,2.12,-0.47,-1.77,-1.09,
1.352,0.41,-2.05,1.76,-0.47,-1.77,-1.09,
1.353,0.41,-2.05,1.76,-0.47,-1.77,-1.09,
1.361,0.41,-2.05,1.76,-0.89,-1.71,-1.09,
1.362,0.41,-2.05,1.76,-0.89,-1.71,-1.09,
1.362,0.17,-2.55,0.07,-0.89,-1.71,-1.09,
1.363,0.17,-2.55,0.07,-0.89,-1.71,-1.09,
1.371,0.17,-2.55,0.07,-0.89,-1.71,-1.09,
1.372,0.17,-2.55,0.07,-0.89,-1.71,-1.09,
1.372,0.17,-2.55,0.07,-0.89,-1.71,-1.09,
1.373,0.17,-2.55,0.07,-0.89,-1.71,-1.09,
1.38,0.17,-2.55,0.07,-1.55,-0.92,-0.65,
1.381,0.17,-2.55,0.07,-1.55,-0.92,-0.65,
1.382,-0.25,-4.49,-4.13,-1.55,-0.92,-0.65,
1.382,-0.25,-4.49,-4.13,-1.55,-0.92,-0.65,
1.391,-0.25,-4.49,-4.13,-1.55,-0.92,-0.65,
1.392,-0.25,-4.49,-4.13,-1.55,-0.92,-0.65,
1.393,-0.25,-4.49,-4.13,-1.55,-0.92,-0.65,
1.394,-0.25,-4.49,-4.13,-1.55,-0.92,-0.65,
1.399,-0.25,-4.49,-4.13,-1.92,-0.42,-0.32,
1.4,-0.25,-4.49,-4.13,-1.92,-0.42,-0.32,
1.4,0.53,-4.38,-5.68,-1.92,-0.42,-0.32,
1.401,0.53,-4.38,-5.68,-1.92,-0.42,-0.32,
1.409,0.53,-4.38,-5.68,-2.39,-0.07,-0.03,
1.41,0.53,-4.38,-5.68,-2.39,-0.07,-0.03,
1.411,2.22,-2.75,-5.26,-2.39,-0.07,-0.03,
1.411,2.22,-2.75,-5.26,-2.39,-0.07,-0.03,
1.418,2.22,-2.75,-5.26,-2.87,0.03,0.19,
1.418,2.22,-2.75,-5.26,-2.87,0.03,0.19,
1.419,4.03,-0.86,-3.81,-2.87,0.03,0.19,
1.419,4.03,-0.86,-3.81,-2.87,0.03,0.19,
1.428,4.03,-0.86,-3.81,-3.03,-0.30,0.29,
1.429,4.03,-0.86,-3.81,-3.03,-0.30,0.29,
1.43,4.46,-0.60,-3.70,-3.03,-0.30,0.29,
1.43,4.46,-0.60,-3.70,-3.03,-0.30,0.29,
1.437,4.46,-0.60,-3.70,-2.63,-1.13,0.20,
1.438,4.46,-0.60,-3.70,-2.63,-1.13,0.20,
1.438,5.01,-0.41,-3.88,-2.63,-1.13,0.20,
1.438,5.01,-0.41,-3.88,-2.63,-1.13,0.20,
1.447,5.01,-0.41,-3.88,-1.75,-2.29,-0.09,
1.447,5.01,-0.41,-3.88,-1.75,-2.29,-0.09,
1.448,5.16,-0.51,-4.17,-1.75,-2.29,-0.09,
1.448,5.16,-0.51,-4.17,-1.75,-2.29,-0.09,
1.456,5.16,-0.51,-4.17,-0.78,-3.42,-0.47,
1.457,5.16,-0.51,-4.17,-0.78,-3.42,-0.47,
1.458,3.37,-0.95,-4.37,-0.78,-3.42,-0.47,
1.458,3.37,-0.95,-4.37,-0.78,-3.42,-0.47,
1.466,3.37,-0.95,-4.37,-0.03,-4.21,-0.64,
1.467,3.37,-0.95,-4.37,-0.03,-4.21,-0.64,
1.467,0.84,-2.48,-4.36,-0.03,-4.21,-0.64,
1.468,0.84,-2.48,-4.36,-0.03,-4.21,-0.64,
1.475,0.84,-2.48,-4.36,0.43,-4.41,-0.56,
1.477,0.84,-2.48,-4.36,0.43,-4.41,-0.56,
1.477,-1.50,-4.25,-4.41,0.43,-4.41,-0.56,
1.478,-1.50,-4.25,-4.41,0.43,-4.41,-0.56,
1.485,-1.50,-4.25,-4.41,0.58,-3.81,-0.14,
1.486,-1.50,-4.25,-4.41,0.58,-3.81,-0.14,
1.486,-2.03,-4.71,-4.69,0.58,-3.81,-0.14,
1.487,-2.03,-4.71,-4.69,0.58,-3.81,-0.14,
1.495,-2.03,-4.71,-4.69,0.31,-2.40,-0.12,
1.496,-2.03,-4.71,-4.69,0.31,-2.40,-0.12,
1.496,-2.58,-6.27,-5.20,0.31,-2.40,-0.12,
1.497,-2.58,-6.27,-5.20,0.31,-2.40,-0.12,
1.503,-2.58,-6.27,-5.20,-0.24,-0.49,-0.44,
1.504,-2.58,-6.27,-5.20,-0.24,-0.49,-0.44,
1.505,-2.77,-6.67,-5.70,-0.24,-0.49,-0.44,
1.505,-2.77,-6.67,-5.70,-0.24,-0.49,-0.44,
1.514,-2.77,-6.67,-5.70,-1.37,1.44,0.29,
1.514,-2.77,-6.67,-5.70,-1.37,1.44,0.29,
1.515,-2.41,-7.00,-5.98,-1.37,1.44,0.29,
1.516,-2.41,-7.00,-5.98,-1.37,1.44,0.29,
1.523,-2.41,-7.00,-5.98,-3.10,2.99,1.58,
1.524,-2.41,-7.00,-5.98,-3.10,2.99,1.58,
1.525,-0.68,-7.04,-5.92,-3.10,2.99,1.58,
1.525,-0.68,-7.04,-5.92,-3.10,2.99,1.58,
1.532,-0.68,-7.04,-5.92,-4.74,3.85,2.53,
1.533,-0.68,-7.04,-5.92,-4.74,3.85,2.53,
1.534,0.88,-6.81,-5.53,-4.74,3.85,2.53,
1.534,0.88,-6.81,-5.53,-4.74,3.85,2.53,
1.542,0.88,-6.81,-5.53,-5.96,3.76,3.17,
1.544,0.88,-6.81,-5.53,-5.96,3.76,3.17,
1.545,2.56,-6.55,-4.98,-5.96,3.76,3.17,
1.545,2.56,-6.55,-4.98,-5.96,3.76,3.17,
1.553,2.56,-6.55,-4.98,-6.54,2.57,3.52,
1.554,2.56,-6.55,-4.98,-6.54,2.57,3.52,
1.554,2.71,-6.44,-4.40,-6.54,2.57,3.52,
1.555,2.71,-6.44,-4.40,-6.54,2.57,3.52,
1.561,2.71,-6.44,-4.40,-6.45,0.55,3.58,
1.562,2.71,-6.44,-4.40,-6.45,0.55,3.58,
1.562,2.90,-6.65,-4.00,-6.45,0.55,3.58,
1.563,2.90,-6.65,-4.00,-6.45,0.55,3.58,
1.571,2.90,-6.65,-4.00,-5.77,-1.64,3.41,
1.572,2.90,-6.65,-4.00,-5.77,-1.64,3.41,
1.573,3.23,-7.05,-3.80,-5.77,-1.64,3.41,
1.573,3.23,-7.05,-3.80,-5.77,-1.64,3.41,
1.58,3.23,-7.05,-3.80,-5.77,-1.64,3.41,
1.581,3.23,-7.05,-3.80,-5.77,-1.64,3.41,
1.581,3.23,-7.05,-3.80,-5.77,-1.64,3.41,
1.582,3.23,-7.05,-3.80,-5.77,-1.64,3.41,
1.592,3.23,-7.05,-3.80,-4.76,-3.45,3.16,
1.593,3.23,-7.05,-3.80,-4.76,-3.45,3.16,
1.594,6.60,-7.62,-3.65,-4.76,-3.45,3.16,
1.594,6.60,-7.62,-3.65,-4.76,-3.45,3.16,
1.6,6.60,-7.62,-3.65,-3.69,-4.82,2.93,
1.601,6.60,-7.62,-3.65,-3.69,-4.82,2.93,
1.601,9.02,-7.28,-3.68,-3.69,-4.82,2.93,
1.602,9.02,-7.28,-3.68,-3.69,-4.82,2.93,
1.609,9.02,-7.28,-3.68,-2.68,-6.08,2.61,
1.61,9.02,-7.28,-3.68,-2.68,-6.08,2.61,
1.61,11.43,-6.63,-3.85,-2.68,-6.08,2.61,
1.61,11.43,-6.63,-3.85,-2.68,-6.08,2.61,
1.619,11.43,-6.63,-3.85,-1.73,-7.40,2.03,
1.62,11.43,-6.63,-3.85,-1.73,-7.40,2.03,
1.621,13.47,-4.75,-4.28,-1.73,-7.40,2.03,
1.621,13.47,-4.75,-4.28,-1.73,-7.40,2.03,
1.628,13.47,-4.75,-4.28,-0.76,-8.63,1.17,
1.629,13.47,-4.75,-4.28,-0.76,-8.63,1.17,
1.629,14.93,-4.39,-6.23,-0.76,-8.63,1.17,
1.63,14.93,-4.39,-6.23,-0.76,-8.63,1.17,
1.637,14.93,-4.39,-6.23,0.21,-9.56,0.19,
1.638,14.93,-4.39,-6.23,0.21,-9.56,0.19,
1.639,15.29,-4.00,-6.68,0.21,-9.56,0.19,
1.64,15.29,-4.00,-6.68,0.21,-9.56,0.19,
1.647,15.29,-4.00,-6.68,1.13,-10.17,-0.70,
1.648,15.29,-4.00,-6.68,1.13,-10.17,-0.70,
1.649,15.68,-3.67,-8.33,1.13,-10.17,-0.70,
1.649,15.68,-3.67,-8.33,1.13,-10.17,-0.70,
1.656,15.68,-3.67,-8.33,1.91,-10.47,-1.34,
1.658,15.68,-3.67,-8.33,1.91,-10.47,-1.34,
1.659,16.06,-3.42,-10.25,1.91,-10.47,-1.34,
1.66,16.06,-3.42,-10.25,1.91,-10.47,-1.34,
1.667,16.06,-3.42,-10.25,2.55,-10.55,-1.68,
1.669,16.06,-3.42,-10.25,2.55,-10.55,-1.68,
1.669,16.41,-3.17,-10.60,2.55,-10.55,-1.68,
1.67,16.41,-3.17,-10.60,2.55,-10.55,-1.68,
1.675,16.41,-3.17,-10.60,3.04,-10.47,-1.81,
1.676,16.41,-3.17,-10.60,3.04,-10.47,-1.81,
1.677,16.71,-2.85,-12.50,3.04,-10.47,-1.81,
1.679,16.71,-2.85,-12.50,3.04,-10.47,-1.81,
1.685,16.71,-2.85,-12.50,3.42,-10.30,-1.82,
1.686,16.71,-2.85,-12.50,3.42,-10.30,-1.82,
1.687,16.95,-2.41,-12.97,3.42,-10.30,-1.82,
1.687,16.95,-2.41,-12.97,3.42,-10.30,-1.82,
1.694,16.95,-2.41,-12.97,3.73,-10.05,-1.79,
1.695,16.95,-2.41,-12.97,3.73,-10.05,-1.79,
1.696,16.99,-1.85,-14.69,3.73,-10.05,-1.79,
1.696,16.99,-1.85,-14.69,3.73,-10.05,-1.79,
1.704,16.99,-1.85,-14.69,4.00,-9.74,-1.76,
1.704,16.99,-1.85,-14.69,4.00,-9.74,-1.76,
1.705,16.80,-1.22,-16.54,4.00,-9.74,-1.76,
1.705,16.80,-1.22,-16.54,4.00,-9.74,-1.76,
1.713,16.80,-1.22,-16.54,4.23,-9.42,-1.77,
1.714,16.80,-1.22,-16.54,4.23,-9.42,-1.77,
1.714,16.29,-0.62,-16.81,4.23,-9.42,-1.77,
1.715,16.29,-0.62,-16.81,4.23,-9.42,-1.77,
1.723,16.29,-0.62,-16.81,4.41,-9.12,-1.82,
1.724,16.29,-0.62,-16.81,4.41,-9.12,-1.82,
1.724,15.43,-0.16,-17.09,4.41,-9.12,-1.82,
1.725,15.43,-0.16,-17.09,4.41,-9.12,-1.82,
1.733,15.43,-0.16,-17.09,4.55,-8.81,-1.92,
1.733,15.43,-0.16,-17.09,4.55,-8.81,-1.92,
1.734,13.38,0.06,-17.05,4.55,-8.81,-1.92,
1.735,13.38,0.06,-17.05,4.55,-8.81,-1.92,
1.742,13.38,0.06,-17.05,4.67,-8.43,-2.03,
1.743,13.38,0.06,-17.05,4.67,-8.43,-2.03,
1.744,11.26,-0.00,-16.47,4.67,-8.43,-2.03,
1.745,11.26,-0.00,-16.47,4.67,-8.43,-2.03,
1.752,11.26,-0.00,-16.47,4.75,-7.95,-2.11,
1.753,11.26,-0.00,-16.47,4.75,-7.95,-2.11,
1.754,10.38,-0.27,-13.99,4.75,-7.95,-2.11,
1.754,10.38,-0.27,-13.99,4.75,-7.95,-2.11,
1.761,10.38,-0.27,-13.99,4.74,-7.38,-2.12,
1.761,10.38,-0.27,-13.99,4.74,-7.38,-2.12,
1.762,9.37,-0.56,-13.31,4.74,-7.38,-2.12,
1.763,9.37,-0.56,-13.31,4.74,-7.38,-2.12,
1.771,9.37,-0.56,-13.31,4.62,-6.69,-2.01,
1.772,9.37,-0.56,-13.31,4.62,-6.69,-2.01,
1.772,8.40,-0.70,-12.98,4.62,-6.69,-2.01,
1.773,8.40,-0.70,-12.98,4.62,-6.69,-2.01,
1.78,8.40,-0.70,-12.98,4.62,-6.69,-2.01,
1.781,8.40,-0.70,-12.98,4.62,-6.69,-2.01,
1.782,8.40,-0.70,-12.98,4.62,-6.69,-2.01,
1.782,8.40,-0.70,-12.98,4.62,-6.69,-2.01,
1.791,8.40,-0.70,-12.98,4.40,-5.90,-1.78,
1.792,8.40,-0.70,-12.98,4.40,-5.90,-1.78,
1.793,5.84,-0.78,-14.52,4.40,-5.90,-1.78,
1.794,5.84,-0.78,-14.52,4.40,-5.90,-1.78,
1.799,5.84,-0.78,-14.52,4.09,-5.14,-1.47,
1.8,5.84,-0.78,-14.52,4.09,-5.14,-1.47,
1.8,4.81,-0.84,-13.97,4.09,-5.14,-1.47,
1.801,4.81,-0.84,-13.97,4.09,-5.14,-1.47,
1.808,4.81,-0.84,-13.97,3.70,-4.57,-1.10,
1.809,4.81,-0.84,-13.97,3.70,-4.57,-1.10,
1.81,2.83,-1.06,-10.53,3.70,-4.57,-1.10,
1.81,2.83,-1.06,-10.53,3.70,-4.57,-1.10,
1.82,2.83,-1.06,-10.53,3.23,-4.20,-0.68,
1.821,2.83,-1.06,-10.53,3.23,-4.20,-0.68,
1.821,2.21,-1.34,-8.17,3.23,-4.20,-0.68,
1.822,2.21,-1.34,-8.17,3.23,-4.20,-0.68,
1.828,2.21,-1.34,-8.17,2.69,-3.82,-0.22,
1.829,2.21,-1.34,-8.17,2.69,-3.82,-0.22,
1.83,1.59,-1.58,-5.63,2.69,-3.82,-0.22,
1.83,1.59,-1.58,-5.63,2.69,-3.82,-0.22,
1.837,1.59,-1.58,-5.63,2.14,-3.19,0.31,
1.839,1.59,-1.58,-5.63,2.14,-3.19,0.31,
1.84,0.90,-1.81,-4.73,2.14,-3.19,0.31,
1.841,0.90,-1.81,-4.73,2.14,-3.19,0.31,
1.847,0.90,-1.81,-4.73,1.63,-2.25,0.87,
1.848,0.90,-1.81,-4.73,1.63,-2.25,0.87,
1.849,0.19,-2.06,-3.96,1.63,-2.25,0.87,
1.85,0.19,-2.06,-3.96,1.63,-2.25,0.87,
1.857,0.19,-2.06,-3.96,1.22,-1.15,1.42,
1.859,0.19,-2.06,-3.96,1.22,-1.15,1.42,
1.86,-0.46,-2.33,-3.39,1.22,-1.15,1.42,
1.861,-0.46,-2.33,-3.39,1.22,-1.15,1.42,
1.865,-0.46,-2.33,-3.39,0.92,-0.10,1.90,
1.866,-0.46,-2.33,-3.39,0.92,-0.10,1.90,
1.867,-0.94,-2.56,-3.01,0.92,-0.10,1.90,
1.867,-0.94,-2.56,-3.01,0.92,-0.10,1.90,
1.875,-0.94,-2.56,-3.01,0.72,0.77,2.10,
1.876,-0.94,-2.56,-3.01,0.72,0.77,2.10,
1.876,-1.21,-2.61,-2.73,0.72,0.77,2.10,
1.877,-1.21,-2.61,-2.73,0.72,0.77,2.10,
1.89,-1.21,-2.61,-2.73,0.61,1.42,2.26,
1.891,-1.21,-2.61,-2.73,0.61,1.42,2.26,
1.891,-1.36,-2.51,-2.57,0.61,1.42,2.26,
1.892,-1.36,-2.51,-2.57,0.61,1.42,2.26,
1.894,-1.36,-2.51,-2.57,0.56,1.84,2.57,
1.895,-1.36,-2.51,-2.57,0.56,1.84,2.57,
1.895,-1.55,-2.34,-2.45,0.56,1.84,2.57,
1.896,-1.55,-2.34,-2.45,0.56,1.84,2.57,
1.904,-1.55,-2.34,-2.45,0.54,2.05,2.75,
1.905,-1.55,-2.34,-2.45,0.54,2.05,2.75,
1.905,-1.85,-2.23,-2.21,0.54,2.05,2.75,
1.905,-1.85,-2.23,-2.21,0.54,2.05,2.75,
1.913,-1.85,-2.23,-2.21,0.54,2.09,2.78,
1.914,-1.85,-2.23,-2.21,0.54,2.09,2.78,
1.914,-2.17,-2.17,-1.79,0.54,2.09,2.78,
1.915,-2.17,-2.17,-1.79,0.54,2.09,2.78,
1.923,-2.17,-2.17,-1.79,0.54,1.99,2.69,
1.924,-2.17,-2.17,-1.79,0.54,1.99,2.69,
1.925,-2.39,-2.08,-1.31,0.54,1.99,2.69,
1.925,-2.39,-2.08,-1.31,0.54,1.99,2.69,
1.932,-2.39,-2.08,-1.31,0.56,1.84,2.52,
1.933,-2.39,-2.08,-1.31,0.56,1.84,2.52,
1.934,-2.49,-2.02,-0.93,0.56,1.84,2.52,
1.934,-2.49,-2.02,-0.93,0.56,1.84,2.52,
1.942,-2.49,-2.02,-0.93,0.60,1.69,2.32,
1.945,-2.49,-2.02,-0.93,0.60,1.69,2.32,
1.945,-2.47,-1.93,-0.65,0.60,1.69,2.32,
1.946,-2.47,-1.93,-0.65,0.60,1.69,2.32,
1.952,-2.47,-1.93,-0.65,0.65,1.56,2.10,
1.953,-2.47,-1.93,-0.65,0.65,1.56,2.10,
1.953,-2.49,-1.93,-0.49,0.65,1.56,2.10,
1.954,-2.49,-1.93,-0.49,0.65,1.56,2.10,
1.96,-2.49,-1.93,-0.49,0.71,1.46,1.86,
1.961,-2.49,-1.93,-0.49,0.71,1.46,1.86,
1.961,-2.61,-2.13,-0.36,0.71,1.46,1.86,
1.961,-2.61,-2.13,-0.36,0.71,1.46,1.86,
1.971,-2.61,-2.13,-0.36,0.75,1.35,1.62,
1.972,-2.61,-2.13,-0.36,0.75,1.35,1.62,
1.972,-2.81,-2.44,-0.23,0.75,1.35,1.62,
1.972,-2.81,-2.44,-0.23,0.75,1.35,1.62,
1.98,-2.81,-2.44,-0.23,0.75,1.35,1.62,
1.981,-2.81,-2.44,-0.23,0.75,1.35,1.62,
1.981,-2.81,-2.44,-0.23,0.75,1.35,1.62,
1.981,-2.81,-2.44,-0.23,0.75,1.35,1.62,
1.992,-2.81,-2.44,-0.23,0.66,1.15,1.34,
1.995,-2.81,-2.44,-0.23,0.66,1.15,1.34,
1.996,-3.07,-3.15,-0.06,0.66,1.15,1.34,
1.997,-3.07,-3.15,-0.06,0.66,1.15,1.34,
1.999,-3.07,-3.15,-0.06,0.66,1.15,1.34,
2.0,-3.07,-3.15,-0.06,0.66,1.15,1.34,
2.0,-3.07,-3.15,-0.06,0.66,1.15,1.34,
2.0,-3.07,-3.15,-0.06,0.66,1.15,1.34,
2.008,-3.07,-3.15,-0.06,0.51,1.08,1.39,
2.009,-3.07,-3.15,-0.06,0.51,1.08,1.39,
2.01,-3.21,-3.03,-0.34,0.51,1.08,1.39,
2.01,-3.21,-3.03,-0.34,0.51,1.08,1.39,
2.018,-3.21,-3.03,-0.34,0.31,1.01,1.52,
2.019,-3.21,-3.03,-0.34,0.31,1.01,1.52,
2.02,-3.30,-2.68,-0.48,0.31,1.01,1.52,
2.02,-3.30,-2.68,-0.48,0.31,1.01,1.52,
2.04,-3.30,-2.68,-0.48,0.10,0.90,1.64,
2.041,-3.30,-2.68,-0.48,0.10,0.90,1.64,
2.041,-3.37,-2.42,-0.53,0.10,0.90,1.64,
2.042,-3.37,-2.42,-0.53,0.10,0.90,1.64,
2.042,-3.37,-2.42,-0.53,-0.23,0.48,1.57,
2.043,-3.37,-2.42,-0.53,-0.23,0.48,1.57,
2.043,-3.37,-2.42,-0.53,-0.23,0.48,1.57,
2.044,-3.24,-2.35,-0.26,-0.23,0.48,1.57,
2.044,-3.24,-2.35,-0.26,-0.23,0.48,1.57,
2.044,-3.24,-2.35,-0.26,-0.23,0.48,1.57,
2.052,-3.24,-2.35,-0.26,-0.49,0.02,1.31,
2.053,-3.24,-2.35,-0.26,-0.49,0.02,1.31,
2.053,-3.07,-2.60,0.24,-0.49,0.02,1.31,
2.054,-3.07,-2.60,0.24,-0.49,0.02,1.31,
2.06,-3.07,-2.60,0.24,-0.49,0.02,1.31,
2.061,-3.07,-2.60,0.24,-0.49,0.02,1.31,
2.061,-3.07,-2.60,0.24,-0.49,0.02,1.31,
2.062,-3.07,-2.60,0.24,-0.49,0.02,1.31,
2.071,-3.07,-2.60,0.24,-0.57,-0.05,1.18,
2.071,-3.07,-2.60,0.24,-0.57,-0.05,1.18,
2.072,-2.95,-2.78,0.53,-0.57,-0.05,1.18,
2.072,-2.95,-2.78,0.53,-0.57,-0.05,1.18,
2.08,-2.95,-2.78,0.53,-0.57,-0.05,1.18,
2.081,-2.95,-2.78,0.53,-0.57,-0.05,1.18,
2.081,-2.95,-2.78,0.53,-0.57,-0.05,1.18,
2.082,-2.95,-2.78,0.53,-0.57,-0.05,1.18,
2.089,-2.95,-2.78,0.53,-0.52,0.00,1.16,
2.09,-2.95,-2.78,0.53,-0.52,0.00,1.16,
2.09,-3.39,-2.56,0.34,-0.52,0.00,1.16,
2.091,-3.39,-2.56,0.34,-0.52,0.00,1.16,
2.099,-3.39,-2.56,0.34,-0.45,0.06,1.14,
2.099,-3.39,-2.56,0.34,-0.45,0.06,1.14,
2.1,-3.85,-2.33,0.50,-0.45,0.06,1.14,
2.1,-3.85,-2.33,0.50,-0.45,0.06,1.14,
2.108,-3.85,-2.33,0.50,-0.41,0.12,1.15,
2.109,-3.85,-2.33,0.50,-0.41,0.12,1.15,
2.109,-5.26,-1.89,0.83,-0.41,0.12,1.15,
2.11,-5.26,-1.89,0.83,-0.41,0.12,1.15,
2.119,-5.26,-1.89,0.83,-0.40,0.18,1.22,
2.119,-5.26,-1.89,0.83,-0.40,0.18,1.22,
2.12,-4.78,-1.29,1.20,-0.40,0.18,1.22,
2.12,-4.78,-1.29,1.20,-0.40,0.18,1.22,
2.127,-4.78,-1.29,1.20,-0.40,0.28,1.33,
2.128,-4.78,-1.29,1.20,-0.40,0.28,1.33,
2.128,-2.84,-0.58,1.53,-0.40,0.28,1.33,
2.129,-2.84,-0.58,1.53,-0.40,0.28,1.33,
2.137,-2.84,-0.58,1.53,-0.34,0.42,1.42,
2.138,-2.84,-0.58,1.53,-0.34,0.42,1.42,
2.143,-4.42,-0.01,1.42,-0.34,0.42,1.42,
2.144,-4.42,-0.01,1.42,-0.34,0.42,1.42,
2.146,-4.42,-0.01,1.42,-0.16,0.57,1.38,
2.147,-4.42,-0.01,1.42,-0.16,0.57,1.38,
2.148,-4.06,0.12,1.04,-0.16,0.57,1.38,
2.148,-4.06,0.12,1.04,-0.16,0.57,1.38,
2.156,-4.06,0.12,1.04,0.09,0.66,1.14,
2.158,-4.06,0.12,1.04,0.09,0.66,1.14,
2.159,-3.91,-0.17,0.42,0.09,0.66,1.14,
2.16,-3.91,-0.17,0.42,0.09,0.66,1.14,
2.165,-3.91,-0.17,0.42,0.30,0.64,0.79,
2.166,-3.91,-0.17,0.42,0.30,0.64,0.79,
2.167,-4.21,-0.57,-0.02,0.30,0.64,0.79,
2.168,-4.21,-0.57,-0.02,0.30,0.64,0.79,
2.175,-4.21,-0.57,-0.02,0.35,0.51,0.49,
2.176,-4.21,-0.57,-0.02,0.35,0.51,0.49,
2.177,-0.74,-2.11,-0.09,0.35,0.51,0.49,
2.177,-0.74,-2.11,-0.09,0.35,0.51,0.49,
2.188,-0.74,-2.11,-0.09,0.22,0.28,0.31,
2.189,-0.74,-2.11,-0.09,0.22,0.28,0.31,
2.189,-0.42,-2.24,0.12,0.22,0.28,0.31,
2.189,-0.42,-2.24,0.12,0.22,0.28,0.31,
2.194,-0.42,-2.24,0.12,0.03,0.03,0.18,
2.195,-0.42,-2.24,0.12,0.03,0.03,0.18,
2.195,-0.19,-4.04,0.50,0.03,0.03,0.18,
2.195,-0.19,-4.04,0.50,0.03,0.03,0.18,
2.204,-0.19,-4.04,0.50,-0.09,-0.14,0.06,
2.205,-0.19,-4.04,0.50,-0.09,-0.14,0.06,
2.205,0.06,-5.85,0.77,-0.09,-0.14,0.06,
2.205,0.06,-5.85,0.77,-0.09,-0.14,0.06,
2.213,0.06,-5.85,0.77,-0.13,-0.12,0.11,
2.214,0.06,-5.85,0.77,-0.13,-0.12,0.11,
2.214,0.25,-7.60,1.09,-0.13,-0.12,0.11,
2.215,0.25,-7.60,1.09,-0.13,-0.12,0.11,
2.223,0.25,-7.60,1.09,-0.17,0.13,0.46,
2.224,0.25,-7.60,1.09,-0.17,0.13,0.46,
2.225,0.52,-9.22,1.29,-0.17,0.13,0.46,
2.225,0.52,-9.22,1.29,-0.17,0.13,0.46,
2.232,0.52,-9.22,1.29,-0.23,0.51,1.05,
2.233,0.52,-9.22,1.29,-0.23,0.51,1.05,
2.233,0.69,-9.50,1.43,-0.23,0.51,1.05,
2.233,0.69,-9.50,1.43,-0.23,0.51,1.05,
2.242,0.69,-9.50,1.43,-0.28,0.90,1.67,
2.243,0.69,-9.50,1.43,-0.28,0.90,1.67,
2.243,0.63,-9.94,1.31,-0.28,0.90,1.67,
2.244,0.63,-9.94,1.31,-0.28,0.90,1.67,
2.252,0.63,-9.94,1.31,-0.31,1.21,2.15,
2.252,0.63,-9.94,1.31,-0.31,1.21,2.15,
2.252,-0.97,-9.93,0.82,-0.31,1.21,2.15,
2.253,-0.97,-9.93,0.82,-0.31,1.21,2.15,
2.26,-0.97,-9.93,0.82,-0.32,1.41,2.46,
2.261,-0.97,-9.93,0.82,-0.32,1.41,2.46,
2.261,-1.17,-7.46,0.34,-0.32,1.41,2.46,
2.261,-1.17,-7.46,0.34,-0.32,1.41,2.46,
2.271,-1.17,-7.46,0.34,-0.36,1.48,2.63,
2.272,-1.17,-7.46,0.34,-0.36,1.48,2.63,
2.272,-1.55,-4.99,-0.02,-0.36,1.48,2.63,
2.272,-1.55,-4.99,-0.02,-0.36,1.48,2.63,
2.28,-1.55,-4.99,-0.02,-0.36,1.48,2.63,
2.28,-1.55,-4.99,-0.02,-0.36,1.48,2.63,
2.281,-1.55,-4.99,-0.02,-0.36,1.48,2.63,
2.281,-1.55,-4.99,-0.02,-0.36,1.48,2.63,
2.29,-1.55,-4.99,-0.02,-0.42,1.44,2.66,
2.291,-1.55,-4.99,-0.02,-0.42,1.44,2.66,
2.292,-1.94,-1.89,-0.29,-0.42,1.44,2.66,
2.292,-1.94,-1.89,-0.29,-0.42,1.44,2.66,
2.299,-1.94,-1.89,-0.29,-0.48,1.27,2.50,
2.3,-1.94,-1.89,-0.29,-0.48,1.27,2.50,
2.3,-2.12,-1.31,-0.15,-0.48,1.27,2.50,
2.301,-2.12,-1.31,-0.15,-0.48,1.27,2.50,
2.308,-2.12,-1.31,-0.15,-0.50,0.97,2.13,
2.309,-2.12,-1.31,-0.15,-0.50,0.97,2.13,
2.31,-2.18,-0.94,0.27,-0.50,0.97,2.13,
2.31,-2.18,-0.94,0.27,-0.50,0.97,2.13,
2.319,-2.18,-0.94,0.27,-0.46,0.60,1.64,
2.32,-2.18,-0.94,0.27,-0.46,0.60,1.64,
2.32,-2.16,-0.78,1.96,-0.46,0.60,1.64,
2.32,-2.16,-0.78,1.96,-0.46,0.60,1.64,
2.327,-2.16,-0.78,1.96,-0.32,0.26,1.13,
2.328,-2.16,-0.78,1.96,-0.32,0.26,1.13,
2.328,-2.17,-0.79,2.10,-0.32,0.26,1.13,
2.328,-2.17,-0.79,2.10,-0.32,0.26,1.13,
2.337,-2.17,-0.79,2.10,-0.02,0.03,0.69,
2.338,-2.17,-0.79,2.10,-0.02,0.03,0.69,
2.338,-2.16,-0.90,1.92,-0.02,0.03,0.69,
2.338,-2.16,-0.90,1.92,-0.02,0.03,0.69,
2.346,-2.16,-0.90,1.92,0.39,-0.05,0.37,
2.347,-2.16,-0.90,1.92,0.39,-0.05,0.37,
2.347,-2.20,-1.09,0.25,0.39,-0.05,0.37,
2.347,-2.20,-1.09,0.25,0.39,-0.05,0.37,
2.356,-2.20,-1.09,0.25,0.78,-0.07,0.16,
2.357,-2.20,-1.09,0.25,0.78,-0.07,0.16,
2.357,-2.34,-1.33,-0.08,0.78,-0.07,0.16,
2.358,-2.34,-1.33,-0.08,0.78,-0.07,0.16,
2.366,-2.34,-1.33,-0.08,0.93,-0.12,0.06,
2.366,-2.34,-1.33,-0.08,0.93,-0.12,0.06,
2.367,-2.34,-1.56,-0.54,0.93,-0.12,0.06,
2.367,-2.34,-1.56,-0.54,0.93,-0.12,0.06,
2.376,-2.34,-1.56,-0.54,0.80,-0.27,0.06,
2.377,-2.34,-1.56,-0.54,0.80,-0.27,0.06,
2.382,-2.40,-1.72,-0.78,0.80,-0.27,0.06,
2.383,-2.40,-1.72,-0.78,0.80,-0.27,0.06,
2.387,-2.40,-1.72,-0.78,0.66,-0.47,0.15,
2.388,-2.40,-1.72,-0.78,0.66,-0.47,0.15,
2.388,-2.57,-1.87,-0.70,0.66,-0.47,0.15,
2.389,-2.57,-1.87,-0.70,0.66,-0.47,0.15,
2.394,-2.57,-1.87,-0.70,0.44,-0.66,0.30,
2.395,-2.57,-1.87,-0.70,0.44,-0.66,0.30,
2.395,-2.68,-1.95,-0.48,0.44,-0.66,0.30,
2.396,-2.68,-1.95,-0.48,0.44,-0.66,0.30,
2.403,-2.68,-1.95,-0.48,0.08,-0.79,0.48,
2.404,-2.68,-1.95,-0.48,0.08,-0.79,0.48,
2.404,-2.88,-2.01,-0.17,0.08,-0.79,0.48,
2.405,-2.88,-2.01,-0.17,0.08,-0.79,0.48,
2.413,-2.88,-2.01,-0.17,-0.16,-0.84,0.69,
2.414,-2.88,-2.01,-0.17,-0.16,-0.84,0.69,
2.414,-3.06,-2.05,0.06,-0.16,-0.84,0.69,
2.414,-3.06,-2.05,0.06,-0.16,-0.84,0.69,
2.423,-3.06,-2.05,0.06,-0.28,-0.78,0.90,
2.424,-3.06,-2.05,0.06,-0.28,-0.78,0.90,
2.424,-3.26,-2.06,0.21,-0.28,-0.78,0.90,
2.424,-3.26,-2.06,0.21,-0.28,-0.78,0.90,
2.433,-3.26,-2.06,0.21,-0.30,-0.63,1.11,
2.434,-3.26,-2.06,0.21,-0.30,-0.63,1.11,
2.434,-3.47,-2.11,0.28,-0.30,-0.63,1.11,
2.435,-3.47,-2.11,0.28,-0.30,-0.63,1.11,
2.441,-3.47,-2.11,0.28,-0.25,-0.44,1.31,
2.443,-3.47,-2.11,0.28,-0.25,-0.44,1.31,
2.444,-3.51,-1.96,0.21,-0.25,-0.44,1.31,
2.445,-3.51,-1.96,0.21,-0.25,-0.44,1.31,
2.452,-3.51,-1.96,0.21,-0.17,-0.26,1.50,
2.453,-3.51,-1.96,0.21,-0.17,-0.26,1.50,
2.453,-3.68,-0.25,0.09,-0.17,-0.26,1.50,
2.453,-3.68,-0.25,0.09,-0.17,-0.26,1.50,
2.461,-3.68,-0.25,0.09,-0.09,-0.12,1.64,
2.461,-3.68,-0.25,0.09,-0.09,-0.12,1.64,
2.462,-4.16,3.91,-0.21,-0.09,-0.12,1.64,
2.462,-4.16,3.91,-0.21,-0.09,-0.12,1.64,
2.471,-4.16,3.91,-0.21,-0.04,-0.07,1.64,
2.472,-4.16,3.91,-0.21,-0.04,-0.07,1.64,
2.472,-4.49,6.69,-0.29,-0.04,-0.07,1.64,
2.473,-4.49,6.69,-0.29,-0.04,-0.07,1.64,
2.48,-4.49,6.69,-0.29,-0.04,-0.07,1.64,
2.481,-4.49,6.69,-0.29,-0.04,-0.07,1.64,
2.481,-4.49,6.69,-0.29,-0.04,-0.07,1.64,
2.482,-4.49,6.69,-0.29,-0.04,-0.07,1.64,
2.49,-4.49,6.69,-0.29,-0.03,-0.13,1.43,
2.491,-4.49,6.69,-0.29,-0.03,-0.13,1.43,
2.492,-5.00,8.89,1.81,-0.03,-0.13,1.43,
2.493,-5.00,8.89,1.81,-0.03,-0.13,1.43,
2.498,-5.00,8.89,1.81,0.03,-0.29,0.97,
2.499,-5.00,8.89,1.81,0.03,-0.29,0.97,
2.5,-4.99,5.73,2.20,0.03,-0.29,0.97,
2.5,-4.99,5.73,2.20,0.03,-0.29,0.97,
2.508,-4.99,5.73,2.20,0.32,-0.40,0.39,
2.509,-4.99,5.73,2.20,0.32,-0.40,0.39,
2.51,-5.20,3.48,2.23,0.32,-0.40,0.39,
2.51,-5.20,3.48,2.23,0.32,-0.40,0.39,
2.519,-5.20,3.48,2.23,0.97,-0.28,-0.03,
2.52,-5.20,3.48,2.23,0.97,-0.28,-0.03,
2.52,-5.67,1.42,1.73,0.97,-0.28,-0.03,
2.521,-5.67,1.42,1.73,0.97,-0.28,-0.03,
2.527,-5.67,1.42,1.73,1.78,0.16,0.09,
2.528,-5.67,1.42,1.73,1.78,0.16,0.09,
2.528,-6.09,-0.33,1.23,1.78,0.16,0.09,
2.528,-6.09,-0.33,1.23,1.78,0.16,0.09,
2.536,-6.09,-0.33,1.23,2.26,0.71,0.88,
2.537,-6.09,-0.33,1.23,2.26,0.71,0.88,
2.537,-6.23,-0.42,0.98,2.26,0.71,0.88,
2.538,-6.23,-0.42,0.98,2.26,0.71,0.88,
2.546,-6.23,-0.42,0.98,2.16,1.16,2.08,
2.547,-6.23,-0.42,0.98,2.16,1.16,2.08,
2.548,-6.16,-0.48,1.08,2.16,1.16,2.08,
2.549,-6.16,-0.48,1.08,2.16,1.16,2.08,
2.556,-6.16,-0.48,1.08,1.67,1.39,3.20,
2.558,-6.16,-0.48,1.08,1.67,1.39,3.20,
2.558,-5.99,-0.37,1.35,1.67,1.39,3.20,
2.559,-5.99,-0.37,1.35,1.67,1.39,3.20,
2.565,-5.99,-0.37,1.35,1.16,1.38,3.92,
2.566,-5.99,-0.37,1.35,1.16,1.38,3.92,
2.567,-5.74,-0.17,1.58,1.16,1.38,3.92,
2.568,-5.74,-0.17,1.58,1.16,1.38,3.92,
2.575,-5.74,-0.17,1.58,0.81,1.15,4.20,
2.576,-5.74,-0.17,1.58,0.81,1.15,4.20,
2.577,-5.57,-0.02,1.60,0.81,1.15,4.20,
2.577,-5.57,-0.02,1.60,0.81,1.15,4.20,
2.588,-5.57,-0.02,1.60,0.65,0.80,4.15,
2.589,-5.57,-0.02,1.60,0.65,0.80,4.15,
2.59,-5.55,0.10,1.27,0.65,0.80,4.15,
2.59,-5.55,0.10,1.27,0.65,0.80,4.15,
2.594,-5.55,0.10,1.27,0.60,0.42,3.90,
2.595,-5.55,0.10,1.27,0.60,0.42,3.90,
2.595,-5.52,-0.04,0.84,0.60,0.42,3.90,
2.596,-5.52,-0.04,0.84,0.60,0.42,3.90,
2.603,-5.52,-0.04,0.84,0.53,0.06,3.56,
2.604,-5.52,-0.04,0.84,0.53,0.06,3.56,
2.605,-5.72,-0.45,0.42,0.53,0.06,3.56,
2.605,-5.72,-0.45,0.42,0.53,0.06,3.56,
2.613,-5.72,-0.45,0.42,0.36,-0.24,3.23,
2.614,-5.72,-0.45,0.42,0.36,-0.24,3.23,
2.618,-5.84,-0.98,0.07,0.36,-0.24,3.23,
2.618,-5.84,-0.98,0.07,0.36,-0.24,3.23,
2.622,-5.84,-0.98,0.07,0.07,-0.46,2.96,
2.624,-5.84,-0.98,0.07,0.07,-0.46,2.96,
2.625,-5.73,-2.28,-0.05,0.07,-0.46,2.96,
2.626,-5.73,-2.28,-0.05,0.07,-0.46,2.96,
2.632,-5.73,-2.28,-0.05,-0.29,-0.62,2.75,
2.633,-5.73,-2.28,-0.05,-0.29,-0.62,2.75,
2.633,-5.57,-2.20,0.05,-0.29,-0.62,2.75,
2.634,-5.57,-2.20,0.05,-0.29,-0.62,2.75,
2.641,-5.57,-2.20,0.05,-0.64,-0.67,2.57,
2.642,-5.57,-2.20,0.05,-0.64,-0.67,2.57,
2.642,-5.18,-1.93,0.36,-0.64,-0.67,2.57,
2.643,-5.18,-1.93,0.36,-0.64,-0.67,2.57,
2.651,-5.18,-1.93,0.36,-0.89,-0.72,2.37,
2.652,-5.18,-1.93,0.36,-0.89,-0.72,2.37,
2.652,-4.90,-1.49,2.16,-0.89,-0.72,2.37,
2.653,-4.90,-1.49,2.16,-0.89,-0.72,2.37,
2.661,-4.90,-1.49,2.16,-0.94,-0.84,2.12,
2.662,-4.90,-1.49,2.16,-0.94,-0.84,2.12,
2.662,-4.85,-0.94,2.46,-0.94,-0.84,2.12,
2.663,-4.85,-0.94,2.46,-0.94,-0.84,2.12,
2.67,-4.85,-0.94,2.46,-0.70,-0.95,1.84,
2.672,-4.85,-0.94,2.46,-0.70,-0.95,1.84,
2.672,-4.83,0.82,2.71,-0.70,-0.95,1.84,
2.673,-4.83,0.82,2.71,-0.70,-0.95,1.84,
2.68,-4.83,0.82,2.71,-0.70,-0.95,1.84,
2.681,-4.83,0.82,2.71,-0.70,-0.95,1.84,
2.682,-4.83,0.82,2.71,-0.70,-0.95,1.84,
2.682,-4.83,0.82,2.71,-0.70,-0.95,1.84,
2.691,-4.83,0.82,2.71,-0.23,-1.05,1.58,
2.692,-4.83,0.82,2.71,-0.23,-1.05,1.58,
2.692,-4.80,0.09,1.11,-0.23,-1.05,1.58,
2.693,-4.80,0.09,1.11,-0.23,-1.05,1.58,
2.698,-4.80,0.09,1.11,0.27,-1.11,1.39,
2.699,-4.80,0.09,1.11,0.27,-1.11,1.39,
2.699,-4.97,-7.53,-0.56,0.27,-1.11,1.39,
2.7,-4.97,-7.53,-0.56,0.27,-1.11,1.39,
2.708,-4.97,-7.53,-0.56,0.48,-1.14,1.26,
2.709,-4.97,-7.53,-0.56,0.48,-1.14,1.26,
2.709,-4.95,-15.68,-1.10,0.48,-1.14,1.26,
2.71,-4.95,-15.68,-1.10,0.48,-1.14,1.26,
2.718,-4.95,-15.68,-1.10,0.19,-1.14,1.14,
2.719,-4.95,-15.68,-1.10,0.19,-1.14,1.14,
2.72,-2.71,-20.33,-1.65,0.19,-1.14,1.14,
2.72,-2.71,-20.33,-1.65,0.19,-1.14,1.14,
2.727,-2.71,-20.33,-1.65,-0.46,-1.20,0.92,
2.728,-2.71,-20.33,-1.65,-0.46,-1.20,0.92,
2.729,-0.73,-18.92,-1.53,-0.46,-1.20,0.92,
2.729,-0.73,-18.92,-1.53,-0.46,-1.20,0.92,
2.736,-0.73,-18.92,-1.53,-1.10,-1.04,0.53,
2.738,-0.73,-18.92,-1.53,-1.10,-1.04,0.53,
2.738,1.33,-11.30,0.22,-1.10,-1.04,0.53,
2.739,1.33,-11.30,0.22,-1.10,-1.04,0.53,
2.746,1.33,-11.30,0.22,-1.14,-1.07,0.00,
2.747,1.33,-11.30,0.22,-1.14,-1.07,0.00,
2.748,1.59,-3.12,0.50,-1.14,-1.07,0.00,
2.748,1.59,-3.12,0.50,-1.14,-1.07,0.00,
2.756,1.59,-3.12,0.50,-0.90,-1.53,-0.58,
2.757,1.59,-3.12,0.50,-0.90,-1.53,-0.58,
2.757,-0.13,1.55,0.68,-0.90,-1.53,-0.58,
2.758,-0.13,1.55,0.68,-0.90,-1.53,-0.58,
2.765,-0.13,1.55,0.68,-0.75,-1.89,-1.12,
2.766,-0.13,1.55,0.68,-0.75,-1.89,-1.12,
2.767,-0.46,3.67,0.54,-0.75,-1.89,-1.12,
2.767,-0.46,3.67,0.54,-0.75,-1.89,-1.12,
2.775,-0.46,3.67,0.54,-0.48,-2.10,-1.51,
2.776,-0.46,3.67,0.54,-0.48,-2.10,-1.51,
2.776,-1.95,3.93,0.33,-0.48,-2.10,-1.51,
2.777,-1.95,3.93,0.33,-0.48,-2.10,-1.51,
2.79,-1.95,3.93,0.33,-0.19,-2.13,-1.69,
2.791,-1.95,3.93,0.33,-0.19,-2.13,-1.69,
2.791,-2.25,3.93,0.29,-0.19,-2.13,-1.69,
2.792,-2.25,3.93,0.29,-0.19,-2.13,-1.69,
2.794,-2.25,3.93,0.29,0.05,-2.02,-1.61,
2.795,-2.25,3.93,0.29,0.05,-2.02,-1.61,
2.795,-3.79,2.33,0.50,0.05,-2.02,-1.61,
2.796,-3.79,2.33,0.50,0.05,-2.02,-1.61,
2.803,-3.79,2.33,0.50,0.23,-1.77,-1.26,
2.804,-3.79,2.33,0.50,0.23,-1.77,-1.26,
2.805,-3.81,0.79,0.81,0.23,-1.77,-1.26,
2.805,-3.81,0.79,0.81,0.23,-1.77,-1.26,
2.813,-3.81,0.79,0.81,0.19,-1.39,-0.62,
2.814,-3.81,0.79,0.81,0.19,-1.39,-0.62,
2.814,-3.56,0.63,0.98,0.19,-1.39,-0.62,
2.815,-3.56,0.63,0.98,0.19,-1.39,-0.62,
2.822,-3.56,0.63,0.98,0.18,-0.93,0.20,
2.823,-3.56,0.63,0.98,0.18,-0.93,0.20,
2.824,-3.20,0.29,1.35,0.18,-0.93,0.20,
2.825,-3.20,0.29,1.35,0.18,-0.93,0.20,
2.832,-3.20,0.29,1.35,0.41,-0.47,0.99,
2.833,-3.20,0.29,1.35,0.41,-0.47,0.99,
2.834,-2.89,-0.05,1.62,0.41,-0.47,0.99,
2.834,-2.89,-0.05,1.62,0.41,-0.47,0.99,
2.841,-2.89,-0.05,1.62,0.54,-0.10,1.56,
2.842,-2.89,-0.05,1.62,0.54,-0.10,1.56,
2.843,-2.60,-0.15,1.54,0.54,-0.10,1.56,
2.843,-2.60,-0.15,1.54,0.54,-0.10,1.56,
2.852,-2.60,-0.15,1.54,0.56,0.15,1.85,
2.853,-2.60,-0.15,1.54,0.56,0.15,1.85,
2.86,-2.57,-0.24,1.31,0.56,0.15,1.85,
2.86,-2.57,-0.24,1.31,0.56,0.15,1.85,
2.861,-2.57,-0.24,1.31,0.68,0.31,1.94,
2.861,-2.57,-0.24,1.31,0.68,0.31,1.94,
2.862,-2.48,-0.11,-0.43,0.68,0.31,1.94,
2.862,-2.48,-0.11,-0.43,0.68,0.31,1.94,
2.87,-2.48,-0.11,-0.43,0.80,0.41,1.91,
2.871,-2.48,-0.11,-0.43,0.80,0.41,1.91,
2.872,-2.29,0.03,-0.54,0.80,0.41,1.91,
2.872,-2.29,0.03,-0.54,0.80,0.41,1.91,
2.88,-2.29,0.03,-0.54,0.80,0.41,1.91,
2.88,-2.29,0.03,-0.54,0.80,0.41,1.91,
2.881,-2.29,0.03,-0.54,0.80,0.41,1.91,
2.882,-2.29,0.03,-0.54,0.80,0.41,1.91,
2.89,-2.29,0.03,-0.54,0.68,0.48,1.83,
2.89,-2.29,0.03,-0.54,0.68,0.48,1.83,
2.891,-1.84,0.46,-0.22,0.68,0.48,1.83,
2.892,-1.84,0.46,-0.22,0.68,0.48,1.83,
2.898,-1.84,0.46,-0.22,0.37,0.53,1.71,
2.899,-1.84,0.46,-0.22,0.37,0.53,1.71,
2.9,-1.68,0.42,0.13,0.37,0.53,1.71,
2.9,-1.68,0.42,0.13,0.37,0.53,1.71,
2.908,-1.68,0.42,0.13,0.04,0.55,1.56,
2.909,-1.68,0.42,0.13,0.04,0.55,1.56,
2.909,-1.52,0.49,0.40,0.04,0.55,1.56,
2.91,-1.52,0.49,0.40,0.04,0.55,1.56,
2.918,-1.52,0.49,0.40,-0.16,0.52,1.38,
2.919,-1.52,0.49,0.40,-0.16,0.52,1.38,
2.92,-1.38,0.35,0.59,-0.16,0.52,1.38,
2.92,-1.38,0.35,0.59,-0.16,0.52,1.38,
2.927,-1.38,0.35,0.59,-0.18,0.47,1.19,
2.927,-1.38,0.35,0.59,-0.18,0.47,1.19,
2.928,-1.32,0.15,0.77,-0.18,0.47,1.19,
2.928,-1.32,0.15,0.77,-0.18,0.47,1.19,
2.936,-1.32,0.15,0.77,-0.09,0.42,1.01,
2.937,-1.32,0.15,0.77,-0.09,0.42,1.01,
2.938,-1.10,0.30,0.84,-0.09,0.42,1.01,
2.939,-1.10,0.30,0.84,-0.09,0.42,1.01,
2.946,-1.10,0.30,0.84,0.06,0.36,0.84,
2.947,-1.10,0.30,0.84,0.06,0.36,0.84,
2.948,-0.89,0.45,0.83,0.06,0.36,0.84,
2.948,-0.89,0.45,0.83,0.06,0.36,0.84,
2.955,-0.89,0.45,0.83,0.21,0.31,0.68,
2.957,-0.89,0.45,0.83,0.21,0.31,0.68,
2.957,-0.76,0.46,0.75,0.21,0.31,0.68,
2.958,-0.76,0.46,0.75,0.21,0.31,0.68,
2.966,-0.76,0.46,0.75,0.35,0.25,0.53,
2.967,-0.76,0.46,0.75,0.35,0.25,0.53,
2.968,-0.54,0.44,0.62,0.35,0.25,0.53,
2.968,-0.54,0.44,0.62,0.35,0.25,0.53,
2.975,-0.54,0.44,0.62,0.43,0.19,0.39,
2.975,-0.54,0.44,0.62,0.43,0.19,0.39,
2.976,-0.38,0.20,0.48,0.43,0.19,0.39,
2.977,-0.38,0.20,0.48,0.43,0.19,0.39,
2.99,-0.38,0.20,0.48,0.46,0.12,0.24,
2.991,-0.38,0.20,0.48,0.46,0.12,0.24,
2.992,-0.18,-0.00,0.37,0.46,0.12,0.24,
2.992,-0.18,-0.00,0.37,0.46,0.12,0.24,
2.994,-0.18,-0.00,0.37,0.42,0.04,0.09,
2.995,-0.18,-0.00,0.37,0.42,0.04,0.09,
2.996,0.03,-0.04,0.26,0.42,0.04,0.09,
2.997,0.03,-0.04,0.26,0.42,0.04,0.09,
3.003,0.03,-0.04,0.26,0.33,-0.04,-0.06,
3.004,0.03,-0.04,0.26,0.33,-0.04,-0.06,
3.005,0.14,-0.04,0.15,0.33,-0.04,-0.06,
3.005,0.14,-0.04,0.15,0.33,-0.04,-0.06,
3.012,0.14,-0.04,0.15,0.21,-0.12,-0.21,
3.013,0.14,-0.04,0.15,0.21,-0.12,-0.21,
3.014,0.21,-0.08,0.03,0.21,-0.12,-0.21,
3.015,0.21,-0.08,0.03,0.21,-0.12,-0.21,
3.035,0.21,-0.08,0.03,0.08,-0.19,-0.35,
3.036,0.21,-0.08,0.03,0.08,-0.19,-0.35,
3.037,0.32,-0.10,-0.09,0.08,-0.19,-0.35,
3.037,0.32,-0.10,-0.09,0.08,-0.19,-0.35,
3.038,0.32,-0.10,-0.09,-0.05,-0.25,-0.45,
3.038,0.32,-0.10,-0.09,-0.05,-0.25,-0.45,
3.039,0.32,-0.10,-0.09,-0.05,-0.25,-0.45,
3.04,0.39,-0.07,-0.16,-0.05,-0.25,-0.45,
3.04,0.39,-0.07,-0.16,-0.05,-0.25,-0.45,
3.041,0.39,-0.07,-0.16,-0.05,-0.25,-0.45,
3.046,0.39,-0.07,-0.16,-0.17,-0.30,-0.53,
3.047,0.39,-0.07,-0.16,-0.17,-0.30,-0.53,
3.047,0.29,0.11,0.09,-0.17,-0.30,-0.53,
3.048,0.29,0.11,0.09,-0.17,-0.30,-0.53,
3.058,0.29,0.11,0.09,-0.26,-0.33,-0.57,
3.059,0.29,0.11,0.09,-0.26,-0.33,-0.57,
3.06,0.12,0.28,0.32,-0.26,-0.33,-0.57,
3.06,0.12,0.28,0.32,-0.26,-0.33,-0.57,
3.065,0.12,0.28,0.32,-0.30,-0.35,-0.56,
3.066,0.12,0.28,0.32,-0.30,-0.35,-0.56,
3.066,-0.13,0.38,0.42,-0.30,-0.35,-0.56,
3.067,-0.13,0.38,0.42,-0.30,-0.35,-0.56,
3.075,-0.13,0.38,0.42,-0.26,-0.34,-0.49,
3.076,-0.13,0.38,0.42,-0.26,-0.34,-0.49,
3.077,-0.29,0.35,0.36,-0.26,-0.34,-0.49,
3.078,-0.29,0.35,0.36,-0.26,-0.34,-0.49,
3.09,-0.29,0.35,0.36,-0.17,-0.30,-0.36,
3.091,-0.29,0.35,0.36,-0.17,-0.30,-0.36,
3.092,-0.35,0.27,0.13,-0.17,-0.30,-0.36,
3.093,-0.35,0.27,0.13,-0.17,-0.30,-0.36,
3.1,-0.35,0.27,0.13,-0.07,-0.26,-0.18,
3.101,-0.35,0.27,0.13,-0.07,-0.26,-0.18,
3.102,-0.33,0.17,-0.08,-0.07,-0.26,-0.18,
3.102,-0.33,0.17,-0.08,-0.07,-0.26,-0.18,
3.103,-0.33,0.17,-0.08,-0.01,-0.20,0.01,
3.104,-0.33,0.17,-0.08,-0.01,-0.20,0.01,
3.104,-0.25,0.13,-0.10,-0.01,-0.20,0.01,
3.105,-0.25,0.13,-0.10,-0.01,-0.20,0.01,
3.112,-0.25,0.13,-0.10,-0.01,-0.13,0.18,
3.114,-0.25,0.13,-0.10,-0.01,-0.13,0.18,
3.114,-0.15,0.13,-0.04,-0.01,-0.13,0.18,
3.115,-0.15,0.13,-0.04,-0.01,-0.13,0.18,
3.122,-0.15,0.13,-0.04,-0.06,-0.08,0.28,
3.123,-0.15,0.13,-0.04,-0.06,-0.08,0.28,
3.124,-0.05,0.16,0.05,-0.06,-0.08,0.28,
3.124,-0.05,0.16,0.05,-0.06,-0.08,0.28,
3.132,-0.05,0.16,0.05,-0.11,-0.05,0.34,
3.133,-0.05,0.16,0.05,-0.11,-0.05,0.34,
3.134,0.06,0.20,0.10,-0.11,-0.05,0.34,
3.134,0.06,0.20,0.10,-0.11,-0.05,0.34,
3.141,0.06,0.20,0.10,-0.13,-0.04,0.34,
3.142,0.06,0.20,0.10,-0.13,-0.04,0.34,
3.143,0.13,0.21,0.07,-0.13,-0.04,0.34,
3.144,0.13,0.21,0.07,-0.13,-0.04,0.34,
3.152,0.13,0.21,0.07,-0.12,-0.03,0.30,
3.154,0.13,0.21,0.07,-0.12,-0.03,0.30,
3.155,0.17,0.20,0.06,-0.12,-0.03,0.30,
3.156,0.17,0.20,0.06,-0.12,-0.03,0.30,
3.161,0.17,0.20,0.06,-0.09,-0.03,0.24,
3.161,0.17,0.20,0.06,-0.09,-0.03,0.24,
3.162,0.17,0.14,0.09,-0.09,-0.03,0.24,
3.163,0.17,0.14,0.09,-0.09,-0.03,0.24,
3.17,0.17,0.14,0.09,-0.09,-0.03,0.24,
3.171,0.17,0.14,0.09,-0.09,-0.03,0.24,
3.171,0.17,0.14,0.09,-0.09,-0.03,0.24,
3.172,0.17,0.14,0.09,-0.09,-0.03,0.24,
3.179,0.17,0.14,0.09,-0.06,-0.04,0.18,
3.18,0.17,0.14,0.09,-0.06,-0.04,0.18,
3.181,0.06,0.17,0.15,-0.06,-0.04,0.18,
3.181,0.06,0.17,0.15,-0.06,-0.04,0.18,
3.189,0.06,0.17,0.15,-0.03,-0.07,0.14,
3.19,0.06,0.17,0.15,-0.03,-0.07,0.14,
3.19,0.03,0.24,0.12,-0.03,-0.07,0.14,
3.191,0.03,0.24,0.12,-0.03,-0.07,0.14,
3.198,0.03,0.24,0.12,-0.00,-0.08,0.12,
3.199,0.03,0.24,0.12,-0.00,-0.08,0.12,
3.2,0.02,0.30,0.06,-0.00,-0.08,0.12,
3.201,0.02,0.30,0.06,-0.00,-0.08,0.12,
3.209,0.02,0.30,0.06,0.03,-0.07,0.12,
3.21,0.02,0.30,0.06,0.03,-0.07,0.12,
3.21,0.00,0.31,-0.01,0.03,-0.07,0.12,
3.211,0.00,0.31,-0.01,0.03,-0.07,0.12,
3.218,0.00,0.31,-0.01,0.06,-0.05,0.14,
3.219,0.00,0.31,-0.01,0.06,-0.05,0.14,
3.219,-0.04,0.25,-0.06,0.06,-0.05,0.14,
3.22,-0.04,0.25,-0.06,0.06,-0.05,0.14,
3.227,-0.04,0.25,-0.06,0.06,-0.01,0.16,
3.228,-0.04,0.25,-0.06,0.06,-0.01,0.16,
3.228,-0.10,0.17,-0.11,0.06,-0.01,0.16,
3.229,-0.10,0.17,-0.11,0.06,-0.01,0.16,
3.236,-0.10,0.17,-0.11,0.05,0.02,0.18,
3.237,-0.10,0.17,-0.11,0.05,0.02,0.18,
3.238,-0.17,0.13,-0.18,0.05,0.02,0.18,
3.239,-0.17,0.13,-0.18,0.05,0.02,0.18,
3.246,-0.17,0.13,-0.18,0.02,0.04,0.21,
3.247,-0.17,0.13,-0.18,0.02,0.04,0.21,
3.248,-0.19,0.11,-0.23,0.02,0.04,0.21,
3.249,-0.19,0.11,-0.23,0.02,0.04,0.21,
3.255,-0.19,0.11,-0.23,-0.02,0.06,0.23,
3.256,-0.19,0.11,-0.23,-0.02,0.06,0.23,
3.257,-0.15,0.13,-0.27,-0.02,0.06,0.23,
3.258,-0.15,0.13,-0.27,-0.02,0.06,0.23,
3.265,-0.15,0.13,-0.27,-0.06,0.07,0.25,
3.266,-0.15,0.13,-0.27,-0.06,0.07,0.25,
3.266,-0.05,0.15,-0.27,-0.06,0.07,0.25,
3.267,-0.05,0.15,-0.27,-0.06,0.07,0.25,
3.274,-0.05,0.15,-0.27,-0.11,0.06,0.26,
3.276,-0.05,0.15,-0.27,-0.11,0.06,0.26,
3.276,0.11,0.16,-0.23,-0.11,0.06,0.26,
3.277,0.11,0.16,-0.23,-0.11,0.06,0.26,
3.29,0.11,0.16,-0.23,-0.14,0.05,0.24,
3.291,0.11,0.16,-0.23,-0.14,0.05,0.24,
3.292,0.20,0.15,-0.20,-0.14,0.05,0.24,
3.293,0.20,0.15,-0.20,-0.14,0.05,0.24,
3.296,0.20,0.15,-0.20,-0.16,0.03,0.18,
3.297,0.20,0.15,-0.20,-0.16,0.03,0.18,
3.297,0.27,0.18,-0.15,-0.16,0.03,0.18,
3.298,0.27,0.18,-0.15,-0.16,0.03,0.18,
3.303,0.27,0.18,-0.15,-0.16,-0.01,0.10,
3.304,0.27,0.18,-0.15,-0.16,-0.01,0.10,
3.304,0.30,0.22,-0.17,-0.16,-0.01,0.10,
3.305,0.30,0.22,-0.17,-0.16,-0.01,0.10,
3.313,0.30,0.22,-0.17,-0.15,-0.05,0.00,
3.313,0.30,0.22,-0.17,-0.15,-0.05,0.00,
3.314,0.30,0.20,-0.20,-0.15,-0.05,0.00,
3.315,0.30,0.20,-0.20,-0.15,-0.05,0.00,
3.322,0.30,0.20,-0.20,-0.13,-0.08,-0.08,
3.323,0.30,0.20,-0.20,-0.13,-0.08,-0.08,
3.324,0.34,0.20,-0.16,-0.13,-0.08,-0.08,
3.324,0.34,0.20,-0.16,-0.13,-0.08,-0.08,
3.332,0.34,0.20,-0.16,-0.10,-0.11,-0.15,
3.332,0.34,0.20,-0.16,-0.10,-0.11,-0.15,
3.333,0.38,0.21,0.04,-0.10,-0.11,-0.15,
3.333,0.38,0.21,0.04,-0.10,-0.11,-0.15,
3.341,0.38,0.21,0.04,-0.08,-0.15,-0.20,
3.342,0.38,0.21,0.04,-0.08,-0.15,-0.20,
3.343,0.28,0.21,0.38,-0.08,-0.15,-0.20,
3.343,0.28,0.21,0.38,-0.08,-0.15,-0.20,
3.351,0.28,0.21,0.38,-0.03,-0.18,-0.23,
3.352,0.28,0.21,0.38,-0.03,-0.18,-0.23,
3.353,0.09,0.14,0.52,-0.03,-0.18,-0.23,
3.353,0.09,0.14,0.52,-0.03,-0.18,-0.23,
3.36,0.09,0.14,0.52,0.05,-0.19,-0.23,
3.361,0.09,0.14,0.52,0.05,-0.19,-0.23,
3.362,0.03,0.08,0.19,0.05,-0.19,-0.23,
3.362,0.03,0.08,0.19,0.05,-0.19,-0.23,
3.37,0.03,0.08,0.19,0.05,-0.19,-0.23,
3.371,0.03,0.08,0.19,0.05,-0.19,-0.23,
3.372,0.03,0.08,0.19,0.05,-0.19,-0.23,
3.372,0.03,0.08,0.19,0.05,-0.19,-0.23,
3.379,0.03,0.08,0.19,0.17,-0.16,-0.21,
3.38,0.03,0.08,0.19,0.17,-0.16,-0.21,
3.381,0.10,-0.12,-1.65,0.17,-0.16,-0.21,
3.382,0.10,-0.12,-1.65,0.17,-0.16,-0.21,
3.389,0.10,-0.12,-1.65,0.20,-0.10,-0.17,
3.39,0.10,-0.12,-1.65,0.20,-0.10,-0.17,
3.39,0.30,-0.12,-1.66,0.20,-0.10,-0.17,
3.391,0.30,-0.12,-1.66,0.20,-0.10,-0.17,
3.398,0.30,-0.12,-1.66,0.02,-0.05,-0.13,
3.399,0.30,-0.12,-1.66,0.02,-0.05,-0.13,
3.4,0.32,-0.08,-1.16,0.02,-0.05,-0.13,
3.4,0.32,-0.08,-1.16,0.02,-0.05,-0.13,
3.407,0.32,-0.08,-1.16,-0.33,-0.02,-0.11,
3.408,0.32,-0.08,-1.16,-0.33,-0.02,-0.11,
3.409,0.27,-0.02,0.36,-0.33,-0.02,-0.11,
3.41,0.27,-0.02,0.36,-0.33,-0.02,-0.11,
3.417,0.27,-0.02,0.36,-0.65,-0.03,-0.12,
3.418,0.27,-0.02,0.36,-0.65,-0.03,-0.12,
3.419,0.21,0.09,0.52,-0.65,-0.03,-0.12,
3.419,0.21,0.09,0.52,-0.65,-0.03,-0.12,
3.428,0.21,0.09,0.52,-0.68,-0.07,-0.14,
3.429,0.21,0.09,0.52,-0.68,-0.07,-0.14,
3.429,0.09,0.19,0.54,-0.68,-0.07,-0.14,
3.43,0.09,0.19,0.54,-0.68,-0.07,-0.14,
3.436,0.09,0.19,0.54,-0.43,-0.12,-0.14,
3.437,0.09,0.19,0.54,-0.43,-0.12,-0.14,
3.438,-0.07,0.22,0.48,-0.43,-0.12,-0.14,
3.439,-0.07,0.22,0.48,-0.43,-0.12,-0.14,
3.446,-0.07,0.22,0.48,-0.08,-0.15,-0.11,
3.447,-0.07,0.22,0.48,-0.08,-0.15,-0.11,
3.448,-0.25,0.19,0.42,-0.08,-0.15,-0.11,
3.448,-0.25,0.19,0.42,-0.08,-0.15,-0.11,
3.456,-0.25,0.19,0.42,0.21,-0.15,-0.04,
3.457,-0.25,0.19,0.42,0.21,-0.15,-0.04,
3.457,-0.37,0.13,0.38,0.21,-0.15,-0.04,
3.458,-0.37,0.13,0.38,0.21,-0.15,-0.04,
3.465,-0.37,0.13,0.38,0.39,-0.12,0.05,
3.466,-0.37,0.13,0.38,0.39,-0.12,0.05,
3.466,-0.40,0.10,0.33,0.39,-0.12,0.05,
3.467,-0.40,0.10,0.33,0.39,-0.12,0.05,
3.475,-0.40,0.10,0.33,0.48,-0.07,0.16,
3.475,-0.40,0.10,0.33,0.48,-0.07,0.16,
3.476,-0.37,0.10,0.23,0.48,-0.07,0.16,
3.477,-0.37,0.10,0.23,0.48,-0.07,0.16,
3.489,-0.37,0.10,0.23,0.51,-0.02,0.26,
3.49,-0.37,0.10,0.23,0.51,-0.02,0.26,
3.491,-0.23,0.10,0.09,0.51,-0.02,0.26,
3.492,-0.23,0.10,0.09,0.51,-0.02,0.26,
3.494,-0.23,0.10,0.09,0.48,0.02,0.32,
3.494,-0.23,0.10,0.09,0.48,0.02,0.32,
3.495,-0.11,0.11,0.01,0.48,0.02,0.32,
3.495,-0.11,0.11,0.01,0.48,0.02,0.32,
3.503,-0.11,0.11,0.01,0.41,0.04,0.34,
3.504,-0.11,0.11,0.01,0.41,0.04,0.34,
3.504,-0.08,0.10,-0.01,0.41,0.04,0.34,
3.505,-0.08,0.10,-0.01,0.41,0.04,0.34,
3.512,-0.08,0.10,-0.01,0.30,0.03,0.32,
3.513,-0.08,0.10,-0.01,0.30,0.03,0.32,
3.514,-0.06,0.13,0.03,0.30,0.03,0.32,
3.515,-0.06,0.13,0.03,0.30,0.03,0.32,
3.522,-0.06,0.13,0.03,0.20,0.01,0.26,
3.524,-0.06,0.13,0.03,0.20,0.01,0.26,
3.524,-0.10,0.17,0.15,0.20,0.01,0.26,
3.525,-0.10,0.17,0.15,0.20,0.01,0.26,
3.531,-0.10,0.17,0.15,0.12,-0.00,0.20,
3.532,-0.10,0.17,0.15,0.12,-0.00,0.20,
3.533,-0.16,0.20,0.29,0.12,-0.00,0.20,
3.534,-0.16,0.20,0.29,0.12,-0.00,0.20,
3.541,-0.16,0.20,0.29,0.08,0.00,0.15,
3.542,-0.16,0.20,0.29,0.08,0.00,0.15,
3.543,-0.22,0.20,0.42,0.08,0.00,0.15,
3.543,-0.22,0.20,0.42,0.08,0.00,0.15,
3.551,-0.22,0.20,0.42,0.08,0.01,0.12,
3.552,-0.22,0.20,0.42,0.08,0.01,0.12,
3.552,-0.30,0.17,0.54,0.08,0.01,0.12,
3.553,-0.30,0.17,0.54,0.08,0.01,0.12,
3.56,-0.30,0.17,0.54,0.13,0.03,0.11,
3.561,-0.30,0.17,0.54,0.13,0.03,0.11,
3.562,-0.35,0.15,0.53,0.13,0.03,0.11,
3.562,-0.35,0.15,0.53,0.13,0.03,0.11,
3.57,-0.35,0.15,0.53,0.13,0.03,0.11,
3.571,-0.35,0.15,0.53,0.13,0.03,0.11,
3.572,-0.35,0.15,0.53,0.13,0.03,0.11,
3.573,-0.35,0.15,0.53,0.13,0.03,0.11,
3.579,-0.35,0.15,0.53,0.21,0.04,0.12,
3.58,-0.35,0.15,0.53,0.21,0.04,0.12,
3.581,-0.25,0.22,0.06,0.21,0.04,0.12,
3.581,-0.25,0.22,0.06,0.21,0.04,0.12,
3.589,-0.25,0.22,0.06,0.27,0.07,0.13,
3.59,-0.25,0.22,0.06,0.27,0.07,0.13,
3.59,-0.09,0.22,-0.27,0.27,0.07,0.13,
3.591,-0.09,0.22,-0.27,0.27,0.07,0.13,
3.598,-0.09,0.22,-0.27,0.26,0.11,0.14,
3.599,-0.09,0.22,-0.27,0.26,0.11,0.14,
3.599,0.05,0.19,-0.51,0.26,0.11,0.14,
3.599,0.05,0.19,-0.51,0.26,0.11,0.14,
3.608,0.05,0.19,-0.51,0.17,0.14,0.11,
3.609,0.05,0.19,-0.51,0.17,0.14,0.11,
3.609,0.14,0.13,-0.56,0.17,0.14,0.11,
3.609,0.14,0.13,-0.56,0.17,0.14,0.11,
3.617,0.14,0.13,-0.56,-0.01,0.15,0.06,
3.618,0.14,0.13,-0.56,-0.01,0.15,0.06,
3.618,0.18,0.07,-0.48,-0.01,0.15,0.06,
3.619,0.18,0.07,-0.48,-0.01,0.15,0.06,
3.627,0.18,0.07,-0.48,-0.20,0.14,-0.02,
3.627,0.18,0.07,-0.48,-0.20,0.14,-0.02,
3.628,0.14,0.07,-0.35,-0.20,0.14,-0.02,
3.629,0.14,0.07,-0.35,-0.20,0.14,-0.02,
3.637,0.14,0.07,-0.35,-0.35,0.12,-0.10,
3.638,0.14,0.07,-0.35,-0.35,0.12,-0.10,
3.638,0.03,0.09,-0.24,-0.35,0.12,-0.10,
3.639,0.03,0.09,-0.24,-0.35,0.12,-0.10,
3.646,0.03,0.09,-0.24,-0.42,0.10,-0.16,
3.647,0.03,0.09,-0.24,-0.42,0.10,-0.16,
3.647,-0.10,0.10,-0.20,-0.42,0.10,-0.16,
3.648,-0.10,0.10,-0.20,-0.42,0.10,-0.16,
3.655,-0.10,0.10,-0.20,-0.41,0.08,-0.18,
3.657,-0.10,0.10,-0.20,-0.41,0.08,-0.18,
3.658,-0.26,0.12,-0.21,-0.41,0.08,-0.18,
3.658,-0.26,0.12,-0.21,-0.41,0.08,-0.18,
3.665,-0.26,0.12,-0.21,-0.36,0.07,-0.16,
3.666,-0.26,0.12,-0.21,-0.36,0.07,-0.16,
3.667,-0.41,0.11,-0.21,-0.36,0.07,-0.16,
3.668,-0.41,0.11,-0.21,-0.36,0.07,-0.16,
3.674,-0.41,0.11,-0.21,-0.29,0.09,-0.10,
3.676,-0.41,0.11,-0.21,-0.29,0.09,-0.10,
3.676,-0.50,0.12,-0.24,-0.29,0.09,-0.10,
3.677,-0.50,0.12,-0.24,-0.29,0.09,-0.10,
3.687,-0.50,0.12,-0.24,-0.22,0.12,0.00,
3.688,-0.50,0.12,-0.24,-0.22,0.12,0.00,
3.688,-0.51,0.11,-0.33,-0.22,0.12,0.00,
3.688,-0.51,0.11,-0.33,-0.22,0.12,0.00,
3.694,-0.51,0.11,-0.33,-0.17,0.15,0.11,
3.695,-0.51,0.11,-0.33,-0.17,0.15,0.11,
3.695,-0.41,0.08,-0.48,-0.17,0.15,0.11,
3.695,-0.41,0.08,-0.48,-0.17,0.15,0.11,
3.703,-0.41,0.08,-0.48,-0.15,0.18,0.20,
3.704,-0.41,0.08,-0.48,-0.15,0.18,0.20,
3.704,-0.17,0.02,-0.71,-0.15,0.18,0.20,
3.705,-0.17,0.02,-0.71,-0.15,0.18,0.20,
3.712,-0.17,0.02,-0.71,-0.16,0.20,0.26,
3.713,-0.17,0.02,-0.71,-0.16,0.20,0.26,
3.714,0.21,-0.07,-0.94,-0.16,0.20,0.26,
3.714,0.21,-0.07,-0.94,-0.16,0.20,0.26,
3.722,0.21,-0.07,-0.94,-0.22,0.18,0.24,
3.724,0.21,-0.07,-0.94,-0.22,0.18,0.24,
3.725,0.72,-0.19,-1.10,-0.22,0.18,0.24,
3.726,0.72,-0.19,-1.10,-0.22,0.18,0.24,
3.732,0.72,-0.19,-1.10,-0.34,0.12,0.14,
3.732,0.72,-0.19,-1.10,-0.34,0.12,0.14,
3.733,1.29,-0.26,-1.15,-0.34,0.12,0.14,
3.733,1.29,-0.26,-1.15,-0.34,0.12,0.14,
3.742,1.29,-0.26,-1.15,-0.48,0.00,-0.06,
3.743,1.29,-0.26,-1.15,-0.48,0.00,-0.06,
3.743,1.72,-0.34,-1.08,-0.48,0.00,-0.06,
3.744,1.72,-0.34,-1.08,-0.48,0.00,-0.06,
3.751,1.72,-0.34,-1.08,-0.62,-0.17,-0.35,
3.752,1.72,-0.34,-1.08,-0.62,-0.17,-0.35,
3.752,1.95,-0.35,-0.89,-0.62,-0.17,-0.35,
3.752,1.95,-0.35,-0.89,-0.62,-0.17,-0.35,
3.761,1.95,-0.35,-0.89,-0.71,-0.39,-0.70,
3.761,1.95,-0.35,-0.89,-0.71,-0.39,-0.70,
3.761,1.90,-0.31,-0.65,-0.71,-0.39,-0.70,
3.762,1.90,-0.31,-0.65,-0.71,-0.39,-0.70,
3.769,1.90,-0.31,-0.65,-0.71,-0.39,-0.70,
3.77,1.90,-0.31,-0.65,-0.71,-0.39,-0.70,
3.77,1.90,-0.31,-0.65,-0.71,-0.39,-0.70,
3.771,1.90,-0.31,-0.65,-0.71,-0.39,-0.70,
3.779,1.90,-0.31,-0.65,-0.74,-0.60,-1.04,
3.78,1.90,-0.31,-0.65,-0.74,-0.60,-1.04,
3.78,1.17,-0.16,-0.28,-0.74,-0.60,-1.04,
3.781,1.17,-0.16,-0.28,-0.74,-0.60,-1.04,
3.792,1.17,-0.16,-0.28,-0.51,-0.81,-1.33,
3.793,1.17,-0.16,-0.28,-0.51,-0.81,-1.33,
3.793,0.73,0.00,-0.26,-0.51,-0.81,-1.33,
3.793,0.73,0.00,-0.26,-0.51,-0.81,-1.33,
3.798,0.73,0.00,-0.26,-0.51,-0.81,-1.33,
3.799,0.73,0.00,-0.26,-0.51,-0.81,-1.33,
3.799,0.73,0.00,-0.26,-0.51,-0.81,-1.33,
3.8,0.73,0.00,-0.26,-0.51,-0.81,-1.33,
3.81,0.73,0.00,-0.26,-0.31,-0.77,-1.20,
3.811,0.73,0.00,-0.26,-0.31,-0.77,-1.20,
3.811,-0.04,0.32,-0.42,-0.31,-0.77,-1.20,
3.812,-0.04,0.32,-0.42,-0.31,-0.77,-1.20,
3.822,-0.04,0.32,-0.42,-0.12,-0.67,-0.92,
3.823,-0.04,0.32,-0.42,-0.12,-0.67,-0.92,
3.823,-0.30,0.40,-0.51,-0.12,-0.67,-0.92,
3.824,-0.30,0.40,-0.51,-0.12,-0.67,-0.92,
3.827,-0.30,0.40,-0.51,-0.00,-0.52,-0.56,
3.827,-0.30,0.40,-0.51,-0.00,-0.52,-0.56,
3.827,-0.49,0.38,-0.58,-0.00,-0.52,-0.56,
3.828,-0.49,0.38,-0.58,-0.00,-0.52,-0.56,
3.836,-0.49,0.38,-0.58,0.06,-0.35,-0.16,
3.837,-0.49,0.38,-0.58,0.06,-0.35,-0.16,
3.837,-0.58,0.30,-0.63,0.06,-0.35,-0.16,
3.837,-0.58,0.30,-0.63,0.06,-0.35,-0.16,
3.846,-0.58,0.30,-0.63,0.06,-0.18,0.23,
3.846,-0.58,0.30,-0.63,0.06,-0.18,0.23,
3.847,-0.53,0.22,-0.66,0.06,-0.18,0.23,
3.847,-0.53,0.22,-0.66,0.06,-0.18,0.23,
3.856,-0.53,0.22,-0.66,0.03,-0.04,0.56,
3.858,-0.53,0.22,-0.66,0.03,-0.04,0.56,
3.858,-0.33,0.16,-0.65,0.03,-0.04,0.56,
3.859,-0.33,0.16,-0.65,0.03,-0.04,0.56,
3.865,-0.33,0.16,-0.65,-0.01,0.05,0.78,
3.866,-0.33,0.16,-0.65,-0.01,0.05,0.78,
3.866,0.02,0.11,-0.60,-0.01,0.05,0.78,
3.867,0.02,0.11,-0.60,-0.01,0.05,0.78,
3.874,0.02,0.11,-0.60,-0.06,0.07,0.88,
3.876,0.02,0.11,-0.60,-0.06,0.07,0.88,
3.877,0.39,0.10,-0.55,-0.06,0.07,0.88,
3.877,0.39,0.10,-0.55,-0.06,0.07,0.88,
3.892,0.39,0.10,-0.55,-0.10,0.04,0.84,
3.893,0.39,0.10,-0.55,-0.10,0.04,0.84,
3.895,0.74,0.10,-0.46,-0.10,0.04,0.84,
3.896,0.74,0.10,-0.46,-0.10,0.04,0.84,
3.897,0.74,0.10,-0.46,-0.13,-0.05,0.68,
3.897,0.74,0.10,-0.46,-0.13,-0.05,0.68,
3.897,1.04,0.14,-0.33,-0.13,-0.05,0.68,
3.898,1.04,0.14,-0.33,-0.13,-0.05,0.68,
3.903,1.04,0.14,-0.33,-0.14,-0.19,0.44,
3.904,1.04,0.14,-0.33,-0.14,-0.19,0.44,
3.904,1.22,0.21,-0.07,-0.14,-0.19,0.44,
3.905,1.22,0.21,-0.07,-0.14,-0.19,0.44,
3.913,1.22,0.21,-0.07,-0.12,-0.35,0.14,
3.913,1.22,0.21,-0.07,-0.12,-0.35,0.14,
3.914,1.36,0.25,0.28,-0.12,-0.35,0.14,
3.915,1.36,0.25,0.28,-0.12,-0.35,0.14,
3.922,1.36,0.25,0.28,-0.05,-0.52,-0.16,
3.923,1.36,0.25,0.28,-0.05,-0.52,-0.16,
3.924,1.36,0.29,0.66,-0.05,-0.52,-0.16,
3.924,1.36,0.29,0.66,-0.05,-0.52,-0.16,
3.932,1.36,0.29,0.66,0.08,-0.66,-0.42,
3.932,1.36,0.29,0.66,0.08,-0.66,-0.42,
3.933,1.22,0.31,1.01,0.08,-0.66,-0.42,
3.933,1.22,0.31,1.01,0.08,-0.66,-0.42,
3.941,1.22,0.31,1.01,0.27,-0.76,-0.62,
3.942,1.22,0.31,1.01,0.27,-0.76,-0.62,
3.942,0.93,0.32,1.17,0.27,-0.76,-0.62,
3.943,0.93,0.32,1.17,0.27,-0.76,-0.62,
3.951,0.93,0.32,1.17,0.51,-0.79,-0.72,
3.952,0.93,0.32,1.17,0.51,-0.79,-0.72,
3.952,0.54,0.37,1.19,0.51,-0.79,-0.72,
3.953,0.54,0.37,1.19,0.51,-0.79,-0.72,
3.96,0.54,0.37,1.19,0.51,-0.79,-0.72,
3.961,0.54,0.37,1.19,0.51,-0.79,-0.72,
3.962,0.54,0.37,1.19,0.51,-0.79,-0.72,
3.963,0.54,0.37,1.19,0.51,-0.79,-0.72,
3.97,0.54,0.37,1.19,0.75,-0.77,-0.71,
3.971,0.54,0.37,1.19,0.75,-0.77,-0.71,
3.972,-0.34,0.39,1.11,0.75,-0.77,-0.71,
3.973,-0.34,0.39,1.11,0.75,-0.77,-0.71,
3.98,-0.34,0.39,1.11,0.95,-0.69,-0.58,
3.981,-0.34,0.39,1.11,0.95,-0.69,-0.58,
3.981,-0.78,0.43,1.11,0.95,-0.69,-0.58,
3.982,-0.78,0.43,1.11,0.95,-0.69,-0.58,
3.989,-0.78,0.43,1.11,1.06,-0.52,-0.31,
3.99,-0.78,0.43,1.11,1.06,-0.52,-0.31,
3.991,-1.18,0.39,1.16,1.06,-0.52,-0.31,
3.992,-1.18,0.39,1.16,1.06,-0.52,-0.31,
3.998,-1.18,0.39,1.16,1.09,-0.29,0.07,
3.999,-1.18,0.39,1.16,1.09,-0.29,0.07,
4.0,-1.51,0.35,1.19,1.09,-0.29,0.07,
4.0,-1.51,0.35,1.19,1.09,-0.29,0.07,
4.008,-1.51,0.35,1.19,1.07,-0.03,0.49,
4.009,-1.51,0.35,1.19,1.07,-0.03,0.49,
4.01,-1.80,0.34,1.16,1.07,-0.03,0.49,
4.01,-1.80,0.34,1.16,1.07,-0.03,0.49,
4.021,-1.80,0.34,1.16,1.03,0.22,0.88,
4.023,-1.80,0.34,1.16,1.03,0.22,0.88,
4.023,-1.97,0.30,1.12,1.03,0.22,0.88,
4.024,-1.97,0.30,1.12,1.03,0.22,0.88,
4.04,-1.97,0.30,1.12,0.97,0.44,1.20,
4.041,-1.97,0.30,1.12,0.97,0.44,1.20,
4.042,-1.98,0.32,1.04,0.97,0.44,1.20,
4.043,-1.98,0.32,1.04,0.97,0.44,1.20,
4.043,-1.98,0.32,1.04,0.81,0.75,1.57,
4.044,-1.98,0.32,1.04,0.81,0.75,1.57,
4.045,-1.98,0.32,1.04,0.81,0.75,1.57,
4.045,-1.77,0.35,0.92,0.81,0.75,1.57,
4.051,-1.77,0.35,0.92,0.81,0.75,1.57,
4.052,-1.77,0.35,0.92,0.81,0.75,1.57,
4.053,-1.77,0.35,0.92,0.57,0.93,1.62,
4.054,-1.77,0.35,0.92,0.57,0.93,1.62,
4.054,-1.00,0.37,0.68,0.57,0.93,1.62,
4.055,-1.00,0.37,0.68,0.57,0.93,1.62,
4.06,-1.00,0.37,0.68,0.57,0.93,1.62,
4.061,-1.00,0.37,0.68,0.57,0.93,1.62,
4.062,-1.00,0.37,0.68,0.57,0.93,1.62,
4.063,-1.00,0.37,0.68,0.57,0.93,1.62,
4.07,-1.00,0.37,0.68,0.57,0.93,1.62,
4.072,-1.00,0.37,0.68,0.57,0.93,1.62,
4.072,-1.00,0.37,0.68,0.57,0.93,1.62,
4.073,-1.00,0.37,0.68,0.57,0.93,1.62,
4.079,-1.00,0.37,0.68,0.24,0.78,1.09,
4.079,-1.00,0.37,0.68,0.24,0.78,1.09,
4.08,0.64,0.21,0.29,0.24,0.78,1.09,
4.08,0.64,0.21,0.29,0.24,0.78,1.09,
4.089,0.64,0.21,0.29,0.05,0.58,0.61,
4.089,0.64,0.21,0.29,0.05,0.58,0.61,
4.089,0.92,0.09,0.36,0.05,0.58,0.61,
4.09,0.92,0.09,0.36,0.05,0.58,0.61,
4.098,0.92,0.09,0.36,-0.14,0.33,0.08,
4.099,0.92,0.09,0.36,-0.14,0.33,0.08,
4.099,1.03,-0.03,0.49,-0.14,0.33,0.08,
4.099,1.03,-0.03,0.49,-0.14,0.33,0.08,
4.107,1.03,-0.03,0.49,-0.29,0.07,-0.44,
4.108,1.03,-0.03,0.49,-0.29,0.07,-0.44,
4.109,0.95,-0.13,0.54,-0.29,0.07,-0.44,
4.109,0.95,-0.13,0.54,-0.29,0.07,-0.44,
4.118,0.95,-0.13,0.54,-0.37,-0.15,-0.85,
4.119,0.95,-0.13,0.54,-0.37,-0.15,-0.85,
4.119,0.74,-0.16,0.43,-0.37,-0.15,-0.85,
4.12,0.74,-0.16,0.43,-0.37,-0.15,-0.85,
4.127,0.74,-0.16,0.43,-0.39,-0.30,-1.11,
4.127,0.74,-0.16,0.43,-0.39,-0.30,-1.11,
4.128,0.49,-0.13,0.21,-0.39,-0.30,-1.11,
4.128,0.49,-0.13,0.21,-0.39,-0.30,-1.11,
4.136,0.49,-0.13,0.21,-0.38,-0.37,-1.24,
4.137,0.49,-0.13,0.21,-0.38,-0.37,-1.24,
4.138,0.28,-0.04,-0.02,-0.38,-0.37,-1.24,
4.138,0.28,-0.04,-0.02,-0.38,-0.37,-1.24,
4.146,0.28,-0.04,-0.02,-0.38,-0.36,-1.22,
4.147,0.28,-0.04,-0.02,-0.38,-0.36,-1.22,
4.148,0.18,0.04,-0.23,-0.38,-0.36,-1.22,
4.149,0.18,0.04,-0.23,-0.38,-0.36,-1.22,
4.155,0.18,0.04,-0.23,-0.40,-0.29,-1.11,
4.156,0.18,0.04,-0.23,-0.40,-0.29,-1.11,
4.157,0.19,0.10,-0.38,-0.40,-0.29,-1.11,
4.157,0.19,0.10,-0.38,-0.40,-0.29,-1.11,
4.165,0.19,0.10,-0.38,-0.47,-0.20,-0.94,
4.166,0.19,0.10,-0.38,-0.47,-0.20,-0.94,
4.166,0.23,0.14,-0.45,-0.47,-0.20,-0.94,
4.167,0.23,0.14,-0.45,-0.47,-0.20,-0.94,
4.175,0.23,0.14,-0.45,-0.55,-0.11,-0.76,
4.176,0.23,0.14,-0.45,-0.55,-0.11,-0.76,
4.176,0.25,0.14,-0.45,-0.55,-0.11,-0.76,
4.177,0.25,0.14,-0.45,-0.55,-0.11,-0.76,
4.19,0.25,0.14,-0.45,-0.62,-0.05,-0.61,
4.191,0.25,0.14,-0.45,-0.62,-0.05,-0.61,
4.192,0.21,0.13,-0.41,-0.62,-0.05,-0.61,
4.192,0.21,0.13,-0.41,-0.62,-0.05,-0.61,
4.193,0.21,0.13,-0.41,-0.66,-0.02,-0.49,
4.194,0.21,0.13,-0.41,-0.66,-0.02,-0.49,
4.194,0.13,0.14,-0.34,-0.66,-0.02,-0.49,
4.195,0.13,0.14,-0.34,-0.66,-0.02,-0.49,
4.203,0.13,0.14,-0.34,-0.66,-0.00,-0.40,
4.204,0.13,0.14,-0.34,-0.66,-0.00,-0.40,
4.205,0.04,0.13,-0.27,-0.66,-0.00,-0.40,
4.205,0.04,0.13,-0.27,-0.66,-0.00,-0.40,
4.212,0.04,0.13,-0.27,-0.61,0.03,-0.32,
4.213,0.04,0.13,-0.27,-0.61,0.03,-0.32,
4.214,-0.04,0.13,-0.24,-0.61,0.03,-0.32,
4.215,-0.04,0.13,-0.24,-0.61,0.03,-0.32,
4.222,-0.04,0.13,-0.24,-0.53,0.07,-0.24,
4.223,-0.04,0.13,-0.24,-0.53,0.07,-0.24,
4.224,-0.07,0.13,-0.23,-0.53,0.07,-0.24,
4.224,-0.07,0.13,-0.23,-0.53,0.07,-0.24,
4.234,-0.07,0.13,-0.23,-0.42,0.11,-0.16,
4.235,-0.07,0.13,-0.23,-0.42,0.11,-0.16,
4.236,-0.06,0.10,-0.25,-0.42,0.11,-0.16,
4.236,-0.06,0.10,-0.25,-0.42,0.11,-0.16,
4.241,-0.06,0.10,-0.25,-0.31,0.14,-0.08,
4.242,-0.06,0.10,-0.25,-0.31,0.14,-0.08,
4.242,0.00,0.07,-0.26,-0.31,0.14,-0.08,
4.243,0.00,0.07,-0.26,-0.31,0.14,-0.08,
4.251,0.00,0.07,-0.26,-0.22,0.16,-0.01,
4.252,0.00,0.07,-0.26,-0.22,0.16,-0.01,
4.253,0.08,0.05,-0.23,-0.22,0.16,-0.01,
4.253,0.08,0.05,-0.23,-0.22,0.16,-0.01,
4.26,0.08,0.05,-0.23,-0.22,0.16,-0.01,
4.261,0.08,0.05,-0.23,-0.22,0.16,-0.01,
4.262,0.08,0.05,-0.23,-0.22,0.16,-0.01,
4.262,0.08,0.05,-0.23,-0.22,0.16,-0.01,
4.269,0.08,0.05,-0.23,-0.15,0.15,0.03,
4.271,0.08,0.05,-0.23,-0.15,0.15,0.03,
4.271,0.25,0.03,-0.15,-0.15,0.15,0.03,
4.272,0.25,0.03,-0.15,-0.15,0.15,0.03,
4.28,0.25,0.03,-0.15,-0.08,0.15,0.04,
4.28,0.25,0.03,-0.15,-0.08,0.15,0.04,
4.287,0.29,0.06,-0.18,-0.08,0.15,0.04,
4.288,0.29,0.06,-0.18,-0.08,0.15,0.04,
4.288,0.29,0.06,-0.18,-0.02,0.15,0.01,
4.289,0.29,0.06,-0.18,-0.02,0.15,0.01,
4.289,0.31,0.10,-0.25,-0.02,0.15,0.01,
4.29,0.31,0.10,-0.25,-0.02,0.15,0.01,
4.298,0.31,0.10,-0.25,0.03,0.15,-0.03,
4.299,0.31,0.10,-0.25,0.03,0.15,-0.03,
4.299,0.29,0.14,-0.33,0.03,0.15,-0.03,
4.3,0.29,0.14,-0.33,0.03,0.15,-0.03,
4.308,0.29,0.14,-0.33,0.06,0.14,-0.08,
4.309,0.29,0.14,-0.33,0.06,0.14,-0.08,
4.309,0.22,0.18,-0.38,0.06,0.14,-0.08,
4.31,0.22,0.18,-0.38,0.06,0.14,-0.08,
4.317,0.22,0.18,-0.38,0.07,0.12,-0.12,
4.318,0.22,0.18,-0.38,0.07,0.12,-0.12,
4.318,0.12,0.23,-0.42,0.07,0.12,-0.12,
4.319,0.12,0.23,-0.42,0.07,0.12,-0.12,
4.327,0.12,0.23,-0.42,0.06,0.10,-0.12,
4.327,0.12,0.23,-0.42,0.06,0.10,-0.12,
4.328,0.01,0.27,-0.43,0.06,0.10,-0.12,
4.328,0.01,0.27,-0.43,0.06,0.10,-0.12,
4.336,0.01,0.27,-0.43,0.03,0.09,-0.09,
4.337,0.01,0.27,-0.43,0.03,0.09,-0.09,
4.338,-0.10,0.32,-0.43,0.03,0.09,-0.09,
4.338,-0.10,0.32,-0.43,0.03,0.09,-0.09,
4.346,-0.10,0.32,-0.43,0.01,0.12,-0.04,
4.347,-0.10,0.32,-0.43,0.01,0.12,-0.04,
4.347,-0.20,0.33,-0.44,0.01,0.12,-0.04,
4.348,-0.20,0.33,-0.44,0.01,0.12,-0.04,
4.356,-0.20,0.33,-0.44,-0.01,0.16,0.03,
4.357,-0.20,0.33,-0.44,-0.01,0.16,0.03,
4.358,-0.28,0.30,-0.41,-0.01,0.16,0.03,
4.358,-0.28,0.30,-0.41,-0.01,0.16,0.03,
4.365,-0.28,0.30,-0.41,-0.02,0.22,0.10,
4.365,-0.28,0.30,-0.41,-0.02,0.22,0.10,
4.366,-0.33,0.25,-0.38,-0.02,0.22,0.10,
4.367,-0.33,0.25,-0.38,-0.02,0.22,0.10,
4.374,-0.33,0.25,-0.38,-0.02,0.27,0.17,
4.376,-0.33,0.25,-0.38,-0.02,0.27,0.17,
4.376,-0.35,0.21,-0.32,-0.02,0.27,0.17,
4.377,-0.35,0.21,-0.32,-0.02,0.27,0.17,
4.384,-0.35,0.21,-0.32,-0.02,0.30,0.23,
4.386,-0.35,0.18,-0.26,-0.02,0.30,0.23,
4.387,-0.35,0.18,-0.26,-0.02,0.30,0.23,
4.388,-0.35,0.18,-0.26,-0.02,0.30,0.23,
4.393,-0.35,0.18,-0.26,-0.01,0.31,0.27,
4.394,-0.35,0.18,-0.26,-0.01,0.31,0.27,
4.394,-0.31,0.18,-0.21,-0.01,0.31,0.27,
4.395,-0.31,0.18,-0.21,-0.01,0.31,0.27,
4.403,-0.31,0.18,-0.21,0.01,0.31,0.28,
4.404,-0.31,0.18,-0.21,0.01,0.31,0.28,
4.405,-0.27,0.18,-0.22,0.01,0.31,0.28,
4.406,-0.27,0.18,-0.22,0.01,0.31,0.28,
4.412,-0.27,0.18,-0.22,0.03,0.30,0.27,
4.413,-0.27,0.18,-0.22,0.03,0.30,0.27,
4.414,-0.23,0.18,-0.25,0.03,0.30,0.27,
4.414,-0.23,0.18,-0.25,0.03,0.30,0.27,
4.423,-0.23,0.18,-0.25,0.05,0.29,0.23,
4.424,-0.23,0.18,-0.25,0.05,0.29,0.23,
4.425,-0.18,0.17,-0.26,0.05,0.29,0.23,
4.425,-0.18,0.17,-0.26,0.05,0.29,0.23,
4.432,-0.18,0.17,-0.26,0.05,0.27,0.18,
4.433,-0.18,0.17,-0.26,0.05,0.27,0.18,
4.433,-0.17,0.17,-0.25,0.05,0.27,0.18,
4.434,-0.17,0.17,-0.25,0.05,0.27,0.18,
4.441,-0.17,0.17,-0.25,0.05,0.24,0.12,
4.442,-0.17,0.17,-0.25,0.05,0.24,0.12,
4.443,-0.18,0.17,-0.22,0.05,0.24,0.12,
4.443,-0.18,0.17,-0.22,0.05,0.24,0.12,
4.451,-0.18,0.17,-0.22,0.03,0.20,0.07,
4.452,-0.18,0.17,-0.22,0.03,0.20,0.07,
4.453,-0.20,0.17,-0.16,0.03,0.20,0.07,
4.454,-0.20,0.17,-0.16,0.03,0.20,0.07,
4.46,-0.20,0.17,-0.16,0.03,0.20,0.07,
4.461,-0.20,0.17,-0.16,0.03,0.20,0.07,
4.461,-0.20,0.17,-0.16,0.03,0.20,0.07,
4.462,-0.20,0.17,-0.16,0.03,0.20,0.07,
4.47,-0.20,0.17,-0.16,0.02,0.16,0.03,
4.471,-0.20,0.17,-0.16,0.02,0.16,0.03,
4.472,-0.25,0.16,-0.12,0.02,0.16,0.03,
4.472,-0.25,0.16,-0.12,0.02,0.16,0.03,
4.479,-0.25,0.16,-0.12,0.01,0.12,0.02,
4.48,-0.25,0.16,-0.12,0.01,0.12,0.02,
4.481,-0.27,0.15,-0.08,0.01,0.12,0.02,
4.482,-0.27,0.15,-0.08,0.01,0.12,0.02,
4.489,-0.27,0.15,-0.08,0.01,0.10,0.01,
4.49,-0.27,0.15,-0.08,0.01,0.10,0.01,
4.49,-0.26,0.15,-0.08,0.01,0.10,0.01,
4.491,-0.26,0.15,-0.08,0.01,0.10,0.01,
4.498,-0.26,0.15,-0.08,0.01,0.09,0.02,
4.499,-0.26,0.15,-0.08,0.01,0.09,0.02,
4.5,-0.23,0.15,-0.07,0.01,0.09,0.02,
4.5,-0.23,0.15,-0.07,0.01,0.09,0.02,
4.508,-0.23,0.15,-0.07,0.03,0.10,0.03,
4.51,-0.23,0.15,-0.07,0.03,0.10,0.03,
4.51,-0.19,0.15,-0.05,0.03,0.10,0.03,
4.511,-0.19,0.15,-0.05,0.03,0.10,0.03,
4.52,-0.19,0.15,-0.05,0.04,0.09,0.04,
4.521,-0.19,0.15,-0.05,0.04,0.09,0.04,
4.525,-0.14,0.16,-0.03,0.04,0.09,0.04,
4.526,-0.14,0.16,-0.03,0.04,0.09,0.04,
4.528,-0.14,0.16,-0.03,0.03,0.08,0.04,
4.529,-0.14,0.16,-0.03,0.03,0.08,0.04,
4.529,-0.08,0.17,0.00,0.03,0.08,0.04,
4.53,-0.08,0.17,0.00,0.03,0.08,0.04,
4.536,-0.08,0.17,0.00,0.03,0.06,0.03,
4.538,-0.08,0.17,0.00,0.03,0.06,0.03,
4.539,-0.04,0.18,0.04,0.03,0.06,0.03,
4.54,-0.04,0.18,0.04,0.03,0.06,0.03,
4.545,-0.04,0.18,0.04,0.03,0.04,0.00,
4.547,-0.04,0.18,0.04,0.03,0.04,0.00,
4.548,-0.03,0.20,0.05,0.03,0.04,0.00,
4.549,-0.03,0.20,0.05,0.03,0.04,0.00,
4.555,-0.03,0.20,0.05,0.04,0.03,-0.03,
4.556,-0.03,0.20,0.05,0.04,0.03,-0.03,
4.557,-0.02,0.19,0.04,0.04,0.03,-0.03,
4.557,-0.02,0.19,0.04,0.04,0.03,-0.03,
4.564,-0.02,0.19,0.04,0.05,0.01,-0.05,
4.565,-0.02,0.19,0.04,0.05,0.01,-0.05,
4.566,-0.02,0.16,0.02,0.05,0.01,-0.05,
4.566,-0.02,0.16,0.02,0.05,0.01,-0.05,
4.575,-0.02,0.16,0.02,0.05,-0.02,-0.07,
4.576,-0.02,0.16,0.02,0.05,-0.02,-0.07,
4.576,-0.03,0.15,0.01,0.05,-0.02,-0.07,
4.576,-0.03,0.15,0.01,0.05,-0.02,-0.07,
4.584,-0.03,0.15,0.01,0.05,-0.05,-0.09,
4.585,-0.03,0.15,0.01,0.05,-0.05,-0.09,
4.585,-0.04,0.16,-0.01,0.05,-0.05,-0.09,
4.586,-0.04,0.16,-0.01,0.05,-0.05,-0.09,
4.593,-0.04,0.16,-0.01,0.03,-0.07,-0.09,
4.594,-0.04,0.16,-0.01,0.03,-0.07,-0.09,
4.595,-0.04,0.16,-0.05,0.03,-0.07,-0.09,
4.595,-0.04,0.16,-0.05,0.03,-0.07,-0.09,
4.603,-0.04,0.16,-0.05,0.02,-0.08,-0.08,
4.604,-0.04,0.16,-0.05,0.02,-0.08,-0.08,
4.605,-0.04,0.18,-0.10,0.02,-0.08,-0.08,
4.605,-0.04,0.18,-0.10,0.02,-0.08,-0.08,
4.612,-0.04,0.18,-0.10,-0.00,-0.06,-0.07,
4.613,-0.04,0.18,-0.10,-0.00,-0.06,-0.07,
4.614,-0.03,0.18,-0.10,-0.00,-0.06,-0.07,
4.614,-0.03,0.18,-0.10,-0.00,-0.06,-0.07,
4.623,-0.03,0.18,-0.10,-0.03,-0.03,-0.06,
4.624,-0.03,0.18,-0.10,-0.03,-0.03,-0.06,
4.624,-0.02,0.17,-0.10,-0.03,-0.03,-0.06,
4.625,-0.02,0.17,-0.10,-0.03,-0.03,-0.06,
4.634,-0.02,0.17,-0.10,-0.05,0.01,-0.05,
4.635,-0.02,0.17,-0.10,-0.05,0.01,-0.05,
4.636,-0.02,0.17,-0.10,-0.05,0.01,-0.05,
4.636,-0.02,0.17,-0.10,-0.05,0.01,-0.05,
4.641,-0.02,0.17,-0.10,-0.07,0.04,-0.04,
4.641,-0.02,0.17,-0.10,-0.07,0.04,-0.04,
4.642,-0.01,0.17,-0.10,-0.07,0.04,-0.04,
4.642,-0.01,0.17,-0.10,-0.07,0.04,-0.04,
4.651,-0.01,0.17,-0.10,-0.08,0.06,-0.03,
4.652,-0.01,0.17,-0.10,-0.08,0.06,-0.03,
4.653,0.00,0.17,-0.10,-0.08,0.06,-0.03,
4.653,0.00,0.17,-0.10,-0.08,0.06,-0.03,
4.66,0.00,0.17,-0.10,-0.08,0.06,-0.03,
4.661,0.00,0.17,-0.10,-0.08,0.06,-0.03,
4.662,0.00,0.17,-0.10,-0.08,0.06,-0.03,
4.662,0.00,0.17,-0.10,-0.08,0.06,-0.03,
4.67,0.00,0.17,-0.10,-0.08,0.07,-0.02,
4.671,0.00,0.17,-0.10,-0.08,0.07,-0.02,
4.672,0.01,0.17,-0.10,-0.08,0.07,-0.02,
4.672,0.01,0.17,-0.10,-0.08,0.07,-0.02,
4.679,0.01,0.17,-0.10,-0.08,0.07,-0.02,
4.68,0.01,0.17,-0.10,-0.08,0.07,-0.02,
4.68,0.01,0.17,-0.10,-0.08,0.07,-0.02,
4.681,0.01,0.17,-0.10,-0.08,0.07,-0.02,
4.688,0.01,0.17,-0.10,-0.08,0.07,-0.01,
4.689,0.01,0.17,-0.10,-0.08,0.07,-0.01,
4.69,0.02,0.17,-0.10,-0.08,0.07,-0.01,
4.691,0.02,0.17,-0.10,-0.08,0.07,-0.01,
4.698,0.02,0.17,-0.10,-0.07,0.06,-0.01,
4.699,0.02,0.17,-0.10,-0.07,0.06,-0.01,
4.699,0.02,0.17,-0.11,-0.07,0.06,-0.01,
4.7,0.02,0.17,-0.11,-0.07,0.06,-0.01,
4.708,0.02,0.17,-0.11,-0.06,0.05,-0.01,
4.709,0.02,0.17,-0.11,-0.06,0.05,-0.01,
4.709,0.03,0.17,-0.11,-0.06,0.05,-0.01,
4.71,0.03,0.17,-0.11,-0.06,0.05,-0.01,
4.72,0.03,0.17,-0.11,-0.05,0.04,-0.01,
4.721,0.03,0.17,-0.11,-0.05,0.04,-0.01,
4.721,0.03,0.17,-0.11,-0.05,0.04,-0.01,
4.722,0.03,0.17,-0.11,-0.05,0.04,-0.01,
4.727,0.03,0.17,-0.11,-0.04,0.04,-0.01,
4.727,0.03,0.17,-0.11,-0.04,0.04,-0.01,
4.728,0.04,0.17,-0.11,-0.04,0.04,-0.01,
4.728,0.04,0.17,-0.11,-0.04,0.04,-0.01,
4.736,0.04,0.17,-0.11,-0.03,0.03,-0.00,
4.737,0.04,0.17,-0.11,-0.03,0.03,-0.00,
4.738,0.04,0.16,-0.11,-0.03,0.03,-0.00,
4.738,0.04,0.16,-0.11,-0.03,0.03,-0.00,
4.746,0.04,0.16,-0.11,-0.03,0.02,-0.00,
4.747,0.04,0.16,-0.11,-0.03,0.02,-0.00,
4.747,-0.18,0.14,0.13,-0.03,0.02,-0.00,
4.748,-0.18,0.14,0.13,-0.03,0.02,-0.00,
4.755,-0.18,0.14,0.13,-0.02,0.02,0.00,
4.757,-0.18,0.14,0.13,-0.02,0.02,0.00,
4.763,-0.13,0.17,0.18,-0.02,0.02,0.00,
4.764,-0.13,0.17,0.18,-0.02,0.02,0.00,
4.765,-0.13,0.17,0.18,0.01,0.02,0.02,
4.765,-0.13,0.17,0.18,0.01,0.02,0.02,
4.766,-0.06,0.22,0.16,0.01,0.02,0.02,
4.766,-0.06,0.22,0.16,0.01,0.02,0.02,
4.774,-0.06,0.22,0.16,0.07,0.03,0.05,
4.775,-0.06,0.22,0.16,0.07,0.03,0.05,
4.776,-0.03,0.25,0.15,0.07,0.03,0.05,
4.776,-0.03,0.25,0.15,0.07,0.03,0.05,
4.784,-0.03,0.25,0.15,0.12,0.03,0.08,
4.784,-0.03,0.25,0.15,0.12,0.03,0.08,
4.785,0.01,0.27,0.10,0.12,0.03,0.08,
4.785,0.01,0.27,0.10,0.12,0.03,0.08,
4.794,0.01,0.27,0.10,0.17,0.02,0.09,
4.794,0.01,0.27,0.10,0.17,0.02,0.09,
4.795,0.03,0.27,0.00,0.17,0.02,0.09,
4.796,0.03,0.27,0.00,0.17,0.02,0.09,
4.805,0.03,0.27,0.00,0.18,0.01,0.08,
4.806,0.03,0.27,0.00,0.18,0.01,0.08,
4.807,0.02,0.25,-0.00,0.18,0.01,0.08,
4.808,0.02,0.25,-0.00,0.18,0.01,0.08,
4.812,0.02,0.25,-0.00,0.16,0.01,0.06,
4.813,0.02,0.25,-0.00,0.16,0.01,0.06,
4.814,0.01,0.23,0.02,0.16,0.01,0.06,
4.814,0.01,0.23,0.02,0.16,0.01,0.06,
4.822,0.01,0.23,0.02,0.13,0.00,0.05,
4.823,0.01,0.23,0.02,0.13,0.00,0.05,
4.824,-0.01,0.20,0.04,0.13,0.00,0.05,
4.824,-0.01,0.20,0.04,0.13,0.00,0.05,
4.834,-0.01,0.20,0.04,0.10,-0.01,0.03,
4.835,-0.01,0.20,0.04,0.10,-0.01,0.03,
4.836,-0.03,0.18,0.04,0.10,-0.01,0.03,
4.836,-0.03,0.18,0.04,0.10,-0.01,0.03,
4.841,-0.03,0.18,0.04,0.07,-0.02,0.02,
4.842,-0.03,0.18,0.04,0.07,-0.02,0.02,
4.843,-0.05,0.18,0.00,0.07,-0.02,0.02,
4.843,-0.05,0.18,0.00,0.07,-0.02,0.02,
4.851,-0.05,0.18,0.00,0.05,-0.02,0.02,
4.853,-0.05,0.18,0.00,0.05,-0.02,0.02,
4.854,-0.03,0.16,-0.03,0.05,-0.02,0.02,
4.855,-0.03,0.16,-0.03,0.05,-0.02,0.02,
4.86,-0.03,0.16,-0.03,0.05,-0.02,0.02,
4.861,-0.03,0.16,-0.03,0.05,-0.02,0.02,
4.862,-0.03,0.16,-0.03,0.05,-0.02,0.02,
4.862,-0.03,0.16,-0.03,0.05,-0.02,0.02,
4.87,-0.03,0.16,-0.03,0.04,-0.01,0.01,
4.872,-0.03,0.16,-0.03,0.04,-0.01,0.01,
4.873,0.00,0.14,0.03,0.04,-0.01,0.01,
4.874,0.00,0.14,0.03,0.04,-0.01,0.01,
4.88,0.00,0.14,0.03,0.03,0.01,0.01,
4.881,0.00,0.14,0.03,0.03,0.01,0.01,
4.882,0.01,0.13,0.04,0.03,0.01,0.01,
4.882,0.01,0.13,0.04,0.03,0.01,0.01,
4.888,0.01,0.13,0.04,0.02,0.01,0.01,
4.889,0.01,0.13,0.04,0.02,0.01,0.01,
4.89,0.02,0.11,0.02,0.02,0.01,0.01,
4.891,0.02,0.11,0.02,0.02,0.01,0.01,
4.898,0.02,0.11,0.02,0.01,0.00,0.00,
4.899,0.02,0.11,0.02,0.01,0.00,0.00,
4.899,0.06,0.11,-0.04,0.01,0.00,0.00,
4.9,0.06,0.11,-0.04,0.01,0.00,0.00,
4.908,0.06,0.11,-0.04,0.00,-0.01,-0.01,
4.91,0.06,0.11,-0.04,0.00,-0.01,-0.01,
4.91,0.11,0.09,-0.05,0.00,-0.01,-0.01,
4.911,0.11,0.09,-0.05,0.00,-0.01,-0.01,
4.922,0.11,0.09,-0.05,-0.01,-0.02,-0.03,
4.923,0.11,0.09,-0.05,-0.01,-0.02,-0.03,
4.923,0.14,0.07,-0.03,-0.01,-0.02,-0.03,
4.923,0.14,0.07,-0.03,-0.01,-0.02,-0.03,
4.926,0.14,0.07,-0.03,-0.03,-0.02,-0.05,
4.927,0.14,0.07,-0.03,-0.03,-0.02,-0.05,
4.927,0.13,0.09,-0.02,-0.03,-0.02,-0.05,
4.927,0.13,0.09,-0.02,-0.03,-0.02,-0.05,
4.936,0.13,0.09,-0.02,-0.05,-0.02,-0.08,
4.937,0.13,0.09,-0.02,-0.05,-0.02,-0.08,
4.938,0.12,0.11,-0.01,-0.05,-0.02,-0.08,
4.939,0.12,0.11,-0.01,-0.05,-0.02,-0.08,
4.946,0.12,0.11,-0.01,-0.05,-0.03,-0.10,
4.947,0.12,0.11,-0.01,-0.05,-0.03,-0.10,
4.947,0.06,0.11,-0.06,-0.05,-0.03,-0.10,
4.948,0.06,0.11,-0.06,-0.05,-0.03,-0.10,
4.955,0.06,0.11,-0.06,-0.06,-0.04,-0.11,
4.957,0.06,0.11,-0.06,-0.06,-0.04,-0.11,
4.958,0.01,0.11,-0.10,-0.06,-0.04,-0.11,
4.959,0.01,0.11,-0.10,-0.06,-0.04,-0.11,
4.964,0.01,0.11,-0.10,-0.07,-0.05,-0.10,
4.965,0.01,0.11,-0.10,-0.07,-0.05,-0.10,
4.966,0.01,0.11,-0.09,-0.07,-0.05,-0.10,
4.966,0.01,0.11,-0.09,-0.07,-0.05,-0.10,
4.974,0.01,0.11,-0.09,-0.07,-0.04,-0.08,
4.975,0.01,0.11,-0.09,-0.07,-0.04,-0.08,
4.976,0.00,0.06,-0.10,-0.07,-0.04,-0.08,
4.976,0.00,0.06,-0.10,-0.07,-0.04,-0.08,
4.983,0.00,0.06,-0.10,-0.08,-0.03,-0.06,
4.984,0.00,0.06,-0.10,-0.08,-0.03,-0.06,
4.985,0.02,0.07,-0.07,-0.08,-0.03,-0.06,
4.985,0.02,0.07,-0.07,-0.08,-0.03,-0.06,
4.993,0.02,0.07,-0.07,-0.09,-0.02,-0.03,
4.994,0.02,0.07,-0.07,-0.09,-0.02,-0.03,
5.0,0.06,0.09,-0.04,-0.09,-0.02,-0.03,
5.002,0.06,0.09,-0.04,-0.09,-0.02,-0.03,
5.003,0.06,0.09,-0.04,-0.09,-0.01,-0.02,
5.004,0.06,0.09,-0.04,-0.09,-0.01,-0.02,
5.005,0.08,0.10,-0.04,-0.09,-0.01,-0.02,
5.006,0.08,0.10,-0.04,-0.09,-0.01,-0.02,
5.012,0.08,0.10,-0.04,-0.08,-0.00,-0.01,
5.013,0.08,0.10,-0.04,-0.08,-0.00,-0.01,
5.014,0.08,0.10,-0.04,-0.08,-0.00,-0.01,
5.015,0.08,0.10,-0.04,-0.08,-0.00,-0.01,
5.034,0.08,0.10,-0.04,-0.07,-0.00,-0.01,
5.036,0.08,0.10,-0.04,-0.07,-0.00,-0.01,
5.036,0.08,0.10,-0.04,-0.07,-0.00,-0.01,
5.037,0.08,0.10,-0.04,-0.07,-0.00,-0.01,
5.037,0.08,0.10,-0.04,-0.05,-0.00,-0.01,
5.037,0.08,0.10,-0.04,-0.05,-0.00,-0.01,
5.038,0.08,0.10,-0.04,-0.05,-0.00,-0.01,
5.038,0.08,0.10,-0.04,-0.05,-0.00,-0.01,
5.039,0.08,0.10,-0.04,-0.05,-0.00,-0.01,
5.039,0.08,0.10,-0.04,-0.05,-0.00,-0.01,
5.046,0.08,0.10,-0.04,-0.05,-0.00,-0.01,
5.046,0.08,0.10,-0.04,-0.05,-0.00,-0.01,
5.046,0.08,0.10,-0.04,-0.05,-0.00,-0.01,
5.047,0.08,0.10,-0.04,-0.05,-0.00,-0.01,
5.055,0.08,0.10,-0.04,-0.04,-0.00,-0.00,
5.056,0.08,0.10,-0.04,-0.04,-0.00,-0.00,
5.057,0.08,0.10,-0.04,-0.04,-0.00,-0.00,
5.058,0.08,0.10,-0.04,-0.04,-0.00,-0.00,
5.064,0.08,0.10,-0.04,-0.03,-0.00,-0.00,
5.065,0.08,0.10,-0.04,-0.03,-0.00,-0.00,
5.065,0.08,0.10,-0.04,-0.03,-0.00,-0.00,
5.066,0.08,0.10,-0.04,-0.03,-0.00,-0.00,
5.074,0.08,0.10,-0.04,-0.02,-0.00,-0.00,
5.075,0.08,0.10,-0.04,-0.02,-0.00,-0.00,
5.075,0.08,0.10,-0.04,-0.02,-0.00,-0.00,
5.076,0.08,0.10,-0.04,-0.02,-0.00,-0.00,
5.084,0.08,0.10,-0.04,-0.02,-0.00,-0.00,
5.086,0.08,0.10,-0.04,-0.02,-0.00,-0.00,
5.087,0.08,0.10,-0.04,-0.02,-0.00,-0.00,
5.088,0.08,0.10,-0.04,-0.02,-0.00,-0.00,
5.093,0.08,0.10,-0.04,-0.02,-0.00,-0.00,
5.094,0.08,0.10,-0.04,-0.02,-0.00,-0.00,
5.095,0.08,0.10,-0.04,-0.02,-0.00,-0.00,
5.096,0.08,0.10,-0.04,-0.02,-0.00,-0.00,
5.103,0.08,0.10,-0.04,-0.01,-0.00,-0.00,
5.104,0.08,0.10,-0.04,-0.01,-0.00,-0.00,
5.105,0.07,0.10,-0.03,-0.01,-0.00,-0.00,
5.106,0.07,0.10,-0.03,-0.01,-0.00,-0.00,
5.112,0.07,0.10,-0.03,-0.01,-0.00,-0.00,
5.113,0.07,0.10,-0.03,-0.01,-0.00,-0.00,
5.113,0.07,0.11,-0.03,-0.01,-0.00,-0.00,
5.114,0.07,0.11,-0.03,-0.01,-0.00,-0.00,
5.122,0.07,0.11,-0.03,-0.01,-0.00,-0.00,
5.123,0.07,0.11,-0.03,-0.01,-0.00,-0.00,
5.124,0.07,0.11,-0.03,-0.01,-0.00,-0.00,
5.125,0.07,0.11,-0.03,-0.01,-0.00,-0.00,
5.136,0.07,0.11,-0.03,-0.01,-0.00,-0.00,
5.136,0.07,0.11,-0.03,-0.01,-0.00,-0.00,
5.137,0.07,0.11,-0.03,-0.01,-0.00,-0.00,
5.137,0.07,0.11,-0.03,-0.01,-0.00,-0.00,
5.14,0.07,0.11,-0.03,-0.01,-0.00,-0.00,
5.141,0.07,0.11,-0.03,-0.01,-0.00,-0.00,
5.141,0.07,0.11,-0.03,-0.01,-0.00,-0.00,
5.142,0.07,0.11,-0.03,-0.01,-0.00,-0.00,
5.151,0.07,0.11,-0.03,-0.01,-0.00,-0.00,
5.152,0.07,0.11,-0.03,-0.01,-0.00,-0.00,
5.152,0.06,0.11,-0.03,-0.01,-0.00,-0.00,
5.153,0.06,0.11,-0.03,-0.01,-0.00,-0.00,
5.16,0.06,0.11,-0.03,-0.01,-0.00,-0.00,
5.161,0.06,0.11,-0.03,-0.01,-0.00,-0.00,
5.162,0.06,0.11,-0.03,-0.01,-0.00,-0.00,
5.162,0.06,0.11,-0.03,-0.01,-0.00,-0.00,
5.17,0.06,0.11,-0.03,-0.00,-0.00,-0.00,
5.171,0.06,0.11,-0.03,-0.00,-0.00,-0.00,
5.172,0.06,0.11,-0.03,-0.00,-0.00,-0.00,
5.172,0.06,0.11,-0.03,-0.00,-0.00,-0.00,
5.179,0.06,0.11,-0.03,-0.00,-0.00,-0.00,
5.18,0.06,0.11,-0.03,-0.00,-0.00,-0.00,
5.181,0.06,0.11,-0.03,-0.00,-0.00,-0.00,
5.182,0.06,0.11,-0.03,-0.00,-0.00,-0.00,
5.189,0.06,0.11,-0.03,-0.00,-0.00,-0.00,
5.191,0.06,0.11,-0.03,-0.00,-0.00,-0.00,
5.192,0.06,0.11,-0.03,-0.00,-0.00,-0.00,
5.193,0.06,0.11,-0.03,-0.00,-0.00,-0.00,
5.197,0.06,0.11,-0.03,0.00,-0.00,-0.00,
5.198,0.06,0.11,-0.03,0.00,-0.00,-0.00,
5.199,0.05,0.11,-0.03,0.00,-0.00,-0.00,
5.199,0.05,0.11,-0.03,0.00,-0.00,-0.00,
5.207,0.05,0.11,-0.03,-0.00,-0.00,-0.00,
5.208,0.05,0.11,-0.03,-0.00,-0.00,-0.00,
5.209,0.05,0.11,-0.03,-0.00,-0.00,-0.00,
5.21,0.05,0.11,-0.03,-0.00,-0.00,-0.00,
5.218,0.05,0.11,-0.03,0.00,0.00,0.00,
5.219,0.05,0.11,-0.03,0.00,0.00,0.00,
5.22,0.05,0.11,-0.03,0.00,0.00,0.00,
5.22,0.05,0.11,-0.03,0.00,0.00,0.00,
5.226,0.05,0.11,-0.03,0.00,0.00,0.00,
5.227,0.05,0.11,-0.03,0.00,0.00,0.00,
5.228,0.05,0.11,-0.02,0.00,0.00,0.00,
5.228,0.05,0.11,-0.02,0.00,0.00,0.00,
5.237,0.05,0.11,-0.02,0.00,0.00,0.00,
5.239,0.05,0.11,-0.02,0.00,0.00,0.00,
5.239,0.05,0.11,-0.02,0.00,0.00,0.00,
5.24,0.05,0.11,-0.02,0.00,0.00,0.00,
5.245,0.05,0.11,-0.02,-0.00,0.00,-0.00,
5.246,0.05,0.11,-0.02,-0.00,0.00,-0.00,
5.246,0.04,0.11,-0.02,-0.00,0.00,-0.00,
5.246,0.04,0.11,-0.02,-0.00,0.00,-0.00,
5.256,0.04,0.11,-0.02,-0.00,-0.00,-0.00,
5.257,0.04,0.11,-0.02,-0.00,-0.00,-0.00,
5.257,0.04,0.11,-0.02,-0.00,-0.00,-0.00,
5.258,0.04,0.11,-0.02,-0.00,-0.00,-0.00,
5.264,0.04,0.11,-0.02,-0.00,0.00,-0.00,
5.265,0.04,0.11,-0.02,-0.00,0.00,-0.00,
5.266,0.04,0.11,-0.02,-0.00,0.00,-0.00,
5.266,0.04,0.11,-0.02,-0.00,0.00,-0.00,
5.274,0.04,0.11,-0.02,0.00,-0.00,0.00,
5.276,0.04,0.11,-0.02,0.00,-0.00,0.00,
5.277,0.04,0.11,-0.02,0.00,-0.00,0.00,
5.277,0.04,0.11,-0.02,0.00,-0.00,0.00,
5.283,0.04,0.11,-0.02,0.00,0.00,-0.00,
5.284,0.04,0.11,-0.02,0.00,0.00,-0.00,
5.285,0.03,0.11,-0.02,0.00,0.00,-0.00,
5.285,0.03,0.11,-0.02,0.00,0.00,-0.00,
5.293,0.03,0.11,-0.02,0.00,0.00,0.00,
5.294,0.03,0.11,-0.02,0.00,0.00,0.00,
5.294,0.03,0.11,-0.02,0.00,0.00,0.00,
5.295,0.03,0.11,-0.02,0.00,0.00,0.00,
5.305,0.03,0.11,-0.02,0.00,-0.00,-0.00,
5.307,0.03,0.11,-0.02,0.00,-0.00,-0.00,
5.307,-0.42,0.29,0.07,0.00,-0.00,-0.00,
5.308,-0.42,0.29,0.07,0.00,-0.00,-0.00,
5.312,-0.42,0.29,0.07,0.00,0.00,0.00,
5.313,-0.42,0.29,0.07,0.00,0.00,0.00,
5.313,-0.45,0.28,0.04,0.00,0.00,0.00,
5.314,-0.45,0.28,0.04,0.00,0.00,0.00,
5.322,-0.45,0.28,0.04,0.00,-0.00,-0.00,
5.323,-0.45,0.28,0.04,0.00,-0.00,-0.00,
5.323,-0.45,0.29,0.07,0.00,-0.00,-0.00,
5.324,-0.45,0.29,0.07,0.00,-0.00,-0.00,
5.334,-0.45,0.29,0.07,-0.00,-0.00,-0.00,
5.335,-0.45,0.29,0.07,-0.00,-0.00,-0.00,
5.336,-0.42,0.26,0.10,-0.00,-0.00,-0.00,
5.337,-0.42,0.26,0.10,-0.00,-0.00,-0.00,
5.341,-0.42,0.26,0.10,-0.00,0.00,0.00,
5.342,-0.42,0.26,0.10,-0.00,0.00,0.00,
5.343,-0.41,0.24,0.18,-0.00,0.00,0.00,
5.344,-0.41,0.24,0.18,-0.00,0.00,0.00,
5.35,-0.41,0.24,0.18,-0.00,0.00,0.00,
5.351,-0.41,0.24,0.18,-0.00,0.00,0.00,
5.352,-0.41,0.24,0.18,-0.00,0.00,0.00,
5.352,-0.41,0.24,0.18,-0.00,0.00,0.00,
5.36,-0.41,0.24,0.18,-0.00,0.00,0.00,
5.361,-0.41,0.24,0.18,-0.00,0.00,0.00,
5.362,-0.46,0.17,0.33,-0.00,0.00,0.00,
5.362,-0.46,0.17,0.33,-0.00,0.00,0.00,
5.37,-0.46,0.17,0.33,0.00,-0.00,0.00,
5.371,-0.46,0.17,0.33,0.00,-0.00,0.00,
5.372,-0.52,0.15,0.34,0.00,-0.00,0.00,
5.372,-0.52,0.15,0.34,0.00,-0.00,0.00,
5.379,-0.52,0.15,0.34,-0.00,-0.00,-0.00,
5.38,-0.52,0.15,0.34,-0.00,-0.00,-0.00,
5.38,-0.56,0.14,0.35,-0.00,-0.00,-0.00,
5.381,-0.56,0.14,0.35,-0.00,-0.00,-0.00,
5.389,-0.56,0.14,0.35,0.21,0.17,0.35,
5.39,-0.56,0.14,0.35,0.21,0.17,0.35,
5.39,-0.57,0.13,0.36,0.21,0.17,0.35,
5.391,-0.57,0.13,0.36,0.21,0.17,0.35,
5.398,-0.57,0.13,0.36,0.25,0.15,0.35,
5.398,-0.57,0.13,0.36,0.25,0.15,0.35,
5.399,-0.57,0.16,0.36,0.25,0.15,0.35,
5.4,-0.57,0.16,0.36,0.25,0.15,0.35,
5.408,-0.57,0.16,0.36,0.27,0.14,0.35,
5.409,-0.57,0.16,0.36,0.27,0.14,0.35,
5.409,-0.54,0.20,0.35,0.27,0.14,0.35,
5.41,-0.54,0.20,0.35,0.27,0.14,0.35,
5.418,-0.54,0.20,0.35,0.28,0.13,0.34,
5.419,-0.54,0.20,0.35,0.28,0.13,0.34,
5.42,-0.52,0.24,0.30,0.28,0.13,0.34,
5.42,-0.52,0.24,0.30,0.28,0.13,0.34,
5.426,-0.52,0.24,0.30,0.28,0.12,0.32,
5.427,-0.52,0.24,0.30,0.28,0.12,0.32,
5.428,-0.51,0.27,0.24,0.28,0.12,0.32,
5.428,-0.51,0.27,0.24,0.28,0.12,0.32,
5.436,-0.51,0.27,0.24,0.26,0.11,0.29,
5.437,-0.51,0.27,0.24,0.26,0.11,0.29,
5.438,-0.46,0.27,0.20,0.26,0.11,0.29,
5.439,-0.46,0.27,0.20,0.26,0.11,0.29,
5.446,-0.46,0.27,0.20,0.23,0.10,0.26,
5.446,-0.46,0.27,0.20,0.23,0.10,0.26,
5.447,-0.43,0.28,0.18,0.23,0.10,0.26,
5.448,-0.43,0.28,0.18,0.23,0.10,0.26,
5.455,-0.43,0.28,0.18,0.18,0.11,0.22,
5.457,-0.43,0.28,0.18,0.18,0.11,0.22,
5.458,-0.41,0.28,0.18,0.18,0.11,0.22,
5.459,-0.41,0.28,0.18,0.18,0.11,0.22,
5.466,-0.41,0.28,0.18,0.14,0.11,0.17,
5.467,-0.41,0.28,0.18,0.14,0.11,0.17,
5.467,-0.38,0.26,0.20,0.14,0.11,0.17,
5.468,-0.38,0.26,0.20,0.14,0.11,0.17,
5.475,-0.38,0.26,0.20,0.09,0.11,0.13,
5.476,-0.38,0.26,0.20,0.09,0.11,0.13,
5.477,-0.40,0.25,0.18,0.09,0.11,0.13,
5.478,-0.40,0.25,0.18,0.09,0.11,0.13,
5.483,-0.40,0.25,0.18,0.06,0.10,0.09,
5.484,-0.40,0.25,0.18,0.06,0.10,0.09,
5.485,-0.38,0.27,0.18,0.06,0.10,0.09,
5.486,-0.38,0.27,0.18,0.06,0.10,0.09,
5.493,-0.38,0.27,0.18,0.04,0.11,0.06,
5.494,-0.38,0.27,0.18,0.04,0.11,0.06,
5.495,-0.33,0.29,0.12,0.04,0.11,0.06,
5.498,-0.33,0.29,0.12,0.04,0.11,0.06,
5.507,-0.33,0.29,0.12,0.02,0.11,0.04,
5.508,-0.33,0.29,0.12,0.02,0.11,0.04,
5.509,-0.29,0.35,0.02,0.02,0.11,0.04,
5.509,-0.29,0.35,0.02,0.02,0.11,0.04,
5.512,-0.29,0.35,0.02,0.00,0.11,0.03,
5.513,-0.29,0.35,0.02,0.00,0.11,0.03,
5.513,-0.26,0.41,-0.09,0.00,0.11,0.03,
5.513,-0.26,0.41,-0.09,0.00,0.11,0.03,
5.522,-0.26,0.41,-0.09,-0.02,0.11,0.01,
5.523,-0.26,0.41,-0.09,-0.02,0.11,0.01,
5.523,-0.27,0.47,-0.19,-0.02,0.11,0.01,
5.523,-0.27,0.47,-0.19,-0.02,0.11,0.01,
5.532,-0.27,0.47,-0.19,-0.07,0.11,-0.00,
5.533,-0.27,0.47,-0.19,-0.07,0.11,-0.00,
5.534,-0.29,0.51,-0.25,-0.07,0.11,-0.00,
5.534,-0.29,0.51,-0.25,-0.07,0.11,-0.00,
5.541,-0.29,0.51,-0.25,-0.12,0.13,-0.01,
5.542,-0.29,0.51,-0.25,-0.12,0.13,-0.01,
5.542,-0.26,0.52,-0.31,-0.12,0.13,-0.01,
5.543,-0.26,0.52,-0.31,-0.12,0.13,-0.01,
5.55,-0.26,0.52,-0.31,-0.12,0.13,-0.01,
5.551,-0.26,0.52,-0.31,-0.12,0.13,-0.01,
5.552,-0.26,0.52,-0.31,-0.12,0.13,-0.01,
5.553,-0.26,0.52,-0.31,-0.12,0.13,-0.01,
5.56,-0.26,0.52,-0.31,-0.18,0.16,-0.01,
5.561,-0.26,0.52,-0.31,-0.18,0.16,-0.01,
5.561,-0.11,0.48,-0.56,-0.18,0.16,-0.01,
5.562,-0.11,0.48,-0.56,-0.18,0.16,-0.01,
5.569,-0.11,0.48,-0.56,-0.24,0.19,-0.01,
5.57,-0.11,0.48,-0.56,-0.24,0.19,-0.01,
5.571,0.08,0.39,-0.79,-0.24,0.19,-0.01,
5.572,0.08,0.39,-0.79,-0.24,0.19,-0.01,
5.58,0.08,0.39,-0.79,-0.31,0.21,-0.03,
5.581,0.08,0.39,-0.79,-0.31,0.21,-0.03,
5.581,0.29,0.27,-1.09,-0.31,0.21,-0.03,
5.582,0.29,0.27,-1.09,-0.31,0.21,-0.03,
5.588,0.29,0.27,-1.09,-0.42,0.22,-0.08,
5.589,0.29,0.27,-1.09,-0.42,0.22,-0.08,
5.59,0.56,0.13,-1.43,-0.42,0.22,-0.08,
5.59,0.56,0.13,-1.43,-0.42,0.22,-0.08,
5.605,0.56,0.13,-1.43,-0.57,0.21,-0.17,
5.606,0.56,0.13,-1.43,-0.57,0.21,-0.17,
5.607,0.78,-0.00,-1.78,-0.57,0.21,-0.17,
5.607,0.78,-0.00,-1.78,-0.57,0.21,-0.17,
5.608,0.78,-0.00,-1.78,-0.77,0.19,-0.31,
5.608,0.78,-0.00,-1.78,-0.77,0.19,-0.31,
5.609,0.96,-0.07,-2.12,-0.77,0.19,-0.31,
5.61,0.96,-0.07,-2.12,-0.77,0.19,-0.31,
5.619,0.96,-0.07,-2.12,-0.99,0.16,-0.47,
5.62,0.96,-0.07,-2.12,-0.99,0.16,-0.47,
5.621,1.05,-0.07,-2.41,-0.99,0.16,-0.47,
5.621,1.05,-0.07,-2.41,-0.99,0.16,-0.47,
5.626,1.05,-0.07,-2.41,-1.23,0.11,-0.63,
5.627,1.05,-0.07,-2.41,-1.23,0.11,-0.63,
5.627,0.99,0.01,-2.61,-1.23,0.11,-0.63,
5.628,0.99,0.01,-2.61,-1.23,0.11,-0.63,
5.636,0.99,0.01,-2.61,-1.47,0.05,-0.75,
5.637,0.99,0.01,-2.61,-1.47,0.05,-0.75,
5.637,0.85,0.12,-2.74,-1.47,0.05,-0.75,
5.638,0.85,0.12,-2.74,-1.47,0.05,-0.75,
5.645,0.85,0.12,-2.74,-1.67,-0.00,-0.84,
5.646,0.85,0.12,-2.74,-1.67,-0.00,-0.84,
5.647,0.65,0.24,-2.80,-1.67,-0.00,-0.84,
5.648,0.65,0.24,-2.80,-1.67,-0.00,-0.84,
5.655,0.65,0.24,-2.80,-1.81,-0.04,-0.84,
5.657,0.65,0.24,-2.80,-1.81,-0.04,-0.84,
5.657,0.49,0.35,-2.73,-1.81,-0.04,-0.84,
5.658,0.49,0.35,-2.73,-1.81,-0.04,-0.84,
5.664,0.49,0.35,-2.73,-1.88,-0.07,-0.77,
5.665,0.49,0.35,-2.73,-1.88,-0.07,-0.77,
5.666,0.43,0.44,-2.59,-1.88,-0.07,-0.77,
5.666,0.43,0.44,-2.59,-1.88,-0.07,-0.77,
5.674,0.43,0.44,-2.59,-1.87,-0.07,-0.63,
5.675,0.43,0.44,-2.59,-1.87,-0.07,-0.63,
5.676,0.42,0.55,-2.47,-1.87,-0.07,-0.63,
5.677,0.42,0.55,-2.47,-1.87,-0.07,-0.63,
5.684,0.42,0.55,-2.47,-1.79,-0.06,-0.46,
5.685,0.42,0.55,-2.47,-1.79,-0.06,-0.46,
5.686,0.50,0.62,-2.45,-1.79,-0.06,-0.46,
5.687,0.50,0.62,-2.45,-1.79,-0.06,-0.46,
5.693,0.50,0.62,-2.45,-1.65,-0.06,-0.29,
5.694,0.50,0.62,-2.45,-1.65,-0.06,-0.29,
5.695,0.59,0.67,-2.61,-1.65,-0.06,-0.29,
5.696,0.59,0.67,-2.61,-1.65,-0.06,-0.29,
5.705,0.59,0.67,-2.61,-1.48,-0.06,-0.16,
5.706,0.59,0.67,-2.61,-1.48,-0.06,-0.16,
5.707,0.75,0.67,-2.93,-1.48,-0.06,-0.16,
5.707,0.75,0.67,-2.93,-1.48,-0.06,-0.16,
5.714,0.75,0.67,-2.93,-1.33,-0.07,-0.09,
5.715,0.75,0.67,-2.93,-1.33,-0.07,-0.09,
5.716,0.95,0.57,-3.27,-1.33,-0.07,-0.09,
5.716,0.95,0.57,-3.27,-1.33,-0.07,-0.09,
5.721,0.95,0.57,-3.27,-1.25,-0.08,-0.07,
5.722,0.95,0.57,-3.27,-1.25,-0.08,-0.07,
5.723,1.13,0.41,-3.50,-1.25,-0.08,-0.07,
5.723,1.13,0.41,-3.50,-1.25,-0.08,-0.07,
5.733,1.13,0.41,-3.50,-1.25,-0.09,-0.11,
5.734,1.13,0.41,-3.50,-1.25,-0.09,-0.11,
5.735,1.33,0.23,-3.55,-1.25,-0.09,-0.11,
5.736,1.33,0.23,-3.55,-1.25,-0.09,-0.11,
5.741,1.33,0.23,-3.55,-1.32,-0.10,-0.21,
5.742,1.33,0.23,-3.55,-1.32,-0.10,-0.21,
5.742,1.44,0.07,-3.39,-1.32,-0.10,-0.21,
5.743,1.44,0.07,-3.39,-1.32,-0.10,-0.21,
5.75,1.44,0.07,-3.39,-1.32,-0.10,-0.21,
5.751,1.44,0.07,-3.39,-1.32,-0.10,-0.21,
5.752,1.44,0.07,-3.39,-1.32,-0.10,-0.21,
5.753,1.44,0.07,-3.39,-1.32,-0.10,-0.21,
5.759,1.44,0.07,-3.39,-1.39,-0.09,-0.34,
5.76,1.44,0.07,-3.39,-1.39,-0.09,-0.34,
5.761,1.54,-0.01,-2.91,-1.39,-0.09,-0.34,
5.761,1.54,-0.01,-2.91,-1.39,-0.09,-0.34,
5.77,1.54,-0.01,-2.91,-1.39,-0.08,-0.49,
5.772,1.54,-0.01,-2.91,-1.39,-0.08,-0.49,
5.773,1.50,0.15,-2.73,-1.39,-0.08,-0.49,
5.774,1.50,0.15,-2.73,-1.39,-0.08,-0.49,
5.779,1.50,0.15,-2.73,-1.30,-0.06,-0.61,
5.78,1.50,0.15,-2.73,-1.30,-0.06,-0.61,
5.781,1.39,0.40,-2.74,-1.30,-0.06,-0.61,
5.782,1.39,0.40,-2.74,-1.30,-0.06,-0.61,
5.788,1.39,0.40,-2.74,-1.15,-0.03,-0.69,
5.79,1.39,0.40,-2.74,-1.15,-0.03,-0.69,
5.791,1.22,0.70,-2.86,-1.15,-0.03,-0.69,
5.792,1.22,0.70,-2.86,-1.15,-0.03,-0.69,
5.803,1.22,0.70,-2.86,-0.97,-0.00,-0.71,
5.805,1.22,0.70,-2.86,-0.97,-0.00,-0.71,
5.805,1.07,1.02,-3.13,-0.97,-0.00,-0.71,
5.806,1.07,1.02,-3.13,-0.97,-0.00,-0.71,
5.807,1.07,1.02,-3.13,-0.86,0.02,-0.67,
5.808,1.07,1.02,-3.13,-0.86,0.02,-0.67,
5.808,0.97,1.29,-3.42,-0.86,0.02,-0.67,
5.809,0.97,1.29,-3.42,-0.86,0.02,-0.67,
5.816,0.97,1.29,-3.42,-0.84,0.04,-0.58,
5.817,0.97,1.29,-3.42,-0.84,0.04,-0.58,
5.818,1.00,1.56,-3.57,-0.84,0.04,-0.58,
5.818,1.00,1.56,-3.57,-0.84,0.04,-0.58,
5.826,1.00,1.56,-3.57,-0.94,0.05,-0.46,
5.827,1.00,1.56,-3.57,-0.94,0.05,-0.46,
5.828,1.15,1.81,-3.49,-0.94,0.05,-0.46,
5.828,1.15,1.81,-3.49,-0.94,0.05,-0.46,
5.836,1.15,1.81,-3.49,-1.11,0.03,-0.35,
5.837,1.15,1.81,-3.49,-1.11,0.03,-0.35,
5.838,1.32,2.04,-3.15,-1.11,0.03,-0.35,
5.839,1.32,2.04,-3.15,-1.11,0.03,-0.35,
5.845,1.32,2.04,-3.15,-1.28,0.01,-0.29,
5.847,1.32,2.04,-3.15,-1.28,0.01,-0.29,
5.848,1.42,2.29,-2.70,-1.28,0.01,-0.29,
5.849,1.42,2.29,-2.70,-1.28,0.01,-0.29,
5.855,1.42,2.29,-2.70,-1.39,-0.01,-0.29,
5.857,1.42,2.29,-2.70,-1.39,-0.01,-0.29,
5.858,1.46,2.51,-2.30,-1.39,-0.01,-0.29,
5.859,1.46,2.51,-2.30,-1.39,-0.01,-0.29,
5.865,1.46,2.51,-2.30,-1.39,-0.02,-0.34,
5.866,1.46,2.51,-2.30,-1.39,-0.02,-0.34,
5.867,1.44,2.64,-2.08,-1.39,-0.02,-0.34,
5.868,1.44,2.64,-2.08,-1.39,-0.02,-0.34,
5.874,1.44,2.64,-2.08,-1.27,-0.03,-0.42,
5.875,1.44,2.64,-2.08,-1.27,-0.03,-0.42,
5.875,1.55,2.70,-2.04,-1.27,-0.03,-0.42,
5.876,1.55,2.70,-2.04,-1.27,-0.03,-0.42,
5.883,1.55,2.70,-2.04,-1.10,-0.02,-0.49,
5.884,1.55,2.70,-2.04,-1.10,-0.02,-0.49,
5.884,1.81,2.64,-2.05,-1.10,-0.02,-0.49,
5.885,1.81,2.64,-2.05,-1.10,-0.02,-0.49,
5.893,1.81,2.64,-2.05,-0.91,0.00,-0.57,
5.893,1.81,2.64,-2.05,-0.91,0.00,-0.57,
5.894,2.13,2.52,-2.18,-0.91,0.00,-0.57,
5.895,2.13,2.52,-2.18,-0.91,0.00,-0.57,
5.905,2.13,2.52,-2.18,-0.78,0.04,-0.68,
5.906,2.13,2.52,-2.18,-0.78,0.04,-0.68,
5.906,2.31,2.42,-2.44,-0.78,0.04,-0.68,
5.908,2.31,2.42,-2.44,-0.78,0.04,-0.68,
5.912,2.31,2.42,-2.44,-0.71,0.09,-0.84,
5.912,2.31,2.42,-2.44,-0.71,0.09,-0.84,
5.913,2.22,2.39,-2.78,-0.71,0.09,-0.84,
5.913,2.22,2.39,-2.78,-0.71,0.09,-0.84,
5.921,2.22,2.39,-2.78,-0.74,0.16,-1.02,
5.922,2.22,2.39,-2.78,-0.74,0.16,-1.02,
5.923,1.91,2.50,-3.05,-0.74,0.16,-1.02,
5.923,1.91,2.50,-3.05,-0.74,0.16,-1.02,
5.933,1.91,2.50,-3.05,-0.87,0.21,-1.17,
5.935,1.91,2.50,-3.05,-0.87,0.21,-1.17,
5.936,1.53,2.70,-3.25,-0.87,0.21,-1.17,
5.937,1.53,2.70,-3.25,-0.87,0.21,-1.17,
5.941,1.53,2.70,-3.25,-1.10,0.25,-1.21,
5.942,1.53,2.70,-3.25,-1.10,0.25,-1.21,
5.944,1.22,2.91,-3.50,-1.10,0.25,-1.21,
5.944,1.22,2.91,-3.50,-1.10,0.25,-1.21,
5.952,1.22,2.91,-3.50,-1.10,0.25,-1.21,
5.953,1.22,2.91,-3.50,-1.10,0.25,-1.21,
5.954,1.22,2.91,-3.50,-1.10,0.25,-1.21,
5.955,1.22,2.91,-3.50,-1.10,0.25,-1.21,
5.96,1.22,2.91,-3.50,-1.39,0.25,-1.11,
5.961,1.22,2.91,-3.50,-1.39,0.25,-1.11,
5.962,1.02,3.03,-4.18,-1.39,0.25,-1.11,
5.963,1.02,3.03,-4.18,-1.39,0.25,-1.11,
5.969,1.02,3.03,-4.18,-1.72,0.22,-0.90,
5.971,1.02,3.03,-4.18,-1.72,0.22,-0.90,
5.972,1.09,2.87,-4.32,-1.72,0.22,-0.90,
5.972,1.09,2.87,-4.32,-1.72,0.22,-0.90,
5.979,1.09,2.87,-4.32,-2.08,0.17,-0.63,
5.98,1.09,2.87,-4.32,-2.08,0.17,-0.63,
5.98,1.37,2.60,-4.19,-2.08,0.17,-0.63,
5.981,1.37,2.60,-4.19,-2.08,0.17,-0.63,
5.988,1.37,2.60,-4.19,-2.43,0.10,-0.40,
5.989,1.37,2.60,-4.19,-2.43,0.10,-0.40,
5.989,1.79,2.30,-3.96,-2.43,0.10,-0.40,
5.99,1.79,2.30,-3.96,-2.43,0.10,-0.40,
6.005,1.79,2.30,-3.96,-2.65,0.06,-0.27,
6.006,1.79,2.30,-3.96,-2.65,0.06,-0.27,
6.007,2.26,2.04,-3.92,-2.65,0.06,-0.27,
6.007,2.26,2.04,-3.92,-2.65,0.06,-0.27,
6.008,2.26,2.04,-3.92,-2.70,0.08,-0.28,
6.009,2.26,2.04,-3.92,-2.70,0.08,-0.28,
6.009,2.61,1.83,-3.99,-2.70,0.08,-0.28,
6.01,2.61,1.83,-3.99,-2.70,0.08,-0.28,
6.017,2.61,1.83,-3.99,-2.57,0.15,-0.43,
6.017,2.61,1.83,-3.99,-2.57,0.15,-0.43,
6.018,2.72,1.74,-4.08,-2.57,0.15,-0.43,
6.018,2.72,1.74,-4.08,-2.57,0.15,-0.43,
6.039,2.72,1.74,-4.08,-2.35,0.25,-0.66,
6.04,2.72,1.74,-4.08,-2.35,0.25,-0.66,
6.041,2.54,1.75,-4.00,-2.35,0.25,-0.66,
6.041,2.54,1.75,-4.00,-2.35,0.25,-0.66,
6.042,2.54,1.75,-4.00,-1.89,0.42,-1.03,
6.043,2.54,1.75,-4.00,-1.89,0.42,-1.03,
6.043,2.54,1.75,-4.00,-1.89,0.42,-1.03,
6.044,2.07,1.86,-3.61,-1.89,0.42,-1.03,
6.044,2.07,1.86,-3.61,-1.89,0.42,-1.03,
6.045,2.07,1.86,-3.61,-1.89,0.42,-1.03,
6.051,2.07,1.86,-3.61,-1.89,0.42,-1.03,
6.052,2.07,1.86,-3.61,-1.89,0.42,-1.03,
6.053,2.07,1.86,-3.61,-1.89,0.42,-1.03,
6.053,2.07,1.86,-3.61,-1.89,0.42,-1.03,
6.059,2.07,1.86,-3.61,-1.56,0.49,-0.97,
6.061,2.07,1.86,-3.61,-1.56,0.49,-0.97,
6.062,0.76,2.37,-2.91,-1.56,0.49,-0.97,
6.063,0.76,2.37,-2.91,-1.56,0.49,-0.97,
6.069,0.76,2.37,-2.91,-1.56,0.49,-0.97,
6.071,0.76,2.37,-2.91,-1.56,0.49,-0.97,
6.072,0.76,2.37,-2.91,-1.56,0.49,-0.97,
6.073,0.76,2.37,-2.91,-1.56,0.49,-0.97,
6.078,0.76,2.37,-2.91,-1.25,0.27,-0.28,
6.079,0.76,2.37,-2.91,-1.25,0.27,-0.28,
6.08,0.13,2.62,-2.87,-1.25,0.27,-0.28,
6.08,0.13,2.62,-2.87,-1.25,0.27,-0.28,
6.089,0.13,2.62,-2.87,-1.14,0.07,0.12,
6.09,0.13,2.62,-2.87,-1.14,0.07,0.12,
6.091,0.07,2.65,-2.98,-1.14,0.07,0.12,
6.091,0.07,2.65,-2.98,-1.14,0.07,0.12,
6.103,0.07,2.65,-2.98,-1.06,-0.12,0.43,
6.104,0.07,2.65,-2.98,-1.06,-0.12,0.43,
6.105,0.19,2.67,-3.18,-1.06,-0.12,0.43,
6.105,0.19,2.67,-3.18,-1.06,-0.12,0.43,
6.107,0.19,2.67,-3.18,-1.05,-0.28,0.65,
6.107,0.19,2.67,-3.18,-1.05,-0.28,0.65,
6.108,0.45,2.66,-3.52,-1.05,-0.28,0.65,
6.108,0.45,2.66,-3.52,-1.05,-0.28,0.65,
6.117,0.45,2.66,-3.52,-1.09,-0.39,0.76,
6.118,0.45,2.66,-3.52,-1.09,-0.39,0.76,
6.119,0.78,2.61,-3.83,-1.09,-0.39,0.76,
6.119,0.78,2.61,-3.83,-1.09,-0.39,0.76,
6.127,0.78,2.61,-3.83,-1.19,-0.42,0.74,
6.128,0.78,2.61,-3.83,-1.19,-0.42,0.74,
6.128,1.12,2.53,-4.08,-1.19,-0.42,0.74,
6.129,1.12,2.53,-4.08,-1.19,-0.42,0.74,
6.136,1.12,2.53,-4.08,-1.35,-0.39,0.61,
6.137,1.12,2.53,-4.08,-1.35,-0.39,0.61,
6.138,1.42,2.43,-4.19,-1.35,-0.39,0.61,
6.138,1.42,2.43,-4.19,-1.35,-0.39,0.61,
6.145,1.42,2.43,-4.19,-1.52,-0.30,0.38,
6.146,1.42,2.43,-4.19,-1.52,-0.30,0.38,
6.147,1.63,2.32,-4.12,-1.52,-0.30,0.38,
6.148,1.63,2.32,-4.12,-1.52,-0.30,0.38,
6.155,1.63,2.32,-4.12,-1.67,-0.17,0.10,
6.156,1.63,2.32,-4.12,-1.67,-0.17,0.10,
6.158,1.63,2.24,-4.00,-1.67,-0.17,0.10,
6.158,1.63,2.24,-4.00,-1.67,-0.17,0.10,
6.165,1.63,2.24,-4.00,-1.76,-0.02,-0.17,
6.166,1.63,2.24,-4.00,-1.76,-0.02,-0.17,
6.167,1.45,2.19,-3.86,-1.76,-0.02,-0.17,
6.167,1.45,2.19,-3.86,-1.76,-0.02,-0.17,
6.174,1.45,2.19,-3.86,-1.77,0.11,-0.35,
6.175,1.45,2.19,-3.86,-1.77,0.11,-0.35,
6.175,1.18,2.28,-3.69,-1.77,0.11,-0.35,
6.176,1.18,2.28,-3.69,-1.77,0.11,-0.35,
6.183,1.18,2.28,-3.69,-1.71,0.19,-0.45,
6.184,1.18,2.28,-3.69,-1.71,0.19,-0.45,
6.189,0.87,2.52,-3.61,-1.71,0.19,-0.45,
6.19,0.87,2.52,-3.61,-1.71,0.19,-0.45,
6.193,0.87,2.52,-3.61,-1.63,0.22,-0.53,
6.193,0.87,2.52,-3.61,-1.63,0.22,-0.53,
6.194,0.72,2.87,-3.55,-1.63,0.22,-0.53,
6.195,0.72,2.87,-3.55,-1.63,0.22,-0.53,
6.205,0.72,2.87,-3.55,-1.57,0.19,-0.53,
6.206,0.72,2.87,-3.55,-1.57,0.19,-0.53,
6.207,0.70,3.15,-3.46,-1.57,0.19,-0.53,
6.207,0.70,3.15,-3.46,-1.57,0.19,-0.53,
6.212,0.70,3.15,-3.46,-1.55,0.13,-0.49,
6.213,0.70,3.15,-3.46,-1.55,0.13,-0.49,
6.213,0.72,3.31,-3.38,-1.55,0.13,-0.49,
6.214,0.72,3.31,-3.38,-1.55,0.13,-0.49,
6.225,0.72,3.31,-3.38,-1.58,0.09,-0.46,
6.226,0.72,3.31,-3.38,-1.58,0.09,-0.46,
6.226,0.75,3.33,-3.20,-1.58,0.09,-0.46,
6.226,0.75,3.33,-3.20,-1.58,0.09,-0.46,
6.232,0.75,3.33,-3.20,-1.65,0.04,-0.45,
6.233,0.75,3.33,-3.20,-1.65,0.04,-0.45,
6.234,0.71,3.27,-2.95,-1.65,0.04,-0.45,
6.234,0.71,3.27,-2.95,-1.65,0.04,-0.45,
6.241,0.71,3.27,-2.95,-1.70,-0.03,-0.46,
6.242,0.71,3.27,-2.95,-1.70,-0.03,-0.46,
6.243,0.61,3.25,-2.70,-1.70,-0.03,-0.46,
6.243,0.61,3.25,-2.70,-1.70,-0.03,-0.46,
6.251,0.61,3.25,-2.70,-1.70,-0.03,-0.46,
6.252,0.61,3.25,-2.70,-1.70,-0.03,-0.46,
6.253,0.61,3.25,-2.70,-1.70,-0.03,-0.46,
6.254,0.61,3.25,-2.70,-1.70,-0.03,-0.46,
6.259,0.61,3.25,-2.70,-1.71,-0.06,-0.47,
6.261,0.61,3.25,-2.70,-1.71,-0.06,-0.47,
6.262,0.53,3.44,-2.51,-1.71,-0.06,-0.47,
6.263,0.53,3.44,-2.51,-1.71,-0.06,-0.47,
6.269,0.53,3.44,-2.51,-1.68,-0.07,-0.47,
6.271,0.53,3.44,-2.51,-1.68,-0.07,-0.47,
6.272,0.53,3.53,-2.55,-1.68,-0.07,-0.47,
6.273,0.53,3.53,-2.55,-1.68,-0.07,-0.47,
6.278,0.53,3.53,-2.55,-1.62,-0.07,-0.46,
6.279,0.53,3.53,-2.55,-1.62,-0.07,-0.46,
6.28,0.63,3.68,-2.63,-1.62,-0.07,-0.46,
6.28,0.63,3.68,-2.63,-1.62,-0.07,-0.46,
6.288,0.63,3.68,-2.63,-1.59,-0.07,-0.44,
6.289,0.63,3.68,-2.63,-1.59,-0.07,-0.44,
6.29,0.74,3.81,-2.68,-1.59,-0.07,-0.44,
6.29,0.74,3.81,-2.68,-1.59,-0.07,-0.44,
6.297,0.74,3.81,-2.68,-1.61,-0.06,-0.44,
6.298,0.74,3.81,-2.68,-1.61,-0.06,-0.44,
6.299,0.87,3.96,-2.61,-1.61,-0.06,-0.44,
6.299,0.87,3.96,-2.61,-1.61,-0.06,-0.44,
6.307,0.87,3.96,-2.61,-1.66,-0.03,-0.47,
6.308,0.87,3.96,-2.61,-1.66,-0.03,-0.47,
6.308,0.98,4.10,-2.42,-1.66,-0.03,-0.47,
6.309,0.98,4.10,-2.42,-1.66,-0.03,-0.47,
6.317,0.98,4.10,-2.42,-1.74,0.02,-0.53,
6.317,0.98,4.10,-2.42,-1.74,0.02,-0.53,
6.317,1.03,4.17,-2.24,-1.74,0.02,-0.53,
6.318,1.03,4.17,-2.24,-1.74,0.02,-0.53,
6.326,1.03,4.17,-2.24,-1.82,0.08,-0.60,
6.327,1.03,4.17,-2.24,-1.82,0.08,-0.60,
6.328,1.09,4.18,-2.10,-1.82,0.08,-0.60,
6.328,1.09,4.18,-2.10,-1.82,0.08,-0.60,
6.342,1.09,4.18,-2.10,-1.88,0.16,-0.68,
6.343,1.09,4.18,-2.10,-1.88,0.16,-0.68,
6.343,1.19,4.17,-2.07,-1.88,0.16,-0.68,
6.344,1.19,4.17,-2.07,-1.88,0.16,-0.68,
6.346,1.19,4.17,-2.07,-1.90,0.24,-0.74,
6.346,1.19,4.17,-2.07,-1.90,0.24,-0.74,
6.347,1.29,4.14,-2.02,-1.90,0.24,-0.74,
6.347,1.29,4.14,-2.02,-1.90,0.24,-0.74,
6.361,1.29,4.14,-2.02,-1.90,0.31,-0.79,
6.362,1.29,4.14,-2.02,-1.90,0.31,-0.79,
6.362,1.35,4.08,-1.95,-1.90,0.31,-0.79,
6.363,1.35,4.08,-1.95,-1.90,0.31,-0.79,
6.369,1.35,4.08,-1.95,-1.87,0.39,-0.83,
6.37,1.35,4.08,-1.95,-1.87,0.39,-0.83,
6.371,1.34,4.00,-1.92,-1.87,0.39,-0.83,
6.371,1.34,4.00,-1.92,-1.87,0.39,-0.83,
6.374,1.34,4.00,-1.92,-1.82,0.45,-0.83,
6.375,1.34,4.00,-1.92,-1.82,0.45,-0.83,
6.375,1.27,3.90,-1.95,-1.82,0.45,-0.83,
6.376,1.27,3.90,-1.95,-1.82,0.45,-0.83,
6.384,1.27,3.90,-1.95,-1.75,0.50,-0.82,
6.385,1.27,3.90,-1.95,-1.75,0.50,-0.82,
6.387,1.24,3.78,-2.04,-1.75,0.50,-0.82,
6.388,1.24,3.78,-2.04,-1.75,0.50,-0.82,
6.393,1.24,3.78,-2.04,-1.66,0.51,-0.79,
6.395,1.24,3.78,-2.04,-1.66,0.51,-0.79,
6.396,1.23,3.67,-2.20,-1.66,0.51,-0.79,
6.397,1.23,3.67,-2.20,-1.66,0.51,-0.79,
6.411,1.23,3.67,-2.20,-1.56,0.50,-0.74,
6.412,1.23,3.67,-2.20,-1.56,0.50,-0.74,
6.412,1.25,3.60,-2.33,-1.56,0.50,-0.74,
6.412,1.25,3.60,-2.33,-1.56,0.50,-0.74,
6.413,1.25,3.60,-2.33,-1.46,0.45,-0.67,
6.413,1.25,3.60,-2.33,-1.46,0.45,-0.67,
6.413,1.29,3.56,-2.39,-1.46,0.45,-0.67,
6.414,1.29,3.56,-2.39,-1.46,0.45,-0.67,
6.426,1.29,3.56,-2.39,-1.37,0.41,-0.60,
6.427,1.29,3.56,-2.39,-1.37,0.41,-0.60,
6.431,1.32,3.53,-2.38,-1.37,0.41,-0.60,
6.433,1.32,3.53,-2.38,-1.37,0.41,-0.60,
6.433,1.32,3.53,-2.38,-1.29,0.36,-0.53,
6.434,1.32,3.53,-2.38,-1.29,0.36,-0.53,
6.434,1.32,3.46,-2.33,-1.29,0.36,-0.53,
6.435,1.32,3.46,-2.33,-1.29,0.36,-0.53,
6.441,1.32,3.46,-2.33,-1.23,0.33,-0.47,
6.442,1.32,3.46,-2.33,-1.23,0.33,-0.47,
6.442,1.34,3.37,-2.19,-1.23,0.33,-0.47,
6.443,1.34,3.37,-2.19,-1.23,0.33,-0.47,
6.45,1.34,3.37,-2.19,-1.23,0.33,-0.47,
6.451,1.34,3.37,-2.19,-1.23,0.33,-0.47,
6.451,1.34,3.37,-2.19,-1.23,0.33,-0.47,
6.452,1.34,3.37,-2.19,-1.23,0.33,-0.47,
6.46,1.34,3.37,-2.19,-1.16,0.31,-0.43,
6.461,1.34,3.37,-2.19,-1.16,0.31,-0.43,
6.462,1.35,3.22,-1.71,-1.16,0.31,-0.43,
6.462,1.35,3.22,-1.71,-1.16,0.31,-0.43,
6.468,1.35,3.22,-1.71,-1.09,0.30,-0.41,
6.47,1.35,3.22,-1.71,-1.09,0.30,-0.41,
6.47,1.32,3.14,-1.39,-1.09,0.30,-0.41,
6.471,1.32,3.14,-1.39,-1.09,0.30,-0.41,
6.478,1.32,3.14,-1.39,-1.00,0.31,-0.37,
6.479,1.32,3.14,-1.39,-1.00,0.31,-0.37,
6.48,1.26,3.07,-1.08,-1.00,0.31,-0.37,
6.48,1.26,3.07,-1.08,-1.00,0.31,-0.37,
6.488,1.26,3.07,-1.08,-0.89,0.34,-0.33,
6.488,1.26,3.07,-1.08,-0.89,0.34,-0.33,
6.489,1.21,3.06,-0.81,-0.89,0.34,-0.33,
6.49,1.21,3.06,-0.81,-0.89,0.34,-0.33,
6.503,1.21,3.06,-0.81,-0.79,0.37,-0.27,
6.504,1.21,3.06,-0.81,-0.79,0.37,-0.27,
6.505,1.17,3.10,-0.54,-0.79,0.37,-0.27,
6.505,1.17,3.10,-0.54,-0.79,0.37,-0.27,
6.507,1.17,3.10,-0.54,-0.70,0.41,-0.23,
6.508,1.17,3.10,-0.54,-0.70,0.41,-0.23,
6.508,1.16,3.18,-0.30,-0.70,0.41,-0.23,
6.509,1.16,3.18,-0.30,-0.70,0.41,-0.23,
6.517,1.16,3.18,-0.30,-0.64,0.43,-0.19,
6.518,1.16,3.18,-0.30,-0.64,0.43,-0.19,
6.518,1.15,3.30,-0.13,-0.64,0.43,-0.19,
6.518,1.15,3.30,-0.13,-0.64,0.43,-0.19,
6.526,1.15,3.30,-0.13,-0.62,0.45,-0.18,
6.527,1.15,3.30,-0.13,-0.62,0.45,-0.18,
6.527,1.14,3.43,-0.03,-0.62,0.45,-0.18,
6.528,1.14,3.43,-0.03,-0.62,0.45,-0.18,
6.536,1.14,3.43,-0.03,-0.64,0.47,-0.19,
6.537,1.14,3.43,-0.03,-0.64,0.47,-0.19,
6.537,1.13,3.50,0.01,-0.64,0.47,-0.19,
6.538,1.13,3.50,0.01,-0.64,0.47,-0.19,
6.545,1.13,3.50,0.01,-0.71,0.49,-0.21,
6.546,1.13,3.50,0.01,-0.71,0.49,-0.21,
6.546,1.14,3.52,0.07,-0.71,0.49,-0.21,
6.547,1.14,3.52,0.07,-0.71,0.49,-0.21,
6.555,1.14,3.52,0.07,-0.82,0.50,-0.25,
6.557,1.14,3.52,0.07,-0.82,0.50,-0.25,
6.557,1.13,3.50,0.14,-0.82,0.50,-0.25,
6.558,1.13,3.50,0.14,-0.82,0.50,-0.25,
6.565,1.13,3.50,0.14,-0.93,0.50,-0.30,
6.566,1.13,3.50,0.14,-0.93,0.50,-0.30,
6.567,1.11,3.37,0.17,-0.93,0.50,-0.30,
6.567,1.11,3.37,0.17,-0.93,0.50,-0.30,
6.574,1.11,3.37,0.17,-1.03,0.50,-0.35,
6.574,1.11,3.37,0.17,-1.03,0.50,-0.35,
6.575,1.04,3.18,0.21,-1.03,0.50,-0.35,
6.576,1.04,3.18,0.21,-1.03,0.50,-0.35,
6.584,1.04,3.18,0.21,-1.09,0.49,-0.39,
6.585,1.04,3.18,0.21,-1.09,0.49,-0.39,
6.585,0.92,2.93,0.30,-1.09,0.49,-0.39,
6.586,0.92,2.93,0.30,-1.09,0.49,-0.39,
6.593,0.92,2.93,0.30,-1.10,0.47,-0.39,
6.594,0.92,2.93,0.30,-1.10,0.47,-0.39,
6.595,0.85,2.66,0.44,-1.10,0.47,-0.39,
6.595,0.85,2.66,0.44,-1.10,0.47,-0.39,
6.602,0.85,2.66,0.44,-1.05,0.44,-0.36,
6.603,0.85,2.66,0.44,-1.05,0.44,-0.36,
6.605,0.83,2.43,0.63,-1.05,0.44,-0.36,
6.606,0.83,2.43,0.63,-1.05,0.44,-0.36,
6.611,0.83,2.43,0.63,-0.94,0.40,-0.30,
6.612,0.83,2.43,0.63,-0.94,0.40,-0.30,
6.613,0.90,2.23,0.75,-0.94,0.40,-0.30,
6.613,0.90,2.23,0.75,-0.94,0.40,-0.30,
6.621,0.90,2.23,0.75,-0.78,0.37,-0.25,
6.623,0.90,2.23,0.75,-0.78,0.37,-0.25,
6.623,0.97,2.09,0.79,-0.78,0.37,-0.25,
6.624,0.97,2.09,0.79,-0.78,0.37,-0.25,
6.64,0.97,2.09,0.79,-0.60,0.37,-0.20,
6.641,0.97,2.09,0.79,-0.60,0.37,-0.20,
6.641,1.01,2.01,0.82,-0.60,0.37,-0.20,
6.641,1.01,2.01,0.82,-0.60,0.37,-0.20,
6.641,1.01,2.01,0.82,-0.42,0.39,-0.18,
6.642,1.01,2.01,0.82,-0.42,0.39,-0.18,
6.642,1.01,1.95,0.79,-0.42,0.39,-0.18,
6.642,1.01,1.95,0.79,-0.42,0.39,-0.18,
6.649,1.01,1.95,0.79,-0.42,0.39,-0.18,
6.65,1.01,1.95,0.79,-0.42,0.39,-0.18,
6.65,1.01,1.95,0.79,-0.42,0.39,-0.18,
6.65,1.01,1.95,0.79,-0.42,0.39,-0.18,
6.66,1.01,1.95,0.79,-0.28,0.43,-0.16,
6.661,1.01,1.95,0.79,-0.28,0.43,-0.16,
6.665,0.87,1.88,0.57,-0.28,0.43,-0.16,
6.666,0.87,1.88,0.57,-0.28,0.43,-0.16,
6.669,0.87,1.88,0.57,-0.18,0.46,-0.17,
6.67,0.87,1.88,0.57,-0.18,0.46,-0.17,
6.671,0.72,1.68,0.36,-0.18,0.46,-0.17,
6.671,0.72,1.68,0.36,-0.18,0.46,-0.17,
6.679,0.72,1.68,0.36,-0.11,0.45,-0.19,
6.68,0.72,1.68,0.36,-0.11,0.45,-0.19,
6.68,0.55,1.42,0.22,-0.11,0.45,-0.19,
6.681,0.55,1.42,0.22,-0.11,0.45,-0.19,
6.688,0.55,1.42,0.22,-0.07,0.39,-0.21,
6.689,0.55,1.42,0.22,-0.07,0.39,-0.21,
6.689,0.38,1.16,0.16,-0.07,0.39,-0.21,
6.69,0.38,1.16,0.16,-0.07,0.39,-0.21,
6.703,0.38,1.16,0.16,-0.02,0.28,-0.21,
6.704,0.38,1.16,0.16,-0.02,0.28,-0.21,
6.705,0.29,0.89,0.20,-0.02,0.28,-0.21,
6.706,0.29,0.89,0.20,-0.02,0.28,-0.21,
6.707,0.29,0.89,0.20,0.04,0.14,-0.18,
6.708,0.29,0.89,0.20,0.04,0.14,-0.18,
6.708,0.25,0.71,0.36,0.04,0.14,-0.18,
6.709,0.25,0.71,0.36,0.04,0.14,-0.18,
6.72,0.25,0.71,0.36,0.13,0.00,-0.12,
6.72,0.25,0.71,0.36,0.13,0.00,-0.12,
6.721,0.24,0.59,0.46,0.13,0.00,-0.12,
6.721,0.24,0.59,0.46,0.13,0.00,-0.12,
6.726,0.24,0.59,0.46,0.23,-0.10,-0.06,
6.727,0.24,0.59,0.46,0.23,-0.10,-0.06,
6.727,0.33,0.48,0.56,0.23,-0.10,-0.06,
6.727,0.33,0.48,0.56,0.23,-0.10,-0.06,
6.736,0.33,0.48,0.56,0.32,-0.16,-0.02,
6.737,0.33,0.48,0.56,0.32,-0.16,-0.02,
6.738,0.45,0.39,0.65,0.32,-0.16,-0.02,
6.738,0.45,0.39,0.65,0.32,-0.16,-0.02,
6.746,0.45,0.39,0.65,0.41,-0.16,-0.01,
6.746,0.45,0.39,0.65,0.41,-0.16,-0.01,
6.747,0.63,0.30,0.66,0.41,-0.16,-0.01,
6.748,0.63,0.30,0.66,0.41,-0.16,-0.01,
6.756,0.63,0.30,0.66,0.48,-0.11,-0.02,
6.758,0.63,0.30,0.66,0.48,-0.11,-0.02,
6.758,0.84,0.17,0.67,0.48,-0.11,-0.02,
6.759,0.84,0.17,0.67,0.48,-0.11,-0.02,
6.764,0.84,0.17,0.67,0.52,-0.01,-0.05,
6.765,0.84,0.17,0.67,0.52,-0.01,-0.05,
6.765,1.00,0.04,0.64,0.52,-0.01,-0.05,
6.766,1.00,0.04,0.64,0.52,-0.01,-0.05,
6.774,1.00,0.04,0.64,0.56,0.12,-0.11,
6.774,1.00,0.04,0.64,0.56,0.12,-0.11,
6.775,1.09,-0.08,0.58,0.56,0.12,-0.11,
6.776,1.09,-0.08,0.58,0.56,0.12,-0.11,
6.783,1.09,-0.08,0.58,0.60,0.27,-0.18,
6.784,1.09,-0.08,0.58,0.60,0.27,-0.18,
6.784,1.09,-0.20,0.50,0.60,0.27,-0.18,
6.784,1.09,-0.20,0.50,0.60,0.27,-0.18,
6.793,1.09,-0.20,0.50,0.63,0.41,-0.24,
6.794,1.09,-0.20,0.50,0.63,0.41,-0.24,
6.795,0.97,-0.31,0.41,0.63,0.41,-0.24,
6.796,0.97,-0.31,0.41,0.63,0.41,-0.24,
6.802,0.97,-0.31,0.41,0.65,0.52,-0.27,
6.803,0.97,-0.31,0.41,0.65,0.52,-0.27,
6.804,0.81,-0.41,0.34,0.65,0.52,-0.27,
6.805,0.81,-0.41,0.34,0.65,0.52,-0.27,
6.812,0.81,-0.41,0.34,0.65,0.57,-0.26,
6.813,0.81,-0.41,0.34,0.65,0.57,-0.26,
6.813,0.63,-0.51,0.33,0.65,0.57,-0.26,
6.814,0.63,-0.51,0.33,0.65,0.57,-0.26,
6.822,0.63,-0.51,0.33,0.64,0.55,-0.21,
6.824,0.63,-0.51,0.33,0.64,0.55,-0.21,
6.825,0.49,-0.57,0.35,0.64,0.55,-0.21,
6.826,0.49,-0.57,0.35,0.64,0.55,-0.21,
6.837,0.49,-0.57,0.35,0.64,0.55,-0.21,
6.837,0.49,-0.57,0.35,0.64,0.55,-0.21,
6.838,0.49,-0.57,0.35,0.64,0.55,-0.21,
6.838,0.49,-0.57,0.35,0.64,0.55,-0.21,
6.841,0.49,-0.57,0.35,0.58,0.37,-0.06,
6.841,0.49,-0.57,0.35,0.58,0.37,-0.06,
6.841,0.34,-0.57,0.50,0.58,0.37,-0.06,
6.842,0.34,-0.57,0.50,0.58,0.37,-0.06,
6.849,0.34,-0.57,0.50,0.58,0.37,-0.06,
6.85,0.34,-0.57,0.50,0.58,0.37,-0.06,
6.851,0.34,-0.57,0.50,0.58,0.37,-0.06,
6.852,0.34,-0.57,0.50,0.58,0.37,-0.06,
6.859,0.34,-0.57,0.50,0.54,0.26,0.02,
6.86,0.34,-0.57,0.50,0.54,0.26,0.02,
6.861,0.22,-0.36,0.71,0.54,0.26,0.02,
6.862,0.22,-0.36,0.71,0.54,0.26,0.02,
6.869,0.22,-0.36,0.71,0.50,0.16,0.07,
6.87,0.22,-0.36,0.71,0.50,0.16,0.07,
6.871,0.13,-0.25,0.77,0.50,0.16,0.07,
6.872,0.13,-0.25,0.77,0.50,0.16,0.07,
6.878,0.13,-0.25,0.77,0.43,0.08,0.10,
6.879,0.13,-0.25,0.77,0.43,0.08,0.10,
6.88,0.01,-0.17,0.78,0.43,0.08,0.10,
6.881,0.01,-0.17,0.78,0.43,0.08,0.10,
6.888,0.01,-0.17,0.78,0.34,0.02,0.11,
6.889,0.01,-0.17,0.78,0.34,0.02,0.11,
6.889,-0.08,-0.15,0.78,0.34,0.02,0.11,
6.89,-0.08,-0.15,0.78,0.34,0.02,0.11,
6.903,-0.08,-0.15,0.78,0.24,-0.04,0.10,
6.904,-0.08,-0.15,0.78,0.24,-0.04,0.10,
6.911,-0.18,-0.14,0.77,0.24,-0.04,0.10,
6.912,-0.18,-0.14,0.77,0.24,-0.04,0.10,
6.912,-0.18,-0.14,0.77,0.13,-0.10,0.09,
6.913,-0.18,-0.14,0.77,0.13,-0.10,0.09,
6.913,-0.23,-0.16,0.78,0.13,-0.10,0.09,
6.914,-0.23,-0.16,0.78,0.13,-0.10,0.09,
6.916,-0.23,-0.16,0.78,0.04,-0.15,0.08,
6.918,-0.23,-0.16,0.78,0.04,-0.15,0.08,
6.918,-0.23,-0.16,0.79,0.04,-0.15,0.08,
6.919,-0.23,-0.16,0.79,0.04,-0.15,0.08,
6.926,-0.23,-0.16,0.79,-0.04,-0.21,0.08,
6.927,-0.23,-0.16,0.79,-0.04,-0.21,0.08,
6.928,-0.22,-0.15,0.76,-0.04,-0.21,0.08,
6.928,-0.22,-0.15,0.76,-0.04,-0.21,0.08,
6.936,-0.22,-0.15,0.76,-0.09,-0.24,0.08,
6.937,-0.22,-0.15,0.76,-0.09,-0.24,0.08,
6.938,-0.19,-0.17,0.71,-0.09,-0.24,0.08,
6.939,-0.19,-0.17,0.71,-0.09,-0.24,0.08,
6.945,-0.19,-0.17,0.71,-0.12,-0.26,0.07,
6.946,-0.19,-0.17,0.71,-0.12,-0.26,0.07,
6.947,-0.15,-0.20,0.61,-0.12,-0.26,0.07,
6.947,-0.15,-0.20,0.61,-0.12,-0.26,0.07,
6.955,-0.15,-0.20,0.61,-0.14,-0.26,0.06,
6.956,-0.15,-0.20,0.61,-0.14,-0.26,0.06,
6.957,-0.11,-0.24,0.56,-0.14,-0.26,0.06,
6.958,-0.11,-0.24,0.56,-0.14,-0.26,0.06,
6.965,-0.11,-0.24,0.56,-0.15,-0.24,0.05,
6.966,-0.11,-0.24,0.56,-0.15,-0.24,0.05,
6.966,-0.07,-0.27,0.51,-0.15,-0.24,0.05,
6.967,-0.07,-0.27,0.51,-0.15,-0.24,0.05,
6.974,-0.07,-0.27,0.51,-0.14,-0.21,0.05,
6.975,-0.07,-0.27,0.51,-0.14,-0.21,0.05,
6.976,-0.01,-0.30,0.48,-0.14,-0.21,0.05,
6.976,-0.01,-0.30,0.48,-0.14,-0.21,0.05,
6.983,-0.01,-0.30,0.48,-0.13,-0.17,0.04,
6.984,-0.01,-0.30,0.48,-0.13,-0.17,0.04,
6.984,0.00,-0.30,0.49,-0.13,-0.17,0.04,
6.985,0.00,-0.30,0.49,-0.13,-0.17,0.04,
6.993,0.00,-0.30,0.49,-0.10,-0.13,0.03,
6.994,0.00,-0.30,0.49,-0.10,-0.13,0.03,
6.995,-0.01,-0.28,0.50,-0.10,-0.13,0.03,
6.995,-0.01,-0.28,0.50,-0.10,-0.13,0.03,
7.002,-0.01,-0.28,0.50,-0.06,-0.08,0.03,
7.003,-0.01,-0.28,0.50,-0.06,-0.08,0.03,
7.004,-0.01,-0.24,0.51,-0.06,-0.08,0.03,
7.004,-0.01,-0.24,0.51,-0.06,-0.08,0.03,
7.012,-0.01,-0.24,0.51,-0.03,-0.04,0.02,
7.012,-0.01,-0.24,0.51,-0.03,-0.04,0.02,
7.013,-0.03,-0.17,0.56,-0.03,-0.04,0.02,
7.013,-0.03,-0.17,0.56,-0.03,-0.04,0.02,
7.034,-0.03,-0.17,0.56,-0.01,0.00,0.03,
7.035,-0.03,-0.17,0.56,-0.01,0.00,0.03,
7.035,-0.04,-0.11,0.62,-0.01,0.00,0.03,
7.036,-0.04,-0.11,0.62,-0.01,0.00,0.03,
7.037,-0.04,-0.11,0.62,-0.00,0.04,0.03,
7.038,-0.04,-0.11,0.62,-0.00,0.04,0.03,
7.038,-0.04,-0.11,0.62,-0.00,0.04,0.03,
7.038,-0.01,-0.08,0.68,-0.00,0.04,0.03,
7.039,-0.01,-0.08,0.68,-0.00,0.04,0.03,
7.039,-0.01,-0.08,0.68,-0.00,0.04,0.03,
7.045,-0.01,-0.08,0.68,-0.01,0.07,0.04,
7.046,-0.01,-0.08,0.68,-0.01,0.07,0.04,
7.046,-0.02,-0.06,0.69,-0.01,0.07,0.04,
7.046,-0.02,-0.06,0.69,-0.01,0.07,0.04,
7.054,-0.02,-0.06,0.69,-0.02,0.09,0.04,
7.055,-0.02,-0.06,0.69,-0.02,0.09,0.04,
7.056,-0.04,-0.07,0.66,-0.02,0.09,0.04,
7.056,-0.04,-0.07,0.66,-0.02,0.09,0.04,
7.064,-0.04,-0.07,0.66,-0.03,0.12,0.04,
7.065,-0.05,-0.08,0.62,-0.03,0.12,0.04,
7.065,-0.05,-0.08,0.62,-0.03,0.12,0.04,
7.065,-0.05,-0.08,0.62,-0.03,0.12,0.04,
7.074,-0.05,-0.08,0.62,-0.02,0.14,0.04,
7.075,-0.05,-0.08,0.62,-0.02,0.14,0.04,
7.075,-0.08,-0.07,0.57,-0.02,0.14,0.04,
7.076,-0.08,-0.07,0.57,-0.02,0.14,0.04,
7.082,-0.08,-0.07,0.57,-0.01,0.14,0.03,
7.083,-0.08,-0.07,0.57,-0.01,0.14,0.03,
7.083,-0.08,-0.06,0.56,-0.01,0.14,0.03,
7.084,-0.08,-0.06,0.56,-0.01,0.14,0.03,
7.092,-0.08,-0.06,0.56,0.00,0.13,0.02,
7.093,-0.08,-0.06,0.56,0.00,0.13,0.02,
7.093,-0.09,-0.02,0.54,0.00,0.13,0.02,
7.094,-0.09,-0.02,0.54,0.00,0.13,0.02,
7.102,-0.09,-0.02,0.54,0.01,0.12,0.02,
7.103,-0.09,-0.02,0.54,0.01,0.12,0.02,
7.103,-0.07,0.03,0.52,0.01,0.12,0.02,
7.104,-0.07,0.03,0.52,0.01,0.12,0.02,
7.112,-0.07,0.03,0.52,0.01,0.09,0.02,
7.113,-0.07,0.03,0.52,0.01,0.09,0.02,
7.113,-0.05,0.06,0.52,0.01,0.09,0.02,
7.114,-0.05,0.06,0.52,0.01,0.09,0.02,
7.122,-0.05,0.06,0.52,0.00,0.08,0.02,
7.123,-0.05,0.06,0.52,0.00,0.08,0.02,
7.124,-0.04,0.12,0.55,0.00,0.08,0.02,
7.124,-0.04,0.12,0.55,0.00,0.08,0.02,
7.138,-0.04,0.12,0.55,-0.01,0.08,0.03,
7.138,-0.04,0.12,0.55,-0.01,0.08,0.03,
7.139,-0.04,0.13,0.56,-0.01,0.08,0.03,
7.139,-0.04,0.13,0.56,-0.01,0.08,0.03,
7.143,-0.04,0.13,0.56,-0.01,0.08,0.03,
7.143,-0.04,0.13,0.56,-0.01,0.08,0.03,
7.144,-0.04,0.13,0.56,-0.01,0.08,0.03,
7.144,-0.04,0.13,0.56,-0.01,0.08,0.03,
7.15,-0.04,0.13,0.56,-0.03,0.09,0.04,
7.151,-0.04,0.13,0.56,-0.03,0.09,0.04,
7.151,-0.11,0.16,0.58,-0.03,0.09,0.04,
7.152,-0.11,0.16,0.58,-0.03,0.09,0.04,
7.16,-0.11,0.16,0.58,-0.04,0.10,0.04,
7.161,-0.11,0.16,0.58,-0.04,0.10,0.04,
7.161,-0.13,0.17,0.56,-0.04,0.10,0.04,
