
time,ax,ay,az,wx,wy,wz,
0.001,0.05,0.03,0.40,0.00,-0.00,0.06,
0.002,0.05,0.03,0.40,0.00,-0.00,0.06,
0.002,0.00,0.03,0.43,0.00,-0.00,0.06,
0.002,0.00,0.03,0.43,0.00,-0.00,0.06,
0.009,0.00,0.03,0.43,-0.02,-0.02,0.03,
0.009,0.00,0.03,0.43,-0.02,-0.02,0.03,
0.009,-0.02,0.04,0.48,-0.02,-0.02,0.03,
0.01,-0.02,0.04,0.48,-0.02,-0.02,0.03,
0.018,-0.02,0.04,0.48,-0.02,-0.02,0.03,
0.019,-0.02,0.04,0.48,-0.02,-0.02,0.03,
0.019,-0.02,0.04,0.48,-0.02,-0.02,0.03,
0.02,-0.02,0.04,0.48,-0.02,-0.02,0.03,
0.031,-0.02,0.04,0.48,-0.04,-0.03,0.01,
0.032,-0.02,0.04,0.48,-0.04,-0.03,0.01,
0.032,0.02,0.07,0.66,-0.04,-0.03,0.01,
0.033,0.02,0.07,0.66,-0.04,-0.03,0.01,
0.038,0.02,0.07,0.66,-0.05,-0.02,0.00,
0.038,0.02,0.07,0.66,-0.05,-0.02,0.00,
0.038,0.06,0.10,0.68,-0.05,-0.02,0.00,
0.039,0.06,0.10,0.68,-0.05,-0.02,0.00,
0.047,0.06,0.10,0.68,-0.06,-0.01,0.00,
0.048,0.06,0.10,0.68,-0.06,-0.01,0.00,
0.048,0.07,0.10,0.66,-0.06,-0.01,0.00,
0.048,0.07,0.10,0.66,-0.06,-0.01,0.00,
0.057,0.07,0.10,0.66,-0.05,-0.01,0.00,
0.057,0.07,0.10,0.66,-0.05,-0.01,0.00,
0.058,0.06,0.10,0.58,-0.05,-0.01,0.00,
0.058,0.06,0.10,0.58,-0.05,-0.01,0.00,
0.065,0.06,0.10,0.58,-0.05,-0.01,0.00,
0.066,0.06,0.10,0.58,-0.05,-0.01,0.00,
0.066,0.07,0.11,0.47,-0.05,-0.01,0.00,
0.066,0.07,0.11,0.47,-0.05,-0.01,0.00,
0.075,0.07,0.11,0.47,-0.04,-0.02,0.00,
0.076,0.07,0.11,0.47,-0.04,-0.02,0.00,
0.076,0.06,0.10,0.37,-0.04,-0.02,0.00,
0.077,0.06,0.10,0.37,-0.04,-0.02,0.00,
0.085,0.06,0.10,0.37,-0.03,-0.02,0.01,
0.086,0.06,0.10,0.37,-0.03,-0.02,0.01,
0.087,0.07,0.13,0.30,-0.03,-0.02,0.01,
0.087,0.07,0.13,0.30,-0.03,-0.02,0.01,
0.094,0.07,0.13,0.30,-0.01,-0.02,0.02,
0.095,0.07,0.13,0.30,-0.01,-0.02,0.02,
0.095,0.10,0.11,0.28,-0.01,-0.02,0.02,
0.096,0.10,0.11,0.28,-0.01,-0.02,0.02,
0.103,0.10,0.11,0.28,0.01,-0.03,0.02,
0.104,0.10,0.11,0.28,0.01,-0.03,0.02,
0.105,0.10,0.09,0.27,0.01,-0.03,0.02,
0.105,0.10,0.09,0.27,0.01,-0.03,0.02,
0.119,0.10,0.09,0.27,0.03,-0.03,0.02,
0.121,0.10,0.09,0.27,0.03,-0.03,0.02,
0.121,0.09,0.06,0.28,0.03,-0.03,0.02,
0.122,0.09,0.06,0.28,0.03,-0.03,0.02,
0.122,0.09,0.06,0.28,0.04,-0.04,0.01,
0.123,0.09,0.06,0.28,0.04,-0.04,0.01,
0.123,0.09,0.06,0.27,0.04,-0.04,0.01,
0.124,0.09,0.06,0.27,0.04,-0.04,0.01,
0.139,0.09,0.06,0.27,0.04,-0.05,-0.00,
0.14,0.09,0.06,0.27,0.04,-0.05,-0.00,
0.14,0.07,0.07,0.19,0.04,-0.05,-0.00,
0.141,0.07,0.07,0.19,0.04,-0.05,-0.00,
0.146,0.07,0.07,0.19,0.04,-0.05,-0.02,
0.147,0.07,0.07,0.19,0.04,-0.05,-0.02,
0.147,0.06,0.07,0.12,0.04,-0.05,-0.02,
0.148,0.06,0.07,0.12,0.04,-0.05,-0.02,
0.152,0.06,0.07,0.12,0.03,-0.05,-0.03,
0.152,0.06,0.07,0.12,0.03,-0.05,-0.03,
0.153,0.05,0.07,0.05,0.03,-0.05,-0.03,
0.153,0.05,0.07,0.05,0.03,-0.05,-0.03,
0.161,0.05,0.07,0.05,0.03,-0.05,-0.04,
0.162,0.05,0.07,0.05,0.03,-0.05,-0.04,
0.162,0.05,0.08,0.03,0.03,-0.05,-0.04,
0.163,0.05,0.08,0.03,0.03,-0.05,-0.04,
0.171,0.05,0.08,0.03,0.03,-0.04,-0.02,
0.171,0.05,0.08,0.03,0.03,-0.04,-0.02,
0.172,0.05,0.07,0.10,0.03,-0.04,-0.02,
0.172,0.05,0.07,0.10,0.03,-0.04,-0.02,
0.181,0.05,0.07,0.10,0.04,-0.02,-0.00,
0.182,0.05,0.07,0.10,0.04,-0.02,-0.00,
0.183,0.05,0.05,0.20,0.04,-0.02,-0.00,
0.183,0.05,0.05,0.20,0.04,-0.02,-0.00,
0.19,0.05,0.05,0.20,0.04,-0.01,0.01,
0.191,0.05,0.05,0.20,0.04,-0.01,0.01,
0.191,0.03,0.03,0.27,0.04,-0.01,0.01,
0.192,0.03,0.03,0.27,0.04,-0.01,0.01,
0.199,0.03,0.03,0.27,0.03,-0.01,0.02,
0.199,0.03,0.03,0.27,0.03,-0.01,0.02,
0.2,0.01,0.00,0.30,0.03,-0.01,0.02,
0.201,0.01,0.00,0.30,0.03,-0.01,0.02,
0.209,0.01,0.00,0.30,0.03,-0.01,0.01,
0.209,0.01,0.00,0.30,0.03,-0.01,0.01,
0.21,-0.01,0.01,0.29,0.03,-0.01,0.01,
0.21,-0.01,0.01,0.29,0.03,-0.01,0.01,
0.219,-0.01,0.01,0.29,0.01,-0.00,0.01,
0.22,-0.01,0.01,0.29,0.01,-0.00,0.01,
0.22,-0.04,0.02,0.26,0.01,-0.00,0.01,
0.221,-0.04,0.02,0.26,0.01,-0.00,0.01,
0.235,-0.04,0.02,0.26,0.01,-0.00,0.01,
0.236,-0.04,0.02,0.26,0.01,-0.00,0.01,
0.237,-0.04,0.02,0.26,0.01,-0.00,0.01,
0.237,-0.04,0.02,0.26,0.01,-0.00,0.01,
0.243,-0.04,0.02,0.26,-0.01,0.01,0.00,
0.244,-0.04,0.02,0.26,-0.01,0.01,0.00,
0.244,-0.08,0.07,0.20,-0.01,0.01,0.00,
0.245,-0.08,0.07,0.20,-0.01,0.01,0.00,
0.255,-0.08,0.07,0.20,-0.03,0.02,-0.01,
0.255,-0.08,0.07,0.20,-0.03,0.02,-0.01,
0.256,-0.11,0.10,0.21,-0.03,0.02,-0.01,
0.256,-0.11,0.10,0.21,-0.03,0.02,-0.01,
0.257,-0.11,0.10,0.21,-0.03,0.04,-0.02,
0.257,-0.11,0.10,0.21,-0.03,0.04,-0.02,
0.258,-0.12,0.10,0.25,-0.03,0.04,-0.02,
0.258,-0.12,0.10,0.25,-0.03,0.04,-0.02,
0.265,-0.12,0.10,0.25,-0.02,0.06,-0.02,
0.266,-0.12,0.10,0.25,-0.02,0.06,-0.02,
0.266,-0.13,0.09,0.32,-0.02,0.06,-0.02,
0.267,-0.13,0.09,0.32,-0.02,0.06,-0.02,
0.275,-0.13,0.09,0.32,-0.00,0.08,-0.03,
0.276,-0.13,0.09,0.32,-0.00,0.08,-0.03,
0.276,-0.15,0.05,0.42,-0.00,0.08,-0.03,
0.276,-0.15,0.05,0.42,-0.00,0.08,-0.03,
0.285,-0.15,0.05,0.42,0.01,0.09,-0.03,
0.286,-0.15,0.05,0.42,0.01,0.09,-0.03,
0.286,-0.14,-0.01,0.47,0.01,0.09,-0.03,
0.287,-0.14,-0.01,0.47,0.01,0.09,-0.03,
0.294,-0.14,-0.01,0.47,0.00,0.10,-0.03,
0.295,-0.14,-0.01,0.47,0.00,0.10,-0.03,
0.295,-0.15,-0.04,0.45,0.00,0.10,-0.03,
0.296,-0.15,-0.04,0.45,0.00,0.10,-0.03,
0.303,-0.15,-0.04,0.45,-0.02,0.10,-0.03,
0.304,-0.15,-0.04,0.45,-0.02,0.10,-0.03,
0.305,-0.15,-0.08,0.43,-0.02,0.10,-0.03,
0.305,-0.15,-0.08,0.43,-0.02,0.10,-0.03,
0.318,-0.15,-0.08,0.43,-0.05,0.10,-0.04,
0.32,-0.15,-0.08,0.43,-0.05,0.10,-0.04,
0.32,-0.15,-0.06,0.39,-0.05,0.10,-0.04,
0.321,-0.15,-0.06,0.39,-0.05,0.10,-0.04,
0.323,-0.15,-0.06,0.39,-0.08,0.09,-0.06,
0.325,-0.15,-0.06,0.39,-0.08,0.09,-0.06,
0.325,-0.12,-0.00,0.39,-0.08,0.09,-0.06,
0.326,-0.12,-0.00,0.39,-0.08,0.09,-0.06,
0.332,-0.12,-0.00,0.39,-0.09,0.09,-0.06,
0.334,-0.12,-0.00,0.39,-0.09,0.09,-0.06,
0.335,-0.06,0.03,0.39,-0.09,0.09,-0.06,
0.336,-0.06,0.03,0.39,-0.09,0.09,-0.06,
0.342,-0.06,0.03,0.39,-0.10,0.07,-0.06,
0.343,-0.06,0.03,0.39,-0.10,0.07,-0.06,
0.343,0.01,0.08,0.36,-0.10,0.07,-0.06,
0.343,0.01,0.08,0.36,-0.10,0.07,-0.06,
0.351,0.01,0.08,0.36,-0.09,0.06,-0.05,
0.352,0.01,0.08,0.36,-0.09,0.06,-0.05,
0.352,0.05,0.11,0.32,-0.09,0.06,-0.05,
0.353,0.05,0.11,0.32,-0.09,0.06,-0.05,
0.361,0.05,0.11,0.32,-0.06,0.03,-0.04,
0.362,0.05,0.11,0.32,-0.06,0.03,-0.04,
0.362,0.07,0.14,0.28,-0.06,0.03,-0.04,
0.363,0.07,0.14,0.28,-0.06,0.03,-0.04,
0.371,0.07,0.14,0.28,-0.03,-0.01,-0.02,
0.372,0.07,0.14,0.28,-0.03,-0.01,-0.02,
0.373,0.04,0.15,0.28,-0.03,-0.01,-0.02,
0.373,0.04,0.15,0.28,-0.03,-0.01,-0.02,
0.38,0.04,0.15,0.28,0.01,-0.05,0.00,
0.382,0.04,0.15,0.28,0.01,-0.05,0.00,
0.382,-0.01,0.15,0.30,0.01,-0.05,0.00,
0.383,-0.01,0.15,0.30,0.01,-0.05,0.00,
0.39,-0.01,0.15,0.30,0.04,-0.07,0.02,
0.391,-0.01,0.15,0.30,0.04,-0.07,0.02,
0.391,-0.05,0.14,0.33,0.04,-0.07,0.02,
0.392,-0.05,0.14,0.33,0.04,-0.07,0.02,
0.399,-0.05,0.14,0.33,0.07,-0.08,0.03,
0.399,-0.05,0.14,0.33,0.07,-0.08,0.03,
0.4,-0.07,0.11,0.34,0.07,-0.08,0.03,
0.4,-0.07,0.11,0.34,0.07,-0.08,0.03,
0.409,-0.07,0.11,0.34,0.08,-0.07,0.04,
0.409,-0.07,0.11,0.34,0.08,-0.07,0.04,
0.41,-0.06,0.11,0.32,0.08,-0.07,0.04,
0.41,-0.06,0.11,0.32,0.08,-0.07,0.04,
0.418,-0.06,0.11,0.32,0.08,-0.07,0.04,
0.419,-0.06,0.11,0.32,0.08,-0.07,0.04,
0.42,-0.06,0.11,0.32,0.08,-0.07,0.04,
0.42,-0.06,0.11,0.32,0.08,-0.07,0.04,
0.435,-0.06,0.11,0.32,0.09,-0.05,0.04,
0.436,-0.06,0.11,0.32,0.09,-0.05,0.04,
0.436,0.00,0.09,0.24,0.09,-0.05,0.04,
0.436,0.00,0.09,0.24,0.09,-0.05,0.04,
0.45,0.00,0.09,0.24,0.08,-0.04,0.03,
0.451,0.00,0.09,0.24,0.08,-0.04,0.03,
0.452,0.01,0.08,0.20,0.08,-0.04,0.03,
0.453,0.01,0.08,0.20,0.08,-0.04,0.03,
0.453,0.01,0.08,0.20,0.08,-0.04,0.03,
0.454,0.01,0.08,0.20,0.08,-0.04,0.03,
0.454,0.01,0.08,0.20,0.08,-0.04,0.03,
0.455,0.01,0.08,0.20,0.08,-0.04,0.03,
0.456,0.01,0.08,0.20,0.05,-0.03,0.02,
0.456,0.01,0.08,0.20,0.05,-0.03,0.02,
0.456,0.00,0.06,0.13,0.05,-0.03,0.02,
0.457,0.00,0.06,0.13,0.05,-0.03,0.02,
0.465,0.00,0.06,0.13,0.03,-0.02,0.01,
0.466,0.00,0.06,0.13,0.03,-0.02,0.01,
0.467,0.02,0.07,0.16,0.03,-0.02,0.01,
0.467,0.02,0.07,0.16,0.03,-0.02,0.01,
0.474,0.02,0.07,0.16,0.03,-0.02,0.01,
0.476,0.02,0.07,0.16,0.03,-0.02,0.01,
0.476,0.02,0.07,0.16,0.03,-0.02,0.01,
0.477,0.02,0.07,0.16,0.03,-0.02,0.01,
0.485,0.02,0.07,0.16,0.02,-0.01,0.01,
0.486,0.02,0.07,0.16,0.02,-0.01,0.01,
0.486,0.02,0.07,0.16,0.02,-0.01,0.01,
0.487,0.02,0.07,0.16,0.02,-0.01,0.01,
0.494,0.02,0.07,0.16,0.02,-0.01,0.01,
0.494,0.02,0.07,0.16,0.02,-0.01,0.01,
0.495,0.02,0.07,0.16,0.02,-0.01,0.01,
0.495,0.02,0.07,0.16,0.02,-0.01,0.01,
0.503,0.02,0.07,0.16,0.02,-0.01,0.01,
0.504,0.02,0.07,0.16,0.02,-0.01,0.01,
0.504,0.04,0.07,0.19,0.02,-0.01,0.01,
0.504,0.04,0.07,0.19,0.02,-0.01,0.01,
0.513,0.04,0.07,0.19,0.01,-0.01,0.01,
0.514,0.04,0.07,0.19,0.01,-0.01,0.01,
0.515,0.04,0.06,0.14,0.01,-0.01,0.01,
0.515,0.04,0.06,0.14,0.01,-0.01,0.01,
0.522,0.04,0.06,0.14,0.01,-0.01,0.00,
0.523,0.04,0.06,0.14,0.01,-0.01,0.00,
0.523,0.01,0.07,0.14,0.01,-0.01,0.00,
0.524,0.01,0.07,0.14,0.01,-0.01,0.00,
0.533,0.01,0.07,0.14,0.01,-0.00,0.00,
0.533,0.01,0.07,0.14,0.01,-0.00,0.00,
0.533,-0.01,0.09,0.19,0.01,-0.00,0.00,
0.534,-0.01,0.09,0.19,0.01,-0.00,0.00,
0.541,-0.01,0.09,0.19,0.01,-0.00,0.00,
0.542,-0.01,0.09,0.19,0.01,-0.00,0.00,
0.543,-0.03,0.12,0.30,0.01,-0.00,0.00,
0.543,-0.03,0.12,0.30,0.01,-0.00,0.00,
0.551,-0.03,0.12,0.30,0.01,-0.00,-0.01,
0.552,-0.03,0.12,0.30,0.01,-0.00,-0.01,
0.553,-0.09,0.15,0.38,0.01,-0.00,-0.01,
0.553,-0.09,0.15,0.38,0.01,-0.00,-0.01,
0.561,-0.09,0.15,0.38,0.01,0.00,-0.04,
0.562,-0.09,0.15,0.38,0.01,0.00,-0.04,
0.563,-0.10,0.15,0.42,0.01,0.00,-0.04,
0.564,-0.10,0.15,0.42,0.01,0.00,-0.04,
0.57,-0.10,0.15,0.42,0.01,0.02,-0.05,
0.571,-0.10,0.15,0.42,0.01,0.02,-0.05,
0.571,-0.08,0.13,0.42,0.01,0.02,-0.05,
0.572,-0.08,0.13,0.42,0.01,0.02,-0.05,
0.579,-0.08,0.13,0.42,0.02,0.04,-0.04,
0.581,-0.08,0.13,0.42,0.02,0.04,-0.04,
0.583,-0.06,0.10,0.40,0.02,0.04,-0.04,
0.583,-0.06,0.10,0.40,0.02,0.04,-0.04,
0.589,-0.06,0.10,0.40,0.01,0.05,-0.03,
0.59,-0.06,0.10,0.40,0.01,0.05,-0.03,
0.59,-0.03,0.09,0.38,0.01,0.05,-0.03,
0.591,-0.03,0.09,0.38,0.01,0.05,-0.03,
0.598,-0.03,0.09,0.38,0.01,0.06,-0.03,
0.599,-0.03,0.09,0.38,0.01,0.06,-0.03,
0.6,-0.01,0.07,0.35,0.01,0.06,-0.03,
0.6,-0.01,0.07,0.35,0.01,0.06,-0.03,
0.608,-0.01,0.07,0.35,0.01,0.05,-0.02,
0.609,-0.01,0.07,0.35,0.01,0.05,-0.02,
0.61,-0.01,0.07,0.35,0.01,0.05,-0.02,
0.61,-0.01,0.07,0.35,0.01,0.05,-0.02,
0.618,-0.01,0.07,0.35,0.01,0.05,-0.02,
0.619,-0.01,0.07,0.35,0.01,0.05,-0.02,
0.62,-0.01,0.07,0.35,0.01,0.05,-0.02,
0.62,-0.01,0.07,0.35,0.01,0.05,-0.02,
0.628,-0.01,0.07,0.35,0.00,0.03,-0.02,
0.629,-0.01,0.07,0.35,0.00,0.03,-0.02,
0.63,-0.01,0.07,0.35,0.00,0.03,-0.02,
0.63,-0.01,0.07,0.35,0.00,0.03,-0.02,
0.637,-0.01,0.07,0.35,-0.01,0.02,-0.02,
0.638,-0.01,0.07,0.35,-0.01,0.02,-0.02,
0.638,-0.01,0.07,0.35,-0.01,0.02,-0.02,
0.639,-0.01,0.07,0.35,-0.01,0.02,-0.02,
0.646,-0.01,0.07,0.35,-0.01,0.01,-0.02,
0.647,-0.01,0.07,0.35,-0.01,0.01,-0.02,
0.647,-0.01,0.07,0.35,-0.01,0.01,-0.02,
0.647,-0.01,0.07,0.35,-0.01,0.01,-0.02,
0.656,-0.01,0.07,0.35,-0.01,0.01,-0.01,
0.657,-0.01,0.07,0.35,-0.01,0.01,-0.01,
0.657,-0.01,0.07,0.35,-0.01,0.01,-0.01,
0.657,-0.01,0.07,0.35,-0.01,0.01,-0.01,
0.666,-0.01,0.07,0.35,-0.01,0.01,-0.01,
0.667,-0.01,0.07,0.35,-0.01,0.01,-0.01,
0.667,-0.01,0.07,0.35,-0.01,0.01,-0.01,
0.668,-0.01,0.07,0.35,-0.01,0.01,-0.01,
0.675,-0.01,0.07,0.35,-0.01,0.01,-0.01,
0.676,-0.01,0.07,0.35,-0.01,0.01,-0.01,
0.677,-0.01,0.07,0.35,-0.01,0.01,-0.01,
0.677,-0.01,0.07,0.35,-0.01,0.01,-0.01,
0.685,-0.01,0.07,0.35,-0.01,0.01,-0.01,
0.686,-0.01,0.07,0.35,-0.01,0.01,-0.01,
0.687,-0.01,0.07,0.35,-0.01,0.01,-0.01,
0.688,-0.01,0.07,0.35,-0.01,0.01,-0.01,
0.694,-0.01,0.07,0.35,-0.01,0.00,-0.01,
0.695,-0.01,0.07,0.35,-0.01,0.00,-0.01,
0.696,-0.01,0.07,0.35,-0.01,0.00,-0.01,
0.697,-0.01,0.07,0.35,-0.01,0.00,-0.01,
0.703,-0.01,0.07,0.35,-0.00,0.00,-0.01,
0.704,-0.01,0.07,0.35,-0.00,0.00,-0.01,
0.704,-0.01,0.07,0.35,-0.00,0.00,-0.01,
0.705,-0.01,0.07,0.35,-0.00,0.00,-0.01,
0.715,-0.01,0.07,0.35,-0.00,0.00,-0.00,
0.716,-0.01,0.07,0.35,-0.00,0.00,-0.00,
0.716,-0.01,0.07,0.35,-0.00,0.00,-0.00,
0.716,-0.01,0.07,0.35,-0.00,0.00,-0.00,
0.725,-0.01,0.07,0.35,-0.00,0.00,-0.00,
0.726,-0.01,0.07,0.35,-0.00,0.00,-0.00,
0.726,-0.01,0.07,0.35,-0.00,0.00,-0.00,
0.727,-0.01,0.07,0.35,-0.00,0.00,-0.00,
0.731,-0.01,0.07,0.35,-0.00,0.00,-0.00,
0.732,-0.01,0.07,0.35,-0.00,0.00,-0.00,
0.732,-0.01,0.07,0.35,-0.00,0.00,-0.00,
0.733,-0.01,0.07,0.35,-0.00,0.00,-0.00,
0.741,-0.01,0.07,0.35,-0.00,0.00,-0.00,
0.742,-0.01,0.07,0.35,-0.00,0.00,-0.00,
0.742,-0.01,0.07,0.35,-0.00,0.00,-0.00,
0.743,-0.01,0.07,0.35,-0.00,0.00,-0.00,
0.751,-0.01,0.07,0.35,-0.00,0.00,-0.00,
0.752,-0.01,0.07,0.35,-0.00,0.00,-0.00,
0.753,-0.01,0.07,0.35,-0.00,0.00,-0.00,
0.753,-0.01,0.07,0.35,-0.00,0.00,-0.00,
0.761,-0.01,0.07,0.35,-0.00,0.00,-0.00,
0.762,-0.01,0.07,0.35,-0.00,0.00,-0.00,
0.763,-0.01,0.07,0.35,-0.00,0.00,-0.00,
0.763,-0.01,0.07,0.35,-0.00,0.00,-0.00,
0.769,-0.01,0.07,0.35,-0.00,0.00,-0.00,
0.77,-0.01,0.07,0.35,-0.00,0.00,-0.00,
0.77,-0.01,0.07,0.35,-0.00,0.00,-0.00,
0.771,-0.01,0.07,0.35,-0.00,0.00,-0.00,
0.779,-0.01,0.07,0.35,-0.00,0.00,-0.00,
0.78,-0.01,0.07,0.35,-0.00,0.00,-0.00,
0.781,-0.01,0.07,0.35,-0.00,0.00,-0.00,
0.781,-0.01,0.07,0.35,-0.00,0.00,-0.00,
0.789,-0.01,0.07,0.35,-0.00,-0.00,-0.00,
0.79,-0.01,0.07,0.35,-0.00,-0.00,-0.00,
0.791,-0.02,0.07,0.35,-0.00,-0.00,-0.00,
0.791,-0.02,0.07,0.35,-0.00,-0.00,-0.00,
0.799,-0.02,0.07,0.35,-0.00,0.00,-0.00,
0.799,-0.02,0.07,0.35,-0.00,0.00,-0.00,
0.8,-0.02,0.07,0.35,-0.00,0.00,-0.00,
0.801,-0.02,0.07,0.35,-0.00,0.00,-0.00,
0.81,-0.02,0.07,0.35,0.00,0.00,0.00,
0.811,-0.02,0.07,0.35,0.00,0.00,0.00,
0.812,-0.01,0.07,0.35,0.00,0.00,0.00,
0.813,-0.01,0.07,0.35,0.00,0.00,0.00,
0.817,-0.01,0.07,0.35,0.00,0.00,0.00,
0.819,-0.01,0.07,0.35,0.00,0.00,0.00,
0.82,-0.01,0.07,0.35,0.00,0.00,0.00,
0.821,-0.01,0.07,0.35,0.00,0.00,0.00,
0.833,-0.01,0.07,0.35,-0.00,0.00,0.00,
0.834,-0.01,0.07,0.35,-0.00,0.00,0.00,
0.834,-0.01,0.07,0.35,-0.00,0.00,0.00,
0.834,-0.01,0.07,0.35,-0.00,0.00,0.00,
0.837,-0.01,0.07,0.35,0.00,-0.00,0.00,
0.837,-0.01,0.07,0.35,0.00,-0.00,0.00,
0.838,-0.01,0.08,0.35,0.00,-0.00,0.00,
0.838,-0.01,0.08,0.35,0.00,-0.00,0.00,
0.847,-0.01,0.08,0.35,0.00,0.00,0.00,
0.848,-0.01,0.08,0.35,0.00,0.00,0.00,
0.848,-0.01,0.08,0.35,0.00,0.00,0.00,
0.849,-0.01,0.08,0.35,0.00,0.00,0.00,
0.856,-0.01,0.08,0.35,-0.00,-0.00,-0.00,
0.857,-0.01,0.08,0.35,-0.00,-0.00,-0.00,
0.857,-0.01,0.08,0.35,-0.00,-0.00,-0.00,
0.857,-0.01,0.08,0.35,-0.00,-0.00,-0.00,
0.866,-0.01,0.08,0.35,0.00,-0.00,-0.00,
0.866,-0.01,0.08,0.35,0.00,-0.00,-0.00,
0.867,-0.01,0.08,0.35,0.00,-0.00,-0.00,
0.868,-0.01,0.08,0.35,0.00,-0.00,-0.00,
0.875,-0.01,0.08,0.35,-0.00,-0.00,-0.00,
0.876,-0.01,0.08,0.35,-0.00,-0.00,-0.00,
0.876,-0.01,0.08,0.35,-0.00,-0.00,-0.00,
0.877,-0.01,0.08,0.35,-0.00,-0.00,-0.00,
0.884,-0.01,0.08,0.35,-0.00,-0.00,-0.00,
0.885,-0.01,0.08,0.35,-0.00,-0.00,-0.00,
0.885,-0.01,0.08,0.35,-0.00,-0.00,-0.00,
0.886,-0.01,0.08,0.35,-0.00,-0.00,-0.00,
0.894,-0.01,0.08,0.35,0.00,0.00,0.00,
0.895,-0.01,0.08,0.35,0.00,0.00,0.00,
0.896,-0.01,0.08,0.35,0.00,0.00,0.00,
0.897,-0.01,0.08,0.35,0.00,0.00,0.00,
0.903,-0.01,0.08,0.35,0.00,-0.00,-0.00,
0.904,-0.01,0.08,0.35,0.00,-0.00,-0.00,
0.904,-0.01,0.08,0.35,0.00,-0.00,-0.00,
0.905,-0.01,0.08,0.35,0.00,-0.00,-0.00,
0.913,-0.01,0.08,0.35,0.00,-0.00,0.00,
0.914,-0.01,0.08,0.35,0.00,-0.00,0.00,
0.915,-0.01,0.08,0.35,0.00,-0.00,0.00,
0.915,-0.01,0.08,0.35,0.00,-0.00,0.00,
0.922,-0.01,0.08,0.35,0.00,0.00,0.00,
0.923,-0.01,0.08,0.35,0.00,0.00,0.00,
0.923,-0.01,0.08,0.35,0.00,0.00,0.00,
0.923,-0.01,0.08,0.35,0.00,0.00,0.00,
0.932,-0.01,0.08,0.35,0.00,0.00,-0.00,
0.932,-0.01,0.08,0.35,0.00,0.00,-0.00,
0.933,-0.01,0.08,0.35,0.00,0.00,-0.00,
0.933,-0.01,0.08,0.35,0.00,0.00,-0.00,
0.941,-0.01,0.08,0.35,-0.00,0.00,-0.00,
0.943,-0.01,0.08,0.35,-0.00,0.00,-0.00,
0.943,-0.01,0.08,0.35,-0.00,0.00,-0.00,
0.944,-0.01,0.08,0.35,-0.00,0.00,-0.00,
0.951,-0.01,0.08,0.35,0.00,-0.00,-0.00,
0.952,-0.01,0.08,0.35,0.00,-0.00,-0.00,
0.953,-0.01,0.08,0.35,0.00,-0.00,-0.00,
0.954,-0.01,0.08,0.35,0.00,-0.00,-0.00,
0.96,-0.01,0.08,0.35,-0.00,-0.00,0.00,
0.963,-0.01,0.08,0.35,-0.00,-0.00,0.00,
0.964,-0.01,0.08,0.35,-0.00,-0.00,0.00,
0.965,-0.01,0.08,0.35,-0.00,-0.00,0.00,
0.969,-0.01,0.08,0.35,0.00,0.00,0.00,
0.97,-0.01,0.08,0.35,0.00,0.00,0.00,
0.971,-0.01,0.08,0.35,0.00,0.00,0.00,
0.971,-0.01,0.08,0.35,0.00,0.00,0.00,
0.98,-0.01,0.08,0.35,-0.00,0.00,0.00,
0.981,-0.01,0.08,0.35,-0.00,0.00,0.00,
0.981,-0.01,0.08,0.35,-0.00,0.00,0.00,
0.981,-0.01,0.08,0.35,-0.00,0.00,0.00,
0.989,-0.01,0.08,0.35,-0.00,0.00,-0.00,
0.989,-0.01,0.08,0.35,-0.00,0.00,-0.00,
0.99,-0.01,0.08,0.35,-0.00,0.00,-0.00,
0.99,-0.01,0.08,0.35,-0.00,0.00,-0.00,
0.999,-0.01,0.08,0.35,-0.00,0.00,-0.00,
1.0,-0.01,0.08,0.35,-0.00,0.00,-0.00,
1.0,-0.01,0.08,0.35,-0.00,0.00,-0.00,
1.0,-0.01,0.08,0.35,-0.00,0.00,-0.00,
1.009,-0.01,0.08,0.35,0.00,0.00,0.00,
1.009,-0.01,0.08,0.35,0.00,0.00,0.00,
1.01,-0.01,0.08,0.35,0.00,0.00,0.00,
1.01,-0.01,0.08,0.35,0.00,0.00,0.00,
1.018,-0.01,0.08,0.35,0.00,0.00,0.00,
1.019,-0.01,0.08,0.35,0.00,0.00,0.00,
1.019,-0.01,0.08,0.35,0.00,0.00,0.00,
1.02,-0.01,0.08,0.35,0.00,0.00,0.00,
1.027,-0.01,0.08,0.35,-0.00,0.00,0.00,
1.029,-0.01,0.08,0.35,-0.00,0.00,0.00,
1.029,-0.01,0.08,0.35,-0.00,0.00,0.00,
1.03,-0.01,0.08,0.35,-0.00,0.00,0.00,
1.037,-0.01,0.08,0.35,0.00,-0.00,-0.00,
1.038,-0.01,0.08,0.35,0.00,-0.00,-0.00,
1.038,-0.01,0.08,0.35,0.00,-0.00,-0.00,
1.039,-0.01,0.08,0.35,0.00,-0.00,-0.00,
1.047,-0.01,0.08,0.35,-0.00,0.00,0.00,
1.047,-0.01,0.08,0.35,-0.00,0.00,0.00,
1.048,-0.01,0.08,0.35,-0.00,0.00,0.00,
1.048,-0.01,0.08,0.35,-0.00,0.00,0.00,
1.055,-0.01,0.08,0.35,0.00,0.00,0.00,
1.056,-0.01,0.08,0.35,0.00,0.00,0.00,
1.056,-0.01,0.08,0.35,0.00,0.00,0.00,
1.057,-0.01,0.08,0.35,0.00,0.00,0.00,
1.065,-0.01,0.08,0.35,-0.00,-0.00,0.00,
1.066,-0.01,0.08,0.35,-0.00,-0.00,0.00,
1.067,0.00,0.11,0.10,-0.00,-0.00,0.00,
1.068,0.00,0.11,0.10,-0.00,-0.00,0.00,
1.075,0.00,0.11,0.10,0.00,0.00,-0.00,
1.076,0.00,0.11,0.10,0.00,0.00,-0.00,
1.077,0.02,0.14,0.07,0.00,0.00,-0.00,
1.077,0.02,0.14,0.07,0.00,0.00,-0.00,
1.084,0.02,0.14,0.07,0.00,-0.00,-0.00,
1.085,0.02,0.14,0.07,0.00,-0.00,-0.00,
1.085,0.06,0.17,0.01,0.00,-0.00,-0.00,
1.086,0.06,0.17,0.01,0.00,-0.00,-0.00,
1.095,0.06,0.17,0.01,0.00,-0.00,0.00,
1.097,0.06,0.17,0.01,0.00,-0.00,0.00,
1.098,0.07,0.20,-0.04,0.00,-0.00,0.00,
1.099,0.07,0.20,-0.04,0.00,-0.00,0.00,
1.103,0.07,0.20,-0.04,-0.00,-0.00,-0.00,
1.103,0.07,0.20,-0.04,-0.00,-0.00,-0.00,
1.104,0.09,0.20,-0.08,-0.00,-0.00,-0.00,
1.104,0.09,0.20,-0.08,-0.00,-0.00,-0.00,
1.112,0.09,0.20,-0.08,0.00,0.00,0.00,
1.113,0.09,0.20,-0.08,0.00,0.00,0.00,
1.114,0.10,0.17,-0.08,0.00,0.00,0.00,
1.114,0.10,0.17,-0.08,0.00,0.00,0.00,
1.122,0.10,0.17,-0.08,-0.00,-0.00,-0.00,
1.123,0.10,0.17,-0.08,-0.00,-0.00,-0.00,
1.123,0.09,0.12,-0.02,-0.00,-0.00,-0.00,
1.124,0.09,0.12,-0.02,-0.00,-0.00,-0.00,
1.132,0.09,0.12,-0.02,0.00,-0.00,0.00,
1.132,0.09,0.12,-0.02,0.00,-0.00,0.00,
1.133,0.05,0.07,0.12,0.00,-0.00,0.00,
1.133,0.05,0.07,0.12,0.00,-0.00,0.00,
1.141,0.05,0.07,0.12,-0.00,-0.00,-0.00,
1.142,0.05,0.07,0.12,-0.00,-0.00,-0.00,
1.143,-0.00,0.03,0.31,-0.00,-0.00,-0.00,
1.143,-0.00,0.03,0.31,-0.00,-0.00,-0.00,
1.151,-0.00,0.03,0.31,-0.00,-0.00,0.00,
1.152,-0.00,0.03,0.31,-0.00,-0.00,0.00,
1.153,-0.06,0.02,0.49,-0.00,-0.00,0.00,
1.153,-0.06,0.02,0.49,-0.00,-0.00,0.00,
1.161,-0.06,0.02,0.49,0.00,-0.00,-0.00,
1.162,-0.06,0.02,0.49,0.00,-0.00,-0.00,
1.163,-0.12,0.02,0.60,0.00,-0.00,-0.00,
1.163,-0.12,0.02,0.60,0.00,-0.00,-0.00,
1.169,-0.12,0.02,0.60,0.00,-0.00,-0.00,
1.17,-0.12,0.02,0.60,0.00,-0.00,-0.00,
1.171,-0.13,-0.00,0.61,0.00,-0.00,-0.00,
1.171,-0.13,-0.00,0.61,0.00,-0.00,-0.00,
1.179,-0.13,-0.00,0.61,0.00,-0.00,-0.00,
1.18,-0.13,-0.00,0.61,0.00,-0.00,-0.00,
1.18,-0.13,-0.01,0.58,0.00,-0.00,-0.00,
1.181,-0.13,-0.01,0.58,0.00,-0.00,-0.00,
1.189,-0.13,-0.01,0.58,0.00,0.00,0.00,
1.19,-0.13,-0.01,0.58,0.00,0.00,0.00,
1.191,-0.14,-0.03,0.53,0.00,0.00,0.00,
1.191,-0.14,-0.03,0.53,0.00,0.00,0.00,
1.198,-0.14,-0.03,0.53,-0.00,0.00,-0.00,
1.199,-0.14,-0.03,0.53,-0.00,0.00,-0.00,
1.2,-0.15,-0.03,0.50,-0.00,0.00,-0.00,
1.2,-0.15,-0.03,0.50,-0.00,0.00,-0.00,
1.207,-0.15,-0.03,0.50,-0.00,0.00,-0.00,
1.208,-0.15,-0.03,0.50,-0.00,0.00,-0.00,
1.209,-0.15,-0.03,0.50,-0.00,0.00,-0.00,
1.209,-0.15,-0.03,0.50,-0.00,0.00,-0.00,
1.217,-0.15,-0.03,0.50,-0.00,0.00,-0.00,
1.218,-0.15,-0.03,0.50,-0.00,0.00,-0.00,
1.219,-0.14,0.03,0.48,-0.00,0.00,-0.00,
1.219,-0.14,0.03,0.48,-0.00,0.00,-0.00,
1.228,-0.14,0.03,0.48,-0.00,0.00,-0.00,
1.229,-0.14,0.03,0.48,-0.00,0.00,-0.00,
1.229,-0.12,0.05,0.47,-0.00,0.00,-0.00,
1.23,-0.12,0.05,0.47,-0.00,0.00,-0.00,
1.237,-0.12,0.05,0.47,-0.00,-0.00,0.00,
1.237,-0.12,0.05,0.47,-0.00,-0.00,0.00,
1.238,-0.08,0.06,0.44,-0.00,-0.00,0.00,
1.238,-0.08,0.06,0.44,-0.00,-0.00,0.00,
1.246,-0.08,0.06,0.44,0.00,0.00,-0.00,
1.246,-0.08,0.06,0.44,0.00,0.00,-0.00,
1.247,-0.06,0.04,0.40,0.00,0.00,-0.00,
1.248,-0.06,0.04,0.40,0.00,0.00,-0.00,
1.255,-0.06,0.04,0.40,-0.00,0.00,0.00,
1.256,-0.06,0.04,0.40,-0.00,0.00,0.00,
1.256,-0.04,0.02,0.35,-0.00,0.00,0.00,
1.256,-0.04,0.02,0.35,-0.00,0.00,0.00,
1.266,-0.04,0.02,0.35,-0.00,-0.00,-0.00,
1.267,-0.04,0.02,0.35,-0.00,-0.00,-0.00,
1.268,-0.03,0.01,0.27,-0.00,-0.00,-0.00,
1.268,-0.03,0.01,0.27,-0.00,-0.00,-0.00,
1.275,-0.03,0.01,0.27,-0.00,0.00,0.00,
1.276,-0.03,0.01,0.27,-0.00,0.00,0.00,
1.277,-0.02,0.01,0.22,-0.00,0.00,0.00,
1.277,-0.02,0.01,0.22,-0.00,0.00,0.00,
1.285,-0.02,0.01,0.22,0.00,-0.00,-0.00,
1.286,-0.02,0.01,0.22,0.00,-0.00,-0.00,
1.286,-0.02,0.00,0.21,0.00,-0.00,-0.00,
1.287,-0.02,0.00,0.21,0.00,-0.00,-0.00,
1.294,-0.02,0.00,0.21,0.00,-0.00,0.00,
1.295,-0.02,0.00,0.21,0.00,-0.00,0.00,
1.295,-0.01,0.01,0.23,0.00,-0.00,0.00,
1.296,-0.01,0.01,0.23,0.00,-0.00,0.00,
1.303,-0.01,0.01,0.23,-0.00,0.00,0.00,
1.304,-0.01,0.01,0.23,-0.00,0.00,0.00,
1.305,-0.01,0.02,0.30,-0.00,0.00,0.00,
1.305,-0.01,0.02,0.30,-0.00,0.00,0.00,
1.313,-0.01,0.02,0.30,0.00,-0.00,-0.00,
1.314,-0.01,0.02,0.30,0.00,-0.00,-0.00,
1.315,0.01,0.03,0.38,0.00,-0.00,-0.00,
1.315,0.01,0.03,0.38,0.00,-0.00,-0.00,
1.323,0.01,0.03,0.38,0.00,0.00,-0.00,
1.324,0.01,0.03,0.38,0.00,0.00,-0.00,
1.324,0.01,0.04,0.41,0.00,0.00,-0.00,
1.324,0.01,0.04,0.41,0.00,0.00,-0.00,
1.331,0.01,0.04,0.41,0.00,-0.00,0.00,
1.332,0.01,0.04,0.41,0.00,-0.00,0.00,
1.333,0.02,0.03,0.38,0.00,-0.00,0.00,
1.333,0.02,0.03,0.38,0.00,-0.00,0.00,
1.342,0.02,0.03,0.38,-0.00,-0.00,0.00,
1.342,0.02,0.03,0.38,-0.00,-0.00,0.00,
1.343,0.03,0.03,0.32,-0.00,-0.00,0.00,
1.343,0.03,0.03,0.32,-0.00,-0.00,0.00,
1.35,0.03,0.03,0.32,-0.00,-0.00,-0.00,
1.351,0.03,0.03,0.32,-0.00,-0.00,-0.00,
1.351,0.03,0.01,0.26,-0.00,-0.00,-0.00,
1.352,0.03,0.01,0.26,-0.00,-0.00,-0.00,
1.361,0.03,0.01,0.26,-0.00,-0.00,-0.00,
1.361,0.03,0.01,0.26,-0.00,-0.00,-0.00,
1.362,0.05,0.04,0.19,-0.00,-0.00,-0.00,
1.362,0.05,0.04,0.19,-0.00,-0.00,-0.00,
1.37,0.05,0.04,0.19,-0.00,-0.00,0.00,
1.37,0.05,0.04,0.19,-0.00,-0.00,0.00,
1.371,0.08,0.06,0.15,-0.00,-0.00,0.00,
1.371,0.08,0.06,0.15,-0.00,-0.00,0.00,
1.38,0.08,0.06,0.15,0.00,-0.00,-0.00,
1.381,0.08,0.06,0.15,0.00,-0.00,-0.00,
1.381,0.09,0.06,0.14,0.00,-0.00,-0.00,
1.382,0.09,0.06,0.14,0.00,-0.00,-0.00,
1.389,0.09,0.06,0.14,0.00,-0.00,-0.00,
1.39,0.09,0.06,0.14,0.00,-0.00,-0.00,
1.39,0.08,0.06,0.13,0.00,-0.00,-0.00,
1.391,0.08,0.06,0.13,0.00,-0.00,-0.00,
1.399,0.08,0.06,0.13,0.00,-0.00,-0.00,
1.399,0.08,0.06,0.13,0.00,-0.00,-0.00,
1.4,0.07,0.04,0.10,0.00,-0.00,-0.00,
1.401,0.07,0.04,0.10,0.00,-0.00,-0.00,
1.408,0.07,0.04,0.10,0.00,-0.00,-0.00,
1.409,0.07,0.04,0.10,0.00,-0.00,-0.00,
1.409,0.07,0.04,0.10,0.00,-0.00,-0.00,
1.41,0.07,0.04,0.10,0.00,-0.00,-0.00,
1.418,0.07,0.04,0.10,-0.00,-0.00,0.00,
1.419,0.07,0.04,0.10,-0.00,-0.00,0.00,
1.42,0.05,0.00,0.14,-0.00,-0.00,0.00,
1.42,0.05,0.00,0.14,-0.00,-0.00,0.00,
1.427,0.05,0.00,0.14,-0.00,0.00,-0.00,
1.428,0.05,0.00,0.14,-0.00,0.00,-0.00,
1.431,0.07,0.01,0.19,-0.00,0.00,-0.00,
1.432,0.07,0.01,0.19,-0.00,0.00,-0.00,
1.448,0.07,0.01,0.19,-0.00,-0.00,-0.00,
1.449,0.07,0.01,0.19,-0.00,-0.00,-0.00,
1.45,0.07,0.02,0.28,-0.00,-0.00,-0.00,
1.451,0.07,0.02,0.28,-0.00,-0.00,-0.00,
1.451,0.07,0.02,0.28,-0.00,-0.00,-0.00,
1.451,0.07,0.02,0.28,-0.00,-0.00,-0.00,
1.452,0.07,0.02,0.28,-0.00,-0.00,-0.00,
1.452,0.07,0.02,0.28,-0.00,-0.00,-0.00,
1.455,0.07,0.02,0.28,-0.00,0.00,-0.00,
1.456,0.07,0.02,0.28,-0.00,0.00,-0.00,
1.456,0.08,0.06,0.43,-0.00,0.00,-0.00,
1.457,0.08,0.06,0.43,-0.00,0.00,-0.00,
1.465,0.08,0.06,0.43,-0.00,0.00,0.00,
1.466,0.08,0.06,0.43,-0.00,0.00,0.00,
1.466,0.06,0.07,0.45,-0.00,0.00,0.00,
1.466,0.06,0.07,0.45,-0.00,0.00,0.00,
1.474,0.06,0.07,0.45,-0.00,0.00,0.00,
1.475,0.06,0.07,0.45,-0.00,0.00,0.00,
1.475,0.06,0.07,0.45,-0.00,0.00,0.00,
1.476,0.06,0.07,0.45,-0.00,0.00,0.00,
1.484,0.06,0.07,0.45,-0.00,-0.00,0.00,
1.485,0.06,0.07,0.45,-0.00,-0.00,0.00,
1.485,0.04,0.08,0.38,-0.00,-0.00,0.00,
1.486,0.04,0.08,0.38,-0.00,-0.00,0.00,
1.494,0.04,0.08,0.38,0.00,0.00,-0.00,
1.495,0.04,0.08,0.38,0.00,0.00,-0.00,
1.495,0.04,0.10,0.35,0.00,0.00,-0.00,
1.496,0.04,0.10,0.35,0.00,0.00,-0.00,
1.503,0.04,0.10,0.35,-0.00,0.00,0.00,
1.504,0.04,0.10,0.35,-0.00,0.00,0.00,
1.505,0.07,0.13,0.33,-0.00,0.00,0.00,
1.506,0.07,0.13,0.33,-0.00,0.00,0.00,
1.513,0.07,0.13,0.33,0.00,0.00,-0.00,
1.513,0.07,0.13,0.33,0.00,0.00,-0.00,
1.514,0.08,0.15,0.31,0.00,0.00,-0.00,
1.515,0.08,0.15,0.31,0.00,0.00,-0.00,
1.527,0.08,0.15,0.31,-0.00,-0.00,0.00,
1.528,0.08,0.15,0.31,-0.00,-0.00,0.00,
1.529,0.07,0.14,0.30,-0.00,-0.00,0.00,
1.529,0.07,0.14,0.30,-0.00,-0.00,0.00,
1.532,0.07,0.14,0.30,-0.00,-0.00,0.00,
1.533,0.07,0.14,0.30,-0.00,-0.00,0.00,
1.533,0.08,0.10,0.30,-0.00,-0.00,0.00,
1.533,0.08,0.10,0.30,-0.00,-0.00,0.00,
1.541,0.08,0.10,0.30,0.00,0.00,0.00,
1.542,0.08,0.10,0.30,0.00,0.00,0.00,
1.542,0.08,0.06,0.31,0.00,0.00,0.00,
1.543,0.08,0.06,0.31,0.00,0.00,0.00,
1.551,0.08,0.06,0.31,-0.00,-0.00,0.00,
1.552,0.08,0.06,0.31,-0.00,-0.00,0.00,
1.552,0.10,0.01,0.32,-0.00,-0.00,0.00,
1.553,0.10,0.01,0.32,-0.00,-0.00,0.00,
1.561,0.10,0.01,0.32,0.00,0.00,-0.00,
1.563,0.10,0.01,0.32,0.00,0.00,-0.00,
1.564,0.10,-0.00,0.30,0.00,0.00,-0.00,
1.565,0.10,-0.00,0.30,0.00,0.00,-0.00,
1.569,0.10,-0.00,0.30,0.00,0.00,-0.00,
1.571,0.10,-0.00,0.30,0.00,0.00,-0.00,
1.571,0.08,-0.01,0.29,0.00,0.00,-0.00,
1.572,0.08,-0.01,0.29,0.00,0.00,-0.00,
1.579,0.08,-0.01,0.29,0.00,-0.00,-0.00,
1.581,0.08,-0.01,0.29,0.00,-0.00,-0.00,
1.582,0.05,-0.02,0.26,0.00,-0.00,-0.00,
1.583,0.05,-0.02,0.26,0.00,-0.00,-0.00,
1.589,0.05,-0.02,0.26,0.00,0.00,0.00,
1.59,0.05,-0.02,0.26,0.00,0.00,0.00,
1.59,0.04,-0.05,0.24,0.00,0.00,0.00,
1.591,0.04,-0.05,0.24,0.00,0.00,0.00,
1.599,0.04,-0.05,0.24,-0.00,0.00,0.00,
1.6,0.04,-0.05,0.24,-0.00,0.00,0.00,
1.6,0.03,-0.06,0.23,-0.00,0.00,0.00,
1.601,0.03,-0.06,0.23,-0.00,0.00,0.00,
1.608,0.03,-0.06,0.23,-0.00,0.00,0.00,
1.609,0.03,-0.06,0.23,-0.00,0.00,0.00,
1.609,0.03,-0.06,0.23,-0.00,0.00,0.00,
1.61,0.03,-0.06,0.23,-0.00,0.00,0.00,
1.617,0.03,-0.06,0.23,-0.00,-0.00,-0.00,
1.618,0.03,-0.06,0.23,-0.00,-0.00,-0.00,
1.618,0.05,-0.05,0.21,-0.00,-0.00,-0.00,
1.619,0.05,-0.05,0.21,-0.00,-0.00,-0.00,
1.628,0.05,-0.05,0.21,-0.00,0.00,-0.00,
1.629,0.05,-0.05,0.21,-0.00,0.00,-0.00,
1.63,0.04,-0.01,0.23,-0.00,0.00,-0.00,
1.63,0.04,-0.01,0.23,-0.00,0.00,-0.00,
1.639,0.04,-0.01,0.23,-0.00,0.00,-0.00,
1.64,0.04,-0.01,0.23,-0.00,0.00,-0.00,
1.64,0.03,0.02,0.26,-0.00,0.00,-0.00,
1.641,0.03,0.02,0.26,-0.00,0.00,-0.00,
1.646,0.03,0.02,0.26,-0.00,-0.00,0.00,
1.647,0.03,0.02,0.26,-0.00,-0.00,0.00,
1.647,0.01,0.02,0.30,-0.00,-0.00,0.00,
1.648,0.01,0.02,0.30,-0.00,-0.00,0.00,
1.656,0.01,0.02,0.30,-0.00,-0.00,0.00,
1.657,0.01,0.02,0.30,-0.00,-0.00,0.00,
1.657,-0.00,0.01,0.35,-0.00,-0.00,0.00,
1.658,-0.00,0.01,0.35,-0.00,-0.00,0.00,
1.665,-0.00,0.01,0.35,0.00,0.00,-0.00,
1.666,-0.00,0.01,0.35,0.00,0.00,-0.00,
1.667,-0.01,0.01,0.36,0.00,0.00,-0.00,
1.667,-0.01,0.01,0.36,0.00,0.00,-0.00,
1.674,-0.01,0.01,0.36,-0.00,0.00,0.00,
1.676,-0.01,0.01,0.36,-0.00,0.00,0.00,
1.676,-0.01,0.01,0.36,-0.00,0.00,0.00,
1.677,-0.01,0.01,0.36,-0.00,0.00,0.00,
1.684,-0.01,0.01,0.36,-0.00,-0.00,-0.00,
1.685,-0.01,0.01,0.36,-0.00,-0.00,-0.00,
1.686,-0.01,0.02,0.36,-0.00,-0.00,-0.00,
1.687,-0.01,0.02,0.36,-0.00,-0.00,-0.00,
1.694,-0.01,0.02,0.36,0.00,-0.00,0.00,
1.695,-0.01,0.02,0.36,0.00,-0.00,0.00,
1.697,-0.02,0.02,0.36,0.00,-0.00,0.00,
1.697,-0.02,0.02,0.36,0.00,-0.00,0.00,
1.703,-0.02,0.02,0.36,0.00,-0.00,-0.00,
1.704,-0.02,0.02,0.36,0.00,-0.00,-0.00,
1.704,-0.02,0.02,0.36,0.00,-0.00,-0.00,
1.705,-0.02,0.02,0.36,0.00,-0.00,-0.00,
1.713,-0.02,0.02,0.36,-0.00,0.00,-0.00,
1.714,-0.02,0.02,0.36,-0.00,0.00,-0.00,
1.714,-0.02,0.02,0.36,-0.00,0.00,-0.00,
1.715,-0.02,0.02,0.36,-0.00,0.00,-0.00,
1.727,-0.02,0.02,0.36,-0.00,-0.00,-0.00,
1.728,-0.02,0.02,0.36,-0.00,-0.00,-0.00,
1.728,-0.02,0.02,0.35,-0.00,-0.00,-0.00,
1.729,-0.02,0.02,0.35,-0.00,-0.00,-0.00,
1.732,-0.02,0.02,0.35,0.00,0.00,0.00,
1.733,-0.02,0.02,0.35,0.00,0.00,0.00,
1.733,-0.03,0.02,0.35,0.00,0.00,0.00,
1.733,-0.03,0.02,0.35,0.00,0.00,0.00,
1.741,-0.03,0.02,0.35,0.00,0.00,0.00,
1.742,-0.03,0.02,0.35,0.00,0.00,0.00,
1.742,-0.03,0.03,0.35,0.00,0.00,0.00,
1.743,-0.03,0.03,0.35,0.00,0.00,0.00,
1.751,-0.03,0.03,0.35,0.00,0.00,0.00,
1.751,-0.03,0.03,0.35,0.00,0.00,0.00,
1.752,-0.03,0.03,0.35,0.00,0.00,0.00,
1.753,-0.03,0.03,0.35,0.00,0.00,0.00,
1.761,-0.03,0.03,0.35,0.00,0.00,0.00,
1.762,-0.03,0.03,0.35,0.00,0.00,0.00,
1.763,-0.03,0.03,0.35,0.00,0.00,0.00,
1.763,-0.03,0.03,0.35,0.00,0.00,0.00,
1.77,-0.03,0.03,0.35,0.00,0.00,0.00,
1.771,-0.03,0.03,0.35,0.00,0.00,0.00,
1.771,-0.03,0.03,0.35,0.00,0.00,0.00,
1.772,-0.03,0.03,0.35,0.00,0.00,0.00,
1.78,-0.03,0.03,0.35,0.00,0.00,-0.00,
1.781,-0.03,0.03,0.35,0.00,0.00,-0.00,
1.782,-0.03,0.03,0.35,0.00,0.00,-0.00,
1.783,-0.03,0.03,0.35,0.00,0.00,-0.00,
1.789,-0.03,0.03,0.35,-0.00,-0.00,0.00,
1.79,-0.03,0.03,0.35,-0.00,-0.00,0.00,
1.791,-0.03,0.03,0.35,-0.00,-0.00,0.00,
1.791,-0.03,0.03,0.35,-0.00,-0.00,0.00,
1.798,-0.03,0.03,0.35,0.00,-0.00,0.00,
1.799,-0.03,0.03,0.35,0.00,-0.00,0.00,
1.8,-0.03,0.04,0.35,0.00,-0.00,0.00,
1.8,-0.03,0.04,0.35,0.00,-0.00,0.00,
1.808,-0.03,0.04,0.35,0.00,-0.00,0.00,
1.809,-0.03,0.04,0.35,0.00,-0.00,0.00,
1.81,-0.03,0.04,0.35,0.00,-0.00,0.00,
1.811,-0.03,0.04,0.35,0.00,-0.00,0.00,
1.817,-0.03,0.04,0.35,-0.00,-0.00,0.00,
1.818,-0.03,0.04,0.35,-0.00,-0.00,0.00,
1.819,-0.03,0.04,0.35,-0.00,-0.00,0.00,
1.819,-0.03,0.04,0.35,-0.00,-0.00,0.00,
1.828,-0.03,0.04,0.35,-0.00,-0.00,-0.00,
1.829,-0.03,0.04,0.35,-0.00,-0.00,-0.00,
1.83,-0.03,0.04,0.35,-0.00,-0.00,-0.00,
1.831,-0.03,0.04,0.35,-0.00,-0.00,-0.00,
1.836,-0.03,0.04,0.35,-0.00,0.00,0.00,
1.837,-0.03,0.04,0.35,-0.00,0.00,0.00,
1.837,-0.03,0.04,0.35,-0.00,0.00,0.00,
1.838,-0.03,0.04,0.35,-0.00,0.00,0.00,
1.846,-0.03,0.04,0.35,0.00,-0.00,-0.00,
1.847,-0.03,0.04,0.35,0.00,-0.00,-0.00,
1.847,-0.03,0.05,0.35,0.00,-0.00,-0.00,
1.847,-0.03,0.05,0.35,0.00,-0.00,-0.00,
1.856,-0.03,0.05,0.35,0.00,0.00,0.00,
1.857,-0.03,0.05,0.35,0.00,0.00,0.00,
1.857,-0.03,0.05,0.35,0.00,0.00,0.00,
1.858,-0.03,0.05,0.35,0.00,0.00,0.00,
1.865,-0.03,0.05,0.35,-0.00,-0.00,0.00,
1.866,-0.03,0.05,0.35,-0.00,-0.00,0.00,
1.867,-0.03,0.05,0.35,-0.00,-0.00,0.00,
1.868,-0.03,0.05,0.35,-0.00,-0.00,0.00,
1.875,-0.03,0.05,0.35,0.00,-0.00,-0.00,
1.876,-0.03,0.05,0.35,0.00,-0.00,-0.00,
1.877,-0.03,0.05,0.35,0.00,-0.00,-0.00,
1.878,-0.03,0.05,0.35,0.00,-0.00,-0.00,
1.884,-0.03,0.05,0.35,0.00,-0.00,-0.00,
1.885,-0.03,0.05,0.35,0.00,-0.00,-0.00,
1.885,-0.02,0.06,0.35,0.00,-0.00,-0.00,
1.886,-0.02,0.06,0.35,0.00,-0.00,-0.00,
1.893,-0.02,0.06,0.35,-0.00,-0.00,-0.00,
1.895,-0.02,0.06,0.35,-0.00,-0.00,-0.00,
1.895,-0.02,0.06,0.35,-0.00,-0.00,-0.00,
1.896,-0.02,0.06,0.35,-0.00,-0.00,-0.00,
1.903,-0.02,0.06,0.35,0.00,0.00,0.00,
1.904,-0.02,0.06,0.35,0.00,0.00,0.00,
1.905,-0.02,0.06,0.35,0.00,0.00,0.00,
1.906,-0.02,0.06,0.35,0.00,0.00,0.00,
1.912,-0.02,0.06,0.35,0.00,0.00,0.00,
1.913,-0.02,0.06,0.35,0.00,0.00,0.00,
1.914,-0.02,0.06,0.35,0.00,0.00,0.00,
1.915,-0.02,0.06,0.35,0.00,0.00,0.00,
1.93,-0.02,0.06,0.35,-0.00,-0.00,0.00,
1.931,-0.02,0.06,0.35,-0.00,-0.00,0.00,
1.931,-0.02,0.06,0.35,-0.00,-0.00,0.00,
1.932,-0.02,0.06,0.35,-0.00,-0.00,0.00,
1.932,-0.02,0.06,0.35,-0.00,0.00,0.00,
1.933,-0.02,0.06,0.35,-0.00,0.00,0.00,
1.933,-0.02,0.07,0.34,-0.00,0.00,0.00,
1.934,-0.02,0.07,0.34,-0.00,0.00,0.00,
1.944,-0.02,0.07,0.34,-0.00,0.00,-0.00,
1.945,-0.02,0.07,0.34,-0.00,0.00,-0.00,
1.945,-0.02,0.07,0.34,-0.00,0.00,-0.00,
1.945,-0.02,0.07,0.34,-0.00,0.00,-0.00,
1.951,-0.02,0.07,0.34,-0.00,-0.00,-0.00,
1.951,-0.02,0.07,0.34,-0.00,-0.00,-0.00,
1.951,-0.02,0.07,0.34,-0.00,-0.00,-0.00,
1.952,-0.02,0.07,0.34,-0.00,-0.00,-0.00,
1.962,-0.02,0.07,0.34,-0.00,0.00,0.00,
1.963,-0.02,0.07,0.34,-0.00,0.00,0.00,
1.963,-0.01,0.07,0.34,-0.00,0.00,0.00,
1.964,-0.01,0.07,0.34,-0.00,0.00,0.00,
1.97,-0.01,0.07,0.34,-0.00,0.00,0.00,
1.97,-0.01,0.07,0.34,-0.00,0.00,0.00,
1.971,-0.01,0.07,0.34,-0.00,0.00,0.00,
1.971,-0.01,0.07,0.34,-0.00,0.00,0.00,
1.979,-0.01,0.07,0.34,0.00,0.00,-0.00,
1.98,-0.01,0.07,0.34,0.00,0.00,-0.00,
1.981,-0.07,0.10,0.46,0.00,0.00,-0.00,
1.981,-0.07,0.10,0.46,0.00,0.00,-0.00,
1.988,-0.07,0.10,0.46,-0.00,0.00,-0.00,
1.99,-0.07,0.10,0.46,-0.00,0.00,-0.00,
1.99,-0.08,0.20,0.53,-0.00,0.00,-0.00,
1.991,-0.08,0.20,0.53,-0.00,0.00,-0.00,
1.999,-0.08,0.20,0.53,-0.00,-0.00,0.00,
1.999,-0.08,0.20,0.53,-0.00,-0.00,0.00,
2.0,-0.11,0.30,0.65,-0.00,-0.00,0.00,
2.001,-0.11,0.30,0.65,-0.00,-0.00,0.00,
2.007,-0.11,0.30,0.65,-0.00,-0.00,0.00,
2.009,-0.11,0.30,0.65,-0.00,-0.00,0.00,
2.01,-0.11,0.30,0.65,-0.00,-0.00,0.00,
2.011,-0.11,0.30,0.65,-0.00,-0.00,0.00,
2.017,-0.11,0.30,0.65,-0.00,0.00,-0.00,
2.018,-0.11,0.30,0.65,-0.00,0.00,-0.00,
2.019,-0.24,0.47,0.88,-0.00,0.00,-0.00,
2.02,-0.24,0.47,0.88,-0.00,0.00,-0.00,
2.032,-0.24,0.47,0.88,-0.00,-0.00,0.00,
2.033,-0.24,0.47,0.88,-0.00,-0.00,0.00,
2.033,-0.28,0.43,0.96,-0.00,-0.00,0.00,
2.034,-0.28,0.43,0.96,-0.00,-0.00,0.00,
2.037,-0.28,0.43,0.96,-0.00,0.00,-0.00,
2.038,-0.28,0.43,0.96,-0.00,0.00,-0.00,
2.038,-0.35,0.34,0.94,-0.00,0.00,-0.00,
2.038,-0.35,0.34,0.94,-0.00,0.00,-0.00,
2.048,-0.35,0.34,0.94,0.00,0.00,-0.00,
2.049,-0.35,0.34,0.94,0.00,0.00,-0.00,
2.049,-0.42,0.22,0.88,0.00,0.00,-0.00,
2.05,-0.42,0.22,0.88,0.00,0.00,-0.00,
2.056,-0.42,0.22,0.88,0.00,0.00,0.00,
2.057,-0.42,0.22,0.88,0.00,0.00,0.00,
2.057,-0.49,0.10,0.73,0.00,0.00,0.00,
2.058,-0.49,0.10,0.73,0.00,0.00,0.00,
2.065,-0.49,0.10,0.73,-0.00,-0.00,-0.00,
2.066,-0.49,0.10,0.73,-0.00,-0.00,-0.00,
2.066,-0.54,0.06,0.57,-0.00,-0.00,-0.00,
2.067,-0.54,0.06,0.57,-0.00,-0.00,-0.00,
2.075,-0.54,0.06,0.57,0.00,-0.00,-0.00,
2.076,-0.54,0.06,0.57,0.00,-0.00,-0.00,
2.077,-0.50,0.06,0.42,0.00,-0.00,-0.00,
2.077,-0.50,0.06,0.42,0.00,-0.00,-0.00,
2.084,-0.50,0.06,0.42,-0.00,0.00,0.00,
2.085,-0.50,0.06,0.42,-0.00,0.00,0.00,
2.086,-0.39,0.13,0.29,-0.00,0.00,0.00,
2.086,-0.39,0.13,0.29,-0.00,0.00,0.00,
2.093,-0.39,0.13,0.29,0.00,-0.00,0.00,
2.095,-0.39,0.13,0.29,0.00,-0.00,0.00,
2.095,-0.25,0.16,0.16,0.00,-0.00,0.00,
2.096,-0.25,0.16,0.16,0.00,-0.00,0.00,
2.103,-0.25,0.16,0.16,0.00,0.00,0.00,
2.103,-0.25,0.16,0.16,0.00,0.00,0.00,
2.104,-0.27,0.18,0.09,0.00,0.00,0.00,
2.105,-0.27,0.18,0.09,0.00,0.00,0.00,
2.112,-0.27,0.18,0.09,-0.02,0.25,-0.12,
2.113,-0.27,0.18,0.09,-0.02,0.25,-0.12,
2.114,-0.47,0.24,-0.04,-0.02,0.25,-0.12,
2.115,-0.47,0.24,-0.04,-0.02,0.25,-0.12,
2.126,-0.47,0.24,-0.04,0.01,0.20,-0.13,
2.127,-0.47,0.24,-0.04,0.01,0.20,-0.13,
2.128,-0.68,0.26,-0.35,0.01,0.20,-0.13,
2.128,-0.68,0.26,-0.35,0.01,0.20,-0.13,
2.132,-0.68,0.26,-0.35,0.06,0.17,-0.13,
2.133,-0.68,0.26,-0.35,0.06,0.17,-0.13,
2.134,-0.81,0.29,-0.86,0.06,0.17,-0.13,
2.134,-0.81,0.29,-0.86,0.06,0.17,-0.13,
2.141,-0.81,0.29,-0.86,0.11,0.20,-0.12,
2.142,-0.81,0.29,-0.86,0.11,0.20,-0.12,
2.142,-0.77,0.26,-2.46,0.11,0.20,-0.12,
2.142,-0.77,0.26,-2.46,0.11,0.20,-0.12,
2.151,-0.77,0.26,-2.46,0.18,0.27,-0.09,
2.151,-0.77,0.26,-2.46,0.18,0.27,-0.09,
2.152,-0.61,0.09,-2.99,0.18,0.27,-0.09,
2.152,-0.61,0.09,-2.99,0.18,0.27,-0.09,
2.16,-0.61,0.09,-2.99,0.28,0.37,-0.02,
2.162,-0.61,0.09,-2.99,0.28,0.37,-0.02,
2.162,-0.45,-0.17,-3.23,0.28,0.37,-0.02,
2.163,-0.45,-0.17,-3.23,0.28,0.37,-0.02,
2.169,-0.45,-0.17,-3.23,0.40,0.46,0.04,
2.17,-0.45,-0.17,-3.23,0.40,0.46,0.04,
2.17,-0.22,-0.51,-1.63,0.40,0.46,0.04,
2.171,-0.22,-0.51,-1.63,0.40,0.46,0.04,
2.179,-0.22,-0.51,-1.63,0.46,0.47,0.07,
2.181,-0.22,-0.51,-1.63,0.46,0.47,0.07,
2.182,0.23,-0.94,0.08,0.46,0.47,0.07,
2.182,0.23,-0.94,0.08,0.46,0.47,0.07,
2.189,0.23,-0.94,0.08,0.38,0.37,0.01,
2.19,0.23,-0.94,0.08,0.38,0.37,0.01,
2.191,0.82,-1.01,0.61,0.38,0.37,0.01,
2.191,0.82,-1.01,0.61,0.38,0.37,0.01,
2.198,0.82,-1.01,0.61,0.10,0.11,-0.14,
2.199,0.82,-1.01,0.61,0.10,0.11,-0.14,
2.2,2.50,0.84,2.00,0.10,0.11,-0.14,
2.201,2.50,0.84,2.00,0.10,0.11,-0.14,
2.207,2.50,0.84,2.00,0.10,0.11,-0.14,
2.208,2.50,0.84,2.00,0.10,0.11,-0.14,
2.209,2.50,0.84,2.00,0.10,0.11,-0.14,
2.21,2.50,0.84,2.00,0.10,0.11,-0.14,
2.218,2.50,0.84,2.00,-0.23,-0.32,-0.31,
2.218,2.50,0.84,2.00,-0.23,-0.32,-0.31,
2.219,3.30,4.65,1.75,-0.23,-0.32,-0.31,
2.22,3.30,4.65,1.75,-0.23,-0.32,-0.31,
2.228,3.30,4.65,1.75,-0.28,-0.91,-0.37,
2.229,3.30,4.65,1.75,-0.28,-0.91,-0.37,
2.23,5.09,4.70,-0.14,-0.28,-0.91,-0.37,
2.23,5.09,4.70,-0.14,-0.28,-0.91,-0.37,
2.239,5.09,4.70,-0.14,0.20,-1.62,-0.26,
2.239,5.09,4.70,-0.14,0.20,-1.62,-0.26,
2.24,6.84,2.58,-2.02,0.20,-1.62,-0.26,
2.24,6.84,2.58,-2.02,0.20,-1.62,-0.26,
2.246,6.84,2.58,-2.02,1.05,-2.43,-0.06,
2.247,6.84,2.58,-2.02,1.05,-2.43,-0.06,
2.247,8.97,2.17,-4.57,1.05,-2.43,-0.06,
2.248,8.97,2.17,-4.57,1.05,-2.43,-0.06,
2.255,8.97,2.17,-4.57,1.81,-3.45,0.05,
2.255,8.97,2.17,-4.57,1.81,-3.45,0.05,
2.256,9.45,1.93,-4.74,1.81,-3.45,0.05,
2.256,9.45,1.93,-4.74,1.81,-3.45,0.05,
2.265,9.45,1.93,-4.74,2.14,-4.81,-0.07,
2.266,9.45,1.93,-4.74,2.14,-4.81,-0.07,
2.266,9.49,1.83,-2.92,2.14,-4.81,-0.07,
2.267,9.49,1.83,-2.92,2.14,-4.81,-0.07,
2.274,9.49,1.83,-2.92,1.96,-6.40,-0.45,
2.276,9.49,1.83,-2.92,1.96,-6.40,-0.45,
2.276,6.98,1.90,-1.21,1.96,-6.40,-0.45,
2.277,6.98,1.90,-1.21,1.96,-6.40,-0.45,
2.285,6.98,1.90,-1.21,1.39,-7.66,-0.93,
2.286,6.98,1.90,-1.21,1.39,-7.66,-0.93,
2.287,4.08,2.25,0.97,1.39,-7.66,-0.93,
2.288,4.08,2.25,0.97,1.39,-7.66,-0.93,
2.293,4.08,2.25,0.97,0.77,-7.84,-1.17,
2.295,4.08,2.25,0.97,0.77,-7.84,-1.17,
2.296,3.48,2.72,1.09,0.77,-7.84,-1.17,
2.297,3.48,2.72,1.09,0.77,-7.84,-1.17,
2.302,3.48,2.72,1.09,0.48,-6.67,-1.01,
2.303,3.48,2.72,1.09,0.48,-6.67,-1.01,
2.303,3.48,3.28,1.18,0.48,-6.67,-1.01,
2.304,3.48,3.28,1.18,0.48,-6.67,-1.01,
2.312,3.48,3.28,1.18,0.56,-4.69,-0.58,
2.313,3.48,3.28,1.18,0.56,-4.69,-0.58,
2.314,5.23,4.72,1.07,0.56,-4.69,-0.58,
2.314,5.23,4.72,1.07,0.56,-4.69,-0.58,
2.323,5.23,4.72,1.07,0.66,-2.70,-0.28,
2.324,5.23,4.72,1.07,0.66,-2.70,-0.28,
2.324,7.68,4.85,0.68,0.66,-2.70,-0.28,
2.325,7.68,4.85,0.68,0.66,-2.70,-0.28,
2.331,7.68,4.85,0.68,0.72,-1.34,-0.16,
2.332,7.68,4.85,0.68,0.72,-1.34,-0.16,
2.332,9.96,4.92,0.06,0.72,-1.34,-0.16,
2.332,9.96,4.92,0.06,0.72,-1.34,-0.16,
2.341,9.96,4.92,0.06,0.94,-0.84,-0.04,
2.342,9.96,4.92,0.06,0.94,-0.84,-0.04,
2.343,10.29,4.86,-0.51,0.94,-0.84,-0.04,
2.343,10.29,4.86,-0.51,0.94,-0.84,-0.04,
2.351,10.29,4.86,-0.51,1.13,-1.10,0.01,
2.351,10.29,4.86,-0.51,1.13,-1.10,0.01,
2.352,10.25,4.46,-0.89,1.13,-1.10,0.01,
2.352,10.25,4.46,-0.89,1.13,-1.10,0.01,
2.36,10.25,4.46,-0.89,1.12,-1.79,-0.04,
2.361,10.25,4.46,-0.89,1.12,-1.79,-0.04,
2.362,9.75,2.43,-1.15,1.12,-1.79,-0.04,
2.362,9.75,2.43,-1.15,1.12,-1.79,-0.04,
2.369,9.75,2.43,-1.15,0.92,-2.51,-0.13,
2.369,9.75,2.43,-1.15,0.92,-2.51,-0.13,
2.37,7.75,0.82,-1.30,0.92,-2.51,-0.13,
2.37,7.75,0.82,-1.30,0.92,-2.51,-0.13,
2.379,7.75,0.82,-1.30,0.83,-3.02,-0.22,
2.381,7.75,0.82,-1.30,0.83,-3.02,-0.22,
2.382,7.17,0.22,-1.40,0.83,-3.02,-0.22,
2.383,7.17,0.22,-1.40,0.83,-3.02,-0.22,
2.389,7.17,0.22,-1.40,0.95,-3.22,-0.26,
2.391,7.17,0.22,-1.40,0.95,-3.22,-0.26,
2.392,5.43,-1.52,-1.47,0.95,-3.22,-0.26,
2.393,5.43,-1.52,-1.47,0.95,-3.22,-0.26,
2.398,5.43,-1.52,-1.47,0.55,-2.89,-0.20,
2.399,5.43,-1.52,-1.47,0.55,-2.89,-0.20,
2.399,4.94,-1.85,-1.52,0.55,-2.89,-0.20,
2.4,4.94,-1.85,-1.52,0.55,-2.89,-0.20,
2.407,4.94,-1.85,-1.52,0.55,-2.89,-0.20,
2.408,4.94,-1.85,-1.52,0.55,-2.89,-0.20,
2.408,4.94,-1.85,-1.52,0.55,-2.89,-0.20,
2.409,4.94,-1.85,-1.52,0.55,-2.89,-0.20,
2.417,4.94,-1.85,-1.52,-0.28,-2.31,-0.04,
2.418,4.94,-1.85,-1.52,-0.28,-2.31,-0.04,
2.419,4.48,-2.09,-1.99,-0.28,-2.31,-0.04,
2.419,4.48,-2.09,-1.99,-0.28,-2.31,-0.04,
2.427,4.48,-2.09,-1.99,-0.98,-1.83,0.20,
2.428,4.48,-2.09,-1.99,-0.98,-1.83,0.20,
2.429,4.63,-2.06,-2.37,-0.98,-1.83,0.20,
2.429,4.63,-2.06,-2.37,-0.98,-1.83,0.20,
2.448,4.63,-2.06,-2.37,-1.52,-1.34,0.37,
2.449,4.63,-2.06,-2.37,-1.52,-1.34,0.37,
2.45,6.09,-2.05,-2.75,-1.52,-1.34,0.37,
2.45,6.09,-2.05,-2.75,-1.52,-1.34,0.37,
2.451,6.09,-2.05,-2.75,-1.52,-1.34,0.37,
2.451,6.09,-2.05,-2.75,-1.52,-1.34,0.37,
2.452,6.09,-2.05,-2.75,-1.52,-1.34,0.37,
2.452,6.09,-2.05,-2.75,-1.52,-1.34,0.37,
2.455,6.09,-2.05,-2.75,-2.15,-0.96,0.64,
2.456,6.09,-2.05,-2.75,-2.15,-0.96,0.64,
2.456,6.29,-2.34,-3.17,-2.15,-0.96,0.64,
2.457,6.29,-2.34,-3.17,-2.15,-0.96,0.64,
2.465,6.29,-2.34,-3.17,-2.72,-1.84,0.73,
2.466,6.29,-2.34,-3.17,-2.72,-1.84,0.73,
2.466,5.97,-2.76,-3.08,-2.72,-1.84,0.73,
2.467,5.97,-2.76,-3.08,-2.72,-1.84,0.73,
2.474,5.97,-2.76,-3.08,-2.72,-1.84,0.73,
2.475,5.97,-2.76,-3.08,-2.72,-1.84,0.73,
2.476,5.97,-2.76,-3.08,-2.72,-1.84,0.73,
2.476,5.97,-2.76,-3.08,-2.72,-1.84,0.73,
2.484,5.97,-2.76,-3.08,-3.00,-2.59,0.81,
2.485,5.97,-2.76,-3.08,-3.00,-2.59,0.81,
2.486,4.91,-3.83,-2.89,-3.00,-2.59,0.81,
2.487,4.91,-3.83,-2.89,-3.00,-2.59,0.81,
2.493,4.91,-3.83,-2.89,-2.98,-2.58,0.73,
2.495,4.91,-3.83,-2.89,-2.98,-2.58,0.73,
2.496,4.08,-4.40,-2.86,-2.98,-2.58,0.73,
2.496,4.08,-4.40,-2.86,-2.98,-2.58,0.73,
2.502,4.08,-4.40,-2.86,-2.89,-2.36,0.49,
2.503,4.08,-4.40,-2.86,-2.89,-2.36,0.49,
2.504,3.19,-4.89,-2.91,-2.89,-2.36,0.49,
2.504,3.19,-4.89,-2.91,-2.89,-2.36,0.49,
2.512,3.19,-4.89,-2.91,-2.83,-2.05,0.28,
2.513,3.19,-4.89,-2.91,-2.83,-2.05,0.28,
2.514,2.37,-5.23,-2.92,-2.83,-2.05,0.28,
2.514,2.37,-5.23,-2.92,-2.83,-2.05,0.28,
2.523,2.37,-5.23,-2.92,-2.78,-1.68,0.39,
2.524,2.37,-5.23,-2.92,-2.78,-1.68,0.39,
2.524,1.75,-5.42,-2.74,-2.78,-1.68,0.39,
2.525,1.75,-5.42,-2.74,-2.78,-1.68,0.39,
2.531,1.75,-5.42,-2.74,-2.73,-1.25,0.78,
2.532,1.75,-5.42,-2.74,-2.73,-1.25,0.78,
2.532,1.44,-5.46,-2.33,-2.73,-1.25,0.78,
2.533,1.44,-5.46,-2.33,-2.73,-1.25,0.78,
2.541,1.44,-5.46,-2.33,-2.67,-0.80,1.15,
2.542,1.44,-5.46,-2.33,-2.67,-0.80,1.15,
2.543,1.45,-5.37,-1.67,-2.67,-0.80,1.15,
2.543,1.45,-5.37,-1.67,-2.67,-0.80,1.15,
2.551,1.45,-5.37,-1.67,-2.57,-0.35,1.47,
2.552,1.45,-5.37,-1.67,-2.57,-0.35,1.47,
2.553,1.65,-5.19,-0.17,-2.57,-0.35,1.47,
2.553,1.65,-5.19,-0.17,-2.57,-0.35,1.47,
2.561,1.65,-5.19,-0.17,-2.40,0.08,1.70,
2.562,1.65,-5.19,-0.17,-2.40,0.08,1.70,
2.562,1.89,-4.90,0.15,-2.40,0.08,1.70,
2.563,1.89,-4.90,0.15,-2.40,0.08,1.70,
2.57,1.89,-4.90,0.15,-2.14,0.48,1.81,
2.571,1.89,-4.90,0.15,-2.14,0.48,1.81,
2.571,2.11,-4.47,0.41,-2.14,0.48,1.81,
2.571,2.11,-4.47,0.41,-2.14,0.48,1.81,
2.578,2.11,-4.47,0.41,-1.79,0.81,1.78,
2.579,2.11,-4.47,0.41,-1.79,0.81,1.78,
2.58,2.20,-3.95,0.46,-1.79,0.81,1.78,
2.58,2.20,-3.95,0.46,-1.79,0.81,1.78,
2.589,2.20,-3.95,0.46,-1.37,1.00,1.62,
2.59,2.20,-3.95,0.46,-1.37,1.00,1.62,
2.59,2.17,-3.30,0.25,-1.37,1.00,1.62,
2.591,2.17,-3.30,0.25,-1.37,1.00,1.62,
2.599,2.17,-3.30,0.25,-0.93,1.00,1.37,
2.6,2.17,-3.30,0.25,-0.93,1.00,1.37,
2.601,1.95,-2.60,-1.44,-0.93,1.00,1.37,
2.601,1.95,-2.60,-1.44,-0.93,1.00,1.37,
2.607,1.95,-2.60,-1.44,-0.93,1.00,1.37,
2.609,1.95,-2.60,-1.44,-0.93,1.00,1.37,
2.61,1.95,-2.60,-1.44,-0.93,1.00,1.37,
2.61,1.95,-2.60,-1.44,-0.93,1.00,1.37,
2.617,1.95,-2.60,-1.44,-0.48,0.83,1.06,
2.618,1.95,-2.60,-1.44,-0.48,0.83,1.06,
2.618,1.06,-1.61,-3.93,-0.48,0.83,1.06,
2.618,1.06,-1.61,-3.93,-0.48,0.83,1.06,
2.627,1.06,-1.61,-3.93,-0.03,0.48,0.71,
2.629,1.06,-1.61,-3.93,-0.03,0.48,0.71,
2.629,0.25,-1.26,-5.44,-0.03,0.48,0.71,
2.629,0.25,-1.26,-5.44,-0.03,0.48,0.71,
2.637,0.25,-1.26,-5.44,0.39,-0.08,0.32,
2.638,0.25,-1.26,-5.44,0.39,-0.08,0.32,
2.638,-0.44,-0.99,-5.95,0.39,-0.08,0.32,
2.639,-0.44,-0.99,-5.95,0.39,-0.08,0.32,
2.646,-0.44,-0.99,-5.95,0.81,-0.83,-0.07,
2.647,-0.44,-0.99,-5.95,0.81,-0.83,-0.07,
2.647,-0.71,-0.77,-6.45,0.81,-0.83,-0.07,
2.648,-0.71,-0.77,-6.45,0.81,-0.83,-0.07,
2.655,-0.71,-0.77,-6.45,1.20,-1.66,-0.46,
2.656,-0.71,-0.77,-6.45,1.20,-1.66,-0.46,
2.657,-0.38,-0.55,-6.68,1.20,-1.66,-0.46,
2.657,-0.38,-0.55,-6.68,1.20,-1.66,-0.46,
2.665,-0.38,-0.55,-6.68,1.57,-2.49,-0.83,
2.666,-0.38,-0.55,-6.68,1.57,-2.49,-0.83,
2.667,1.57,-0.28,-6.65,1.57,-2.49,-0.83,
2.668,1.57,-0.28,-6.65,1.57,-2.49,-0.83,
2.674,1.57,-0.28,-6.65,1.87,-3.31,-1.16,
2.676,1.57,-0.28,-6.65,1.87,-3.31,-1.16,
2.677,3.46,0.13,-6.51,1.87,-3.31,-1.16,
2.677,3.46,0.13,-6.51,1.87,-3.31,-1.16,
2.684,3.46,0.13,-6.51,2.09,-4.18,-1.45,
2.685,3.46,0.13,-6.51,2.09,-4.18,-1.45,
2.686,4.99,0.66,-6.47,2.09,-4.18,-1.45,
2.686,4.99,0.66,-6.47,2.09,-4.18,-1.45,
2.693,4.99,0.66,-6.47,2.19,-5.03,-1.64,
2.694,4.99,0.66,-6.47,2.19,-5.03,-1.64,
2.695,5.40,1.21,-6.64,2.19,-5.03,-1.64,
2.696,5.40,1.21,-6.64,2.19,-5.03,-1.64,
2.704,5.40,1.21,-6.64,2.18,-5.68,-1.73,
2.705,5.40,1.21,-6.64,2.18,-5.68,-1.73,
2.706,5.73,1.67,-7.06,2.18,-5.68,-1.73,
2.706,5.73,1.67,-7.06,2.18,-5.68,-1.73,
2.712,5.73,1.67,-7.06,2.13,-5.99,-1.75,
2.713,5.73,1.67,-7.06,2.13,-5.99,-1.75,
2.714,5.78,1.92,-7.55,2.13,-5.99,-1.75,
2.714,5.78,1.92,-7.55,2.13,-5.99,-1.75,
2.722,5.78,1.92,-7.55,2.06,-5.99,-1.73,
2.723,5.78,1.92,-7.55,2.06,-5.99,-1.73,
2.723,5.58,1.99,-7.87,2.06,-5.99,-1.73,
2.724,5.58,1.99,-7.87,2.06,-5.99,-1.73,
2.731,5.58,1.99,-7.87,1.99,-5.81,-1.69,
2.732,5.58,1.99,-7.87,1.99,-5.81,-1.69,
2.733,5.20,1.91,-7.96,1.99,-5.81,-1.69,
2.733,5.20,1.91,-7.96,1.99,-5.81,-1.69,
2.742,5.20,1.91,-7.96,1.92,-5.53,-1.61,
2.743,5.20,1.91,-7.96,1.92,-5.53,-1.61,
2.744,4.75,1.73,-7.75,1.92,-5.53,-1.61,
2.745,4.75,1.73,-7.75,1.92,-5.53,-1.61,
2.75,4.75,1.73,-7.75,1.86,-5.17,-1.48,
2.751,4.75,1.73,-7.75,1.86,-5.17,-1.48,
2.752,4.27,1.43,-7.30,1.86,-5.17,-1.48,
2.752,4.27,1.43,-7.30,1.86,-5.17,-1.48,
2.76,4.27,1.43,-7.30,1.80,-4.72,-1.30,
2.761,4.27,1.43,-7.30,1.80,-4.72,-1.30,
2.761,3.72,1.08,-6.77,1.80,-4.72,-1.30,
2.762,3.72,1.08,-6.77,1.80,-4.72,-1.30,
2.77,3.72,1.08,-6.77,1.74,-4.18,-1.06,
2.771,3.72,1.08,-6.77,1.74,-4.18,-1.06,
2.772,3.21,0.76,-6.29,1.74,-4.18,-1.06,
2.773,3.21,0.76,-6.29,1.74,-4.18,-1.06,
2.779,3.21,0.76,-6.29,1.68,-3.57,-0.79,
2.78,3.21,0.76,-6.29,1.68,-3.57,-0.79,
2.781,2.80,0.53,-5.98,1.68,-3.57,-0.79,
2.781,2.80,0.53,-5.98,1.68,-3.57,-0.79,
2.789,2.80,0.53,-5.98,1.63,-2.90,-0.49,
2.79,2.80,0.53,-5.98,1.63,-2.90,-0.49,
2.79,2.49,0.41,-5.92,1.63,-2.90,-0.49,
2.791,2.49,0.41,-5.92,1.63,-2.90,-0.49,
2.798,2.49,0.41,-5.92,1.63,-2.90,-0.49,
2.799,2.49,0.41,-5.92,1.63,-2.90,-0.49,
2.8,2.49,0.41,-5.92,1.63,-2.90,-0.49,
2.8,2.49,0.41,-5.92,1.63,-2.90,-0.49,
2.809,2.49,0.41,-5.92,1.60,-2.25,-0.19,
2.81,2.49,0.41,-5.92,1.60,-2.25,-0.19,
2.81,2.17,0.26,-6.62,1.60,-2.25,-0.19,
2.811,2.17,0.26,-6.62,1.60,-2.25,-0.19,
2.817,2.17,0.26,-6.62,1.57,-1.70,0.11,
2.818,2.17,0.26,-6.62,1.57,-1.70,0.11,
2.819,1.74,0.16,-7.91,1.57,-1.70,0.11,
2.819,1.74,0.16,-7.91,1.57,-1.70,0.11,
2.827,1.74,0.16,-7.91,1.55,-1.35,0.36,
2.828,1.74,0.16,-7.91,1.55,-1.35,0.36,
2.828,1.05,-0.07,-8.27,1.55,-1.35,0.36,
2.829,1.05,-0.07,-8.27,1.55,-1.35,0.36,
2.838,1.05,-0.07,-8.27,1.54,-1.31,0.58,
2.839,1.05,-0.07,-8.27,1.54,-1.31,0.58,
2.84,-0.65,-0.41,-9.72,1.54,-1.31,0.58,
2.84,-0.65,-0.41,-9.72,1.54,-1.31,0.58,
2.845,-0.65,-0.41,-9.72,1.51,-1.59,0.75,
2.846,-0.65,-0.41,-9.72,1.51,-1.59,0.75,
2.847,-1.34,-0.72,-10.04,1.51,-1.59,0.75,
2.847,-1.34,-0.72,-10.04,1.51,-1.59,0.75,
2.855,-1.34,-0.72,-10.04,1.46,-2.15,0.89,
2.857,-1.34,-0.72,-10.04,1.46,-2.15,0.89,
2.858,-2.10,-0.95,-10.44,1.46,-2.15,0.89,
2.858,-2.10,-0.95,-10.44,1.46,-2.15,0.89,
2.864,-2.10,-0.95,-10.44,1.37,-2.89,1.03,
2.866,-2.10,-0.95,-10.44,1.37,-2.89,1.03,
2.866,-2.60,-0.98,-10.77,1.37,-2.89,1.03,
2.867,-2.60,-0.98,-10.77,1.37,-2.89,1.03,
2.875,-2.60,-0.98,-10.77,1.22,-3.74,1.18,
2.876,-2.60,-0.98,-10.77,1.22,-3.74,1.18,
2.876,-2.71,-0.79,-10.95,1.22,-3.74,1.18,
2.876,-2.71,-0.79,-10.95,1.22,-3.74,1.18,
2.884,-2.71,-0.79,-10.95,1.02,-4.58,1.32,
2.885,-2.71,-0.79,-10.95,1.02,-4.58,1.32,
2.885,-2.46,-0.52,-10.97,1.02,-4.58,1.32,
2.886,-2.46,-0.52,-10.97,1.02,-4.58,1.32,
2.894,-2.46,-0.52,-10.97,0.81,-5.29,1.41,
2.895,-2.46,-0.52,-10.97,0.81,-5.29,1.41,
2.896,-2.00,-0.27,-10.93,0.81,-5.29,1.41,
2.896,-2.00,-0.27,-10.93,0.81,-5.29,1.41,
2.903,-2.00,-0.27,-10.93,0.61,-5.79,1.39,
2.904,-2.00,-0.27,-10.93,0.61,-5.79,1.39,
2.904,-1.57,-0.18,-10.81,0.61,-5.79,1.39,
2.905,-1.57,-0.18,-10.81,0.61,-5.79,1.39,
2.912,-1.57,-0.18,-10.81,0.47,-5.98,1.23,
2.913,-1.57,-0.18,-10.81,0.47,-5.98,1.23,
2.914,-1.35,-0.31,-10.68,0.47,-5.98,1.23,
2.914,-1.35,-0.31,-10.68,0.47,-5.98,1.23,
2.922,-1.35,-0.31,-10.68,0.42,-5.84,0.96,
2.923,-1.35,-0.31,-10.68,0.42,-5.84,0.96,
2.923,-1.35,-0.59,-10.49,0.42,-5.84,0.96,
2.924,-1.35,-0.59,-10.49,0.42,-5.84,0.96,
2.931,-1.35,-0.59,-10.49,0.43,-5.46,0.68,
2.932,-1.35,-0.59,-10.49,0.43,-5.46,0.68,
2.933,-1.50,-0.99,-10.19,0.43,-5.46,0.68,
2.934,-1.50,-0.99,-10.19,0.43,-5.46,0.68,
2.942,-1.50,-0.99,-10.19,0.48,-4.95,0.45,
2.943,-1.50,-0.99,-10.19,0.48,-4.95,0.45,
2.944,-1.66,-1.42,-9.82,0.48,-4.95,0.45,
2.945,-1.66,-1.42,-9.82,0.48,-4.95,0.45,
2.95,-1.66,-1.42,-9.82,0.55,-4.40,0.35,
2.951,-1.66,-1.42,-9.82,0.55,-4.40,0.35,
2.951,-1.78,-1.85,-9.30,0.55,-4.40,0.35,
2.952,-1.78,-1.85,-9.30,0.55,-4.40,0.35,
2.96,-1.78,-1.85,-9.30,0.63,-3.86,0.36,
2.961,-1.78,-1.85,-9.30,0.63,-3.86,0.36,
2.962,-1.85,-2.23,-8.77,0.63,-3.86,0.36,
2.962,-1.85,-2.23,-8.77,0.63,-3.86,0.36,
2.971,-1.85,-2.23,-8.77,0.73,-3.34,0.48,
2.972,-1.85,-2.23,-8.77,0.73,-3.34,0.48,
2.972,-1.92,-2.57,-8.59,0.73,-3.34,0.48,
2.973,-1.92,-2.57,-8.59,0.73,-3.34,0.48,
2.979,-1.92,-2.57,-8.59,0.84,-2.86,0.64,
2.98,-1.92,-2.57,-8.59,0.84,-2.86,0.64,
2.981,-1.98,-2.83,-12.04,0.84,-2.86,0.64,
2.981,-1.98,-2.83,-12.04,0.84,-2.86,0.64,
2.99,-1.98,-2.83,-12.04,0.93,-2.51,0.85,
2.991,-1.98,-2.83,-12.04,0.93,-2.51,0.85,
2.992,-2.06,-3.04,-13.46,0.93,-2.51,0.85,
2.992,-2.06,-3.04,-13.46,0.93,-2.51,0.85,
2.998,-2.06,-3.04,-13.46,0.93,-2.51,0.85,
2.999,-2.06,-3.04,-13.46,0.93,-2.51,0.85,
2.999,-2.06,-3.04,-13.46,0.93,-2.51,0.85,
3.0,-2.06,-3.04,-13.46,0.93,-2.51,0.85,
3.007,-2.06,-3.04,-13.46,0.90,-2.47,1.14,
3.009,-2.06,-3.04,-13.46,0.90,-2.47,1.14,
3.009,-2.19,-3.20,-14.70,0.90,-2.47,1.14,
3.01,-2.19,-3.20,-14.70,0.90,-2.47,1.14,
3.017,-2.19,-3.20,-14.70,0.81,-2.76,1.35,
3.018,-2.19,-3.20,-14.70,0.81,-2.76,1.35,
3.018,-2.31,-3.11,-10.60,0.81,-2.76,1.35,
3.019,-2.31,-3.11,-10.60,0.81,-2.76,1.35,
3.026,-2.31,-3.11,-10.60,0.70,-3.12,1.53,
3.028,-2.31,-3.11,-10.60,0.70,-3.12,1.53,
3.028,-2.41,-2.91,-8.44,0.70,-3.12,1.53,
3.029,-2.41,-2.91,-8.44,0.70,-3.12,1.53,
3.037,-2.41,-2.91,-8.44,0.55,-3.24,1.64,
3.038,-2.41,-2.91,-8.44,0.55,-3.24,1.64,
3.039,-2.51,-2.58,-6.50,0.55,-3.24,1.64,
3.039,-2.51,-2.58,-6.50,0.55,-3.24,1.64,
3.045,-2.51,-2.58,-6.50,0.54,-3.00,1.50,
3.046,-2.51,-2.58,-6.50,0.54,-3.00,1.50,
3.046,-2.59,-2.30,-5.97,0.54,-3.00,1.50,
3.047,-2.59,-2.30,-5.97,0.54,-3.00,1.50,
3.055,-2.59,-2.30,-5.97,0.68,-2.50,1.16,
3.055,-2.59,-2.30,-5.97,0.68,-2.50,1.16,
3.056,-2.77,-2.04,-5.59,0.68,-2.50,1.16,
3.056,-2.77,-2.04,-5.59,0.68,-2.50,1.16,
3.065,-2.77,-2.04,-5.59,0.83,-1.92,0.72,
3.066,-2.77,-2.04,-5.59,0.83,-1.92,0.72,
3.066,-3.05,-1.84,-5.25,0.83,-1.92,0.72,
3.067,-3.05,-1.84,-5.25,0.83,-1.92,0.72,
3.075,-3.05,-1.84,-5.25,0.91,-1.42,0.29,
3.076,-3.05,-1.84,-5.25,0.91,-1.42,0.29,
3.077,-3.25,-1.73,-4.77,0.91,-1.42,0.29,
3.078,-3.25,-1.73,-4.77,0.91,-1.42,0.29,
3.085,-3.25,-1.73,-4.77,0.88,-1.06,-0.05,
3.086,-3.25,-1.73,-4.77,0.88,-1.06,-0.05,
3.086,-3.31,-1.68,-4.10,0.88,-1.06,-0.05,
3.087,-3.31,-1.68,-4.10,0.88,-1.06,-0.05,
3.096,-3.31,-1.68,-4.10,0.78,-0.83,-0.28,
3.097,-3.31,-1.68,-4.10,0.78,-0.83,-0.28,
3.098,-3.11,-1.67,-3.45,0.78,-0.83,-0.28,
3.098,-3.11,-1.67,-3.45,0.78,-0.83,-0.28,
3.103,-3.11,-1.67,-3.45,0.67,-0.65,-0.40,
3.104,-3.11,-1.67,-3.45,0.67,-0.65,-0.40,
3.104,-2.74,-1.61,-2.95,0.67,-0.65,-0.40,
3.104,-2.74,-1.61,-2.95,0.67,-0.65,-0.40,
3.112,-2.74,-1.61,-2.95,0.57,-0.46,-0.45,
3.113,-2.74,-1.61,-2.95,0.57,-0.46,-0.45,
3.114,-2.44,-1.49,-2.66,0.57,-0.46,-0.45,
3.114,-2.44,-1.49,-2.66,0.57,-0.46,-0.45,
3.121,-2.44,-1.49,-2.66,0.50,-0.22,-0.47,
3.122,-2.44,-1.49,-2.66,0.50,-0.22,-0.47,
3.122,-2.26,-1.33,-2.58,0.50,-0.22,-0.47,
3.122,-2.26,-1.33,-2.58,0.50,-0.22,-0.47,
3.131,-2.26,-1.33,-2.58,0.47,0.04,-0.50,
3.133,-2.26,-1.33,-2.58,0.47,0.04,-0.50,
3.133,-2.23,-1.25,-2.54,0.47,0.04,-0.50,
3.134,-2.23,-1.25,-2.54,0.47,0.04,-0.50,
3.143,-2.23,-1.25,-2.54,0.45,0.26,-0.53,
3.144,-2.23,-1.25,-2.54,0.45,0.26,-0.53,
3.144,-2.26,-1.26,-2.53,0.45,0.26,-0.53,
3.145,-2.26,-1.26,-2.53,0.45,0.26,-0.53,
3.151,-2.26,-1.26,-2.53,0.41,0.39,-0.54,
3.152,-2.26,-1.26,-2.53,0.41,0.39,-0.54,
3.152,-2.24,-1.33,-2.49,0.41,0.39,-0.54,
3.152,-2.24,-1.33,-2.49,0.41,0.39,-0.54,
3.161,-2.24,-1.33,-2.49,0.34,0.41,-0.49,
3.161,-2.24,-1.33,-2.49,0.34,0.41,-0.49,
3.162,-2.15,-1.38,-2.51,0.34,0.41,-0.49,
3.162,-2.15,-1.38,-2.51,0.34,0.41,-0.49,
3.171,-2.15,-1.38,-2.51,0.26,0.34,-0.39,
3.172,-2.15,-1.38,-2.51,0.26,0.34,-0.39,
3.172,-1.99,-1.42,-2.56,0.26,0.34,-0.39,
3.173,-1.99,-1.42,-2.56,0.26,0.34,-0.39,
3.179,-1.99,-1.42,-2.56,0.18,0.20,-0.24,
3.179,-1.99,-1.42,-2.56,0.18,0.20,-0.24,
3.18,-1.72,-1.46,-2.69,0.18,0.20,-0.24,
3.181,-1.72,-1.46,-2.69,0.18,0.20,-0.24,
3.189,-1.72,-1.46,-2.69,0.11,0.04,-0.05,
3.19,-1.72,-1.46,-2.69,0.11,0.04,-0.05,
3.191,-1.34,-1.60,-2.82,0.11,0.04,-0.05,
3.191,-1.34,-1.60,-2.82,0.11,0.04,-0.05,
3.199,-1.34,-1.60,-2.82,0.05,-0.12,0.14,
3.2,-1.34,-1.60,-2.82,0.05,-0.12,0.14,
3.201,-0.98,-1.78,-2.31,0.05,-0.12,0.14,
3.201,-0.98,-1.78,-2.31,0.05,-0.12,0.14,
3.207,-0.98,-1.78,-2.31,0.05,-0.12,0.14,
3.209,-0.98,-1.78,-2.31,0.05,-0.12,0.14,
3.209,-0.98,-1.78,-2.31,0.05,-0.12,0.14,
3.21,-0.98,-1.78,-2.31,0.05,-0.12,0.14,
3.217,-0.98,-1.78,-2.31,0.01,-0.23,0.32,
3.217,-0.98,-1.78,-2.31,0.01,-0.23,0.32,
3.218,-0.26,-1.46,1.80,0.01,-0.23,0.32,
3.218,-0.26,-1.46,1.80,0.01,-0.23,0.32,
3.226,-0.26,-1.46,1.80,0.04,-0.19,0.43,
3.227,-0.26,-1.46,1.80,0.04,-0.19,0.43,
3.228,-0.12,-1.07,2.38,0.04,-0.19,0.43,
3.228,-0.12,-1.07,2.38,0.04,-0.19,0.43,
3.237,-0.12,-1.07,2.38,0.17,0.16,0.41,
3.237,-0.12,-1.07,2.38,0.17,0.16,0.41,
3.238,0.04,-0.73,2.37,0.17,0.16,0.41,
3.238,0.04,-0.73,2.37,0.17,0.16,0.41,
3.245,0.04,-0.73,2.37,0.40,0.79,0.25,
3.246,0.04,-0.73,2.37,0.40,0.79,0.25,
3.246,0.12,-0.70,0.73,0.40,0.79,0.25,
3.247,0.12,-0.70,0.73,0.40,0.79,0.25,
3.255,0.12,-0.70,0.73,0.62,1.46,0.02,
3.256,0.12,-0.70,0.73,0.62,1.46,0.02,
3.256,0.03,-0.86,-0.79,0.62,1.46,0.02,
3.257,0.03,-0.86,-0.79,0.62,1.46,0.02,
3.265,0.03,-0.86,-0.79,0.71,1.83,-0.17,
3.266,0.03,-0.86,-0.79,0.71,1.83,-0.17,
3.267,0.11,-1.01,-0.66,0.71,1.83,-0.17,
3.267,0.11,-1.01,-0.66,0.71,1.83,-0.17,
3.274,0.11,-1.01,-0.66,0.64,1.71,-0.23,
3.276,0.11,-1.01,-0.66,0.64,1.71,-0.23,
3.277,0.37,-1.14,-0.47,0.64,1.71,-0.23,
3.277,0.37,-1.14,-0.47,0.64,1.71,-0.23,
3.283,0.37,-1.14,-0.47,0.49,1.27,-0.17,
3.284,0.37,-1.14,-0.47,0.49,1.27,-0.17,
3.285,0.60,-1.20,-0.31,0.49,1.27,-0.17,
3.286,0.60,-1.20,-0.31,0.49,1.27,-0.17,
3.294,0.60,-1.20,-0.31,0.34,0.79,-0.04,
3.295,0.60,-1.20,-0.31,0.34,0.79,-0.04,
3.295,0.86,-1.43,-0.14,0.34,0.79,-0.04,
3.296,0.86,-1.43,-0.14,0.34,0.79,-0.04,
3.305,0.86,-1.43,-0.14,0.26,0.45,0.12,
3.306,0.86,-1.43,-0.14,0.26,0.45,0.12,
3.307,0.77,-3.44,0.06,0.26,0.45,0.12,
3.308,0.77,-3.44,0.06,0.26,0.45,0.12,
3.312,0.77,-3.44,0.06,0.25,0.28,0.33,
3.313,0.77,-3.44,0.06,0.25,0.28,0.33,
3.313,-1.44,-5.45,0.20,0.25,0.28,0.33,
3.314,-1.44,-5.45,0.20,0.25,0.28,0.33,
3.322,-1.44,-5.45,0.20,0.34,0.18,0.75,
3.323,-1.44,-5.45,0.20,0.34,0.18,0.75,
3.323,-7.06,-7.13,2.05,0.34,0.18,0.75,
3.324,-7.06,-7.13,2.05,0.34,0.18,0.75,
3.331,-7.06,-7.13,2.05,0.54,0.02,1.62,
3.332,-7.06,-7.13,2.05,0.54,0.02,1.62,
3.333,-7.36,-8.52,2.51,0.54,0.02,1.62,
3.333,-7.36,-8.52,2.51,0.54,0.02,1.62,
3.341,-7.36,-8.52,2.51,0.86,-0.35,3.03,
3.343,-7.36,-8.52,2.51,0.86,-0.35,3.03,
3.344,-1.33,-5.87,2.43,0.86,-0.35,3.03,
3.345,-1.33,-5.87,2.43,0.86,-0.35,3.03,
3.35,-1.33,-5.87,2.43,1.31,-0.76,4.66,
3.351,-1.33,-5.87,2.43,1.31,-0.76,4.66,
3.351,4.01,-2.72,1.95,1.31,-0.76,4.66,
3.351,4.01,-2.72,1.95,1.31,-0.76,4.66,
3.359,4.01,-2.72,1.95,1.36,-0.89,5.58,
3.36,4.01,-2.72,1.95,1.36,-0.89,5.58,
3.361,9.70,0.38,-0.36,1.36,-0.89,5.58,
3.361,9.70,0.38,-0.36,1.36,-0.89,5.58,
3.37,9.70,0.38,-0.36,0.98,-0.31,5.42,
3.371,9.70,0.38,-0.36,0.98,-0.31,5.42,
3.371,10.04,2.00,-2.40,0.98,-0.31,5.42,
3.371,10.04,2.00,-2.40,0.98,-0.31,5.42,
3.378,10.04,2.00,-2.40,0.53,0.82,3.63,
3.379,10.04,2.00,-2.40,0.53,0.82,3.63,
3.38,4.87,2.07,-2.29,0.53,0.82,3.63,
3.38,4.87,2.07,-2.29,0.53,0.82,3.63,
3.389,4.87,2.07,-2.29,0.34,1.07,0.87,
3.389,4.87,2.07,-2.29,0.34,1.07,0.87,
3.389,1.97,2.18,-1.84,0.34,1.07,0.87,
3.39,1.97,2.18,-1.84,0.34,1.07,0.87,
3.398,1.97,2.18,-1.84,0.34,1.07,0.87,
3.399,1.97,2.18,-1.84,0.34,1.07,0.87,
3.399,1.97,2.18,-1.84,0.34,1.07,0.87,
3.4,1.97,2.18,-1.84,0.34,1.07,0.87,
3.407,1.97,2.18,-1.84,0.48,0.74,-1.17,
3.408,1.97,2.18,-1.84,0.48,0.74,-1.17,
3.409,1.09,4.37,-0.73,0.48,0.74,-1.17,
3.409,1.09,4.37,-0.73,0.48,0.74,-1.17,
3.417,1.09,4.37,-0.73,0.56,0.57,-2.32,
3.418,1.09,4.37,-0.73,0.56,0.57,-2.32,
3.419,0.50,4.63,-0.29,0.56,0.57,-2.32,
3.419,0.50,4.63,-0.29,0.56,0.57,-2.32,
3.426,0.50,4.63,-0.29,0.59,0.26,-2.96,
3.427,0.50,4.63,-0.29,0.59,0.26,-2.96,
3.428,-0.05,4.35,-0.01,0.59,0.26,-2.96,
3.428,-0.05,4.35,-0.01,0.59,0.26,-2.96,
3.449,-0.05,4.35,-0.01,0.57,0.09,-3.47,
3.449,-0.05,4.35,-0.01,0.57,0.09,-3.47,
3.45,-0.64,2.69,0.17,0.57,0.09,-3.47,
3.45,-0.64,2.69,0.17,0.57,0.09,-3.47,
3.45,-0.64,2.69,0.17,0.10,-0.41,-4.00,
3.451,-0.64,2.69,0.17,0.10,-0.41,-4.00,
3.451,-1.01,2.62,0.24,0.10,-0.41,-4.00,
3.452,-1.01,2.62,0.24,0.10,-0.41,-4.00,
3.455,-1.01,2.62,0.24,0.10,-0.41,-4.00,
3.456,-1.01,2.62,0.24,0.10,-0.41,-4.00,
3.456,-1.01,2.62,0.24,0.10,-0.41,-4.00,
3.456,-1.01,2.62,0.24,0.10,-0.41,-4.00,
3.465,-1.01,2.62,0.24,0.04,-0.88,-3.67,
3.466,-1.01,2.62,0.24,0.04,-0.88,-3.67,
3.466,-0.91,5.01,-0.09,0.04,-0.88,-3.67,
3.467,-0.91,5.01,-0.09,0.04,-0.88,-3.67,
3.474,-0.91,5.01,-0.09,0.04,-0.88,-3.67,
3.475,-0.91,5.01,-0.09,0.04,-0.88,-3.67,
3.476,-0.91,5.01,-0.09,0.04,-0.88,-3.67,
3.476,-0.91,5.01,-0.09,0.04,-0.88,-3.67,
3.485,-0.91,5.01,-0.09,-0.30,-1.24,-4.14,
3.485,-0.91,5.01,-0.09,-0.30,-1.24,-4.14,
3.486,-0.47,5.99,-0.55,-0.30,-1.24,-4.14,
3.487,-0.47,5.99,-0.55,-0.30,-1.24,-4.14,
3.493,-0.47,5.99,-0.55,-0.37,-1.17,-4.64,
3.494,-0.47,5.99,-0.55,-0.37,-1.17,-4.64,
3.495,-0.31,5.82,-0.75,-0.37,-1.17,-4.64,
3.495,-0.31,5.82,-0.75,-0.37,-1.17,-4.64,
3.503,-0.31,5.82,-0.75,-0.35,-0.99,-4.93,
3.504,-0.31,5.82,-0.75,-0.35,-0.99,-4.93,
3.505,-0.34,4.09,-0.91,-0.35,-0.99,-4.93,
3.505,-0.34,4.09,-0.91,-0.35,-0.99,-4.93,
3.512,-0.34,4.09,-0.91,-0.29,-0.80,-4.98,
3.513,-0.34,4.09,-0.91,-0.29,-0.80,-4.98,
3.514,-0.41,3.62,-1.06,-0.29,-0.80,-4.98,
3.514,-0.41,3.62,-1.06,-0.29,-0.80,-4.98,
3.521,-0.41,3.62,-1.06,-0.22,-0.69,-4.60,
3.522,-0.41,3.62,-1.06,-0.22,-0.69,-4.60,
3.523,-0.37,2.91,-1.12,-0.22,-0.69,-4.60,
3.523,-0.37,2.91,-1.12,-0.22,-0.69,-4.60,
3.531,-0.37,2.91,-1.12,-0.18,-0.65,-3.78,
3.532,-0.37,2.91,-1.12,-0.18,-0.65,-3.78,
3.533,-0.32,2.29,-1.28,-0.18,-0.65,-3.78,
3.533,-0.32,2.29,-1.28,-0.18,-0.65,-3.78,
3.542,-0.32,2.29,-1.28,-0.15,-0.68,-2.71,
3.543,-0.32,2.29,-1.28,-0.15,-0.68,-2.71,
3.544,-0.13,1.90,-1.47,-0.15,-0.68,-2.71,
3.544,-0.13,1.90,-1.47,-0.15,-0.68,-2.71,
3.55,-0.13,1.90,-1.47,-0.14,-0.75,-1.57,
3.551,-0.13,1.90,-1.47,-0.14,-0.75,-1.57,
3.552,0.12,1.59,-1.23,-0.14,-0.75,-1.57,
3.552,0.12,1.59,-1.23,-0.14,-0.75,-1.57,
3.561,0.12,1.59,-1.23,-0.12,-0.84,-0.52,
3.562,0.12,1.59,-1.23,-0.12,-0.84,-0.52,
3.562,0.18,1.06,0.41,-0.12,-0.84,-0.52,
3.563,0.18,1.06,0.41,-0.12,-0.84,-0.52,
3.569,0.18,1.06,0.41,-0.09,-0.86,0.36,
3.57,0.18,1.06,0.41,-0.09,-0.86,0.36,
3.57,0.11,-0.75,0.86,-0.09,-0.86,0.36,
3.571,0.11,-0.75,0.86,-0.09,-0.86,0.36,
3.579,0.11,-0.75,0.86,0.00,-0.70,1.06,
3.58,0.11,-0.75,0.86,0.00,-0.70,1.06,
3.581,0.01,-2.44,2.59,0.00,-0.70,1.06,
3.581,0.01,-2.44,2.59,0.00,-0.70,1.06,
3.589,0.01,-2.44,2.59,-0.04,-0.43,1.70,
3.59,0.01,-2.44,2.59,-0.04,-0.43,1.70,
3.59,-0.23,-4.17,2.48,-0.04,-0.43,1.70,
3.591,-0.23,-4.17,2.48,-0.04,-0.43,1.70,
3.599,-0.23,-4.17,2.48,-0.04,-0.43,1.70,
3.599,-0.23,-4.17,2.48,-0.04,-0.43,1.70,
3.6,-0.23,-4.17,2.48,-0.04,-0.43,1.70,
3.6,-0.23,-4.17,2.48,-0.04,-0.43,1.70,
3.607,-0.23,-4.17,2.48,-0.24,-0.19,2.44,
3.607,-0.23,-4.17,2.48,-0.24,-0.19,2.44,
3.608,-0.01,-5.31,2.07,-0.24,-0.19,2.44,
3.608,-0.01,-5.31,2.07,-0.24,-0.19,2.44,
3.619,-0.01,-5.31,2.07,-0.37,-0.08,3.34,
3.62,-0.01,-5.31,2.07,-0.37,-0.08,3.34,
3.62,0.30,-7.20,1.68,-0.37,-0.08,3.34,
3.621,0.30,-7.20,1.68,-0.37,-0.08,3.34,
3.629,0.30,-7.20,1.68,-0.47,0.05,4.34,
3.63,0.30,-7.20,1.68,-0.47,0.05,4.34,
3.63,0.55,-7.58,1.42,-0.47,0.05,4.34,
3.631,0.55,-7.58,1.42,-0.47,0.05,4.34,
3.645,0.55,-7.58,1.42,-0.58,0.33,5.27,
3.646,0.55,-7.58,1.42,-0.58,0.33,5.27,
3.646,0.59,-8.03,0.93,-0.58,0.33,5.27,
3.646,0.59,-8.03,0.93,-0.58,0.33,5.27,
3.646,0.59,-8.03,0.93,-0.68,0.61,5.92,
3.647,0.59,-8.03,0.93,-0.68,0.61,5.92,
3.647,0.53,-6.55,0.31,-0.68,0.61,5.92,
3.647,0.53,-6.55,0.31,-0.68,0.61,5.92,
3.655,0.53,-6.55,0.31,-0.78,0.69,6.13,
3.656,0.53,-6.55,0.31,-0.78,0.69,6.13,
3.656,0.29,-4.44,-0.22,-0.78,0.69,6.13,
3.657,0.29,-4.44,-0.22,-0.78,0.69,6.13,
3.665,0.29,-4.44,-0.22,-0.83,0.57,5.85,
3.666,0.29,-4.44,-0.22,-0.83,0.57,5.85,
3.666,0.06,-2.42,-0.63,-0.83,0.57,5.85,
3.667,0.06,-2.42,-0.63,-0.83,0.57,5.85,
3.674,0.06,-2.42,-0.63,-0.70,0.29,5.11,
3.675,0.06,-2.42,-0.63,-0.70,0.29,5.11,
3.676,-0.08,-1.95,-0.73,-0.70,0.29,5.11,
3.676,-0.08,-1.95,-0.73,-0.70,0.29,5.11,
3.683,-0.08,-1.95,-0.73,-0.68,-0.07,4.03,
3.684,-0.08,-1.95,-0.73,-0.68,-0.07,4.03,
3.685,-0.27,-1.75,-0.57,-0.68,-0.07,4.03,
3.685,-0.27,-1.75,-0.57,-0.68,-0.07,4.03,
3.694,-0.27,-1.75,-0.57,-0.95,-0.44,2.81,
3.696,-0.27,-1.75,-0.57,-0.95,-0.44,2.81,
3.697,-0.34,-1.79,-0.35,-0.95,-0.44,2.81,
3.698,-0.34,-1.79,-0.35,-0.95,-0.44,2.81,
3.703,-0.34,-1.79,-0.35,-1.29,-0.75,1.67,
3.704,-0.34,-1.79,-0.35,-1.29,-0.75,1.67,
3.705,-0.42,-1.79,-0.09,-1.29,-0.75,1.67,
3.706,-0.42,-1.79,-0.09,-1.29,-0.75,1.67,
3.712,-0.42,-1.79,-0.09,-1.53,-0.96,0.75,
3.713,-0.42,-1.79,-0.09,-1.53,-0.96,0.75,
3.713,-0.65,-1.80,0.01,-1.53,-0.96,0.75,
3.714,-0.65,-1.80,0.01,-1.53,-0.96,0.75,
3.721,-0.65,-1.80,0.01,-1.64,-1.06,0.07,
3.722,-0.65,-1.80,0.01,-1.64,-1.06,0.07,
3.723,-0.91,-1.91,-0.02,-1.64,-1.06,0.07,
3.723,-0.91,-1.91,-0.02,-1.64,-1.06,0.07,
3.732,-0.91,-1.91,-0.02,-1.66,-1.10,-0.39,
3.733,-0.91,-1.91,-0.02,-1.66,-1.10,-0.39,
3.734,-1.11,-2.09,-0.02,-1.66,-1.10,-0.39,
3.734,-1.11,-2.09,-0.02,-1.66,-1.10,-0.39,
3.744,-1.11,-2.09,-0.02,-1.61,-1.11,-0.66,
3.745,-1.11,-2.09,-0.02,-1.61,-1.11,-0.66,
3.746,-1.23,-2.25,-0.07,-1.61,-1.11,-0.66,
3.746,-1.23,-2.25,-0.07,-1.61,-1.11,-0.66,
3.75,-1.23,-2.25,-0.07,-1.52,-1.12,-0.77,
3.751,-1.23,-2.25,-0.07,-1.52,-1.12,-0.77,
3.751,-1.16,-2.15,-0.12,-1.52,-1.12,-0.77,
3.751,-1.16,-2.15,-0.12,-1.52,-1.12,-0.77,
3.759,-1.16,-2.15,-0.12,-1.40,-1.14,-0.75,
3.76,-1.16,-2.15,-0.12,-1.40,-1.14,-0.75,
3.76,-0.77,-0.16,-0.18,-1.40,-1.14,-0.75,
3.761,-0.77,-0.16,-0.18,-1.40,-1.14,-0.75,
3.771,-0.77,-0.16,-0.18,-1.32,-1.14,-0.72,
3.772,-0.77,-0.16,-0.18,-1.32,-1.14,-0.72,
3.773,-0.57,0.01,-0.46,-1.32,-1.14,-0.72,
3.774,-0.57,0.01,-0.46,-1.32,-1.14,-0.72,
3.779,-0.57,0.01,-0.46,-1.32,-1.11,-0.84,
3.78,-0.57,0.01,-0.46,-1.32,-1.11,-0.84,
3.78,-0.54,0.08,-0.64,-1.32,-1.11,-0.84,
3.781,-0.54,0.08,-0.64,-1.32,-1.11,-0.84,
3.789,-0.54,0.08,-0.64,-1.41,-1.06,-1.16,
3.79,-0.54,0.08,-0.64,-1.41,-1.06,-1.16,
3.79,-0.55,-0.02,-0.69,-1.41,-1.06,-1.16,
3.791,-0.55,-0.02,-0.69,-1.41,-1.06,-1.16,
3.798,-0.55,-0.02,-0.69,-1.41,-1.06,-1.16,
3.799,-0.55,-0.02,-0.69,-1.41,-1.06,-1.16,
3.8,-0.55,-0.02,-0.69,-1.41,-1.06,-1.16,
3.801,-0.55,-0.02,-0.69,-1.41,-1.06,-1.16,
3.808,-0.55,-0.02,-0.69,-1.52,-1.00,-1.53,
3.81,-0.55,-0.02,-0.69,-1.52,-1.00,-1.53,
3.811,-0.84,-0.93,-0.04,-1.52,-1.00,-1.53,
3.812,-0.84,-0.93,-0.04,-1.52,-1.00,-1.53,
3.817,-0.84,-0.93,-0.04,-1.58,-0.92,-1.76,
3.817,-0.84,-0.93,-0.04,-1.58,-0.92,-1.76,
3.818,-0.70,-0.95,0.36,-1.58,-0.92,-1.76,
3.818,-0.70,-0.95,0.36,-1.58,-0.92,-1.76,
3.826,-0.70,-0.95,0.36,-1.52,-0.81,-1.73,
3.827,-0.70,-0.95,0.36,-1.52,-0.81,-1.73,
3.827,-0.60,-0.78,0.48,-1.52,-0.81,-1.73,
3.829,-0.60,-0.78,0.48,-1.52,-0.81,-1.73,
3.839,-0.60,-0.78,0.48,-1.38,-0.66,-1.50,
3.84,-0.60,-0.78,0.48,-1.38,-0.66,-1.50,
3.84,-0.58,-0.63,0.36,-1.38,-0.66,-1.50,
3.84,-0.58,-0.63,0.36,-1.38,-0.66,-1.50,
3.845,-0.58,-0.63,0.36,-1.19,-0.47,-1.21,
3.846,-0.58,-0.63,0.36,-1.19,-0.47,-1.21,
3.846,-0.52,-0.51,0.06,-1.19,-0.47,-1.21,
3.846,-0.52,-0.51,0.06,-1.19,-0.47,-1.21,
3.855,-0.52,-0.51,0.06,-0.99,-0.29,-0.96,
3.856,-0.52,-0.51,0.06,-0.99,-0.29,-0.96,
3.856,-0.52,-0.18,-0.09,-0.99,-0.29,-0.96,
3.857,-0.52,-0.18,-0.09,-0.99,-0.29,-0.96,
3.865,-0.52,-0.18,-0.09,-0.83,-0.16,-0.79,
3.866,-0.52,-0.18,-0.09,-0.83,-0.16,-0.79,
3.866,-0.50,0.22,-0.23,-0.83,-0.16,-0.79,
3.867,-0.50,0.22,-0.23,-0.83,-0.16,-0.79,
3.874,-0.50,0.22,-0.23,-0.72,-0.10,-0.69,
3.875,-0.50,0.22,-0.23,-0.72,-0.10,-0.69,
3.876,-0.43,2.75,-0.48,-0.72,-0.10,-0.69,
3.876,-0.43,2.75,-0.48,-0.72,-0.10,-0.69,
3.885,-0.43,2.75,-0.48,-0.70,-0.09,-0.73,
3.886,-0.43,2.75,-0.48,-0.70,-0.09,-0.73,
3.886,-0.42,5.19,-0.58,-0.70,-0.09,-0.73,
3.887,-0.42,5.19,-0.58,-0.70,-0.09,-0.73,
3.893,-0.42,5.19,-0.58,-0.83,-0.13,-1.10,
3.895,-0.42,5.19,-0.58,-0.83,-0.13,-1.10,
3.895,-0.37,5.71,-0.48,-0.83,-0.13,-1.10,
3.896,-0.37,5.71,-0.48,-0.83,-0.13,-1.10,
3.903,-0.37,5.71,-0.48,-1.12,-0.15,-1.91,
3.905,-0.37,5.71,-0.48,-1.12,-0.15,-1.91,
3.905,-0.31,7.49,-0.40,-1.12,-0.15,-1.91,
3.906,-0.31,7.49,-0.40,-1.12,-0.15,-1.91,
3.912,-0.31,7.49,-0.40,-1.49,-0.12,-3.05,
3.913,-0.31,7.49,-0.40,-1.49,-0.12,-3.05,
3.913,-0.39,7.75,-0.01,-1.49,-0.12,-3.05,
3.914,-0.39,7.75,-0.01,-1.49,-0.12,-3.05,
3.921,-0.39,7.75,-0.01,-1.80,0.03,-4.25,
3.922,-0.39,7.75,-0.01,-1.80,0.03,-4.25,
3.923,-0.64,7.79,0.48,-1.80,0.03,-4.25,
3.923,-0.64,7.79,0.48,-1.80,0.03,-4.25,
3.932,-0.64,7.79,0.48,-1.99,0.30,-5.26,
3.933,-0.64,7.79,0.48,-1.99,0.30,-5.26,
3.934,-1.16,8.11,1.00,-1.99,0.30,-5.26,
3.935,-1.16,8.11,1.00,-1.99,0.30,-5.26,
3.946,-1.16,8.11,1.00,-2.05,0.63,-5.98,
3.947,-1.16,8.11,1.00,-2.05,0.63,-5.98,
3.947,-2.70,8.57,4.67,-2.05,0.63,-5.98,
3.948,-2.70,8.57,4.67,-2.05,0.63,-5.98,
3.951,-2.70,8.57,4.67,-2.02,1.03,-6.45,
3.951,-2.70,8.57,4.67,-2.02,1.03,-6.45,
3.952,-2.98,8.68,6.48,-2.02,1.03,-6.45,
3.952,-2.98,8.68,6.48,-2.02,1.03,-6.45,
3.96,-2.98,8.68,6.48,-1.98,1.63,-6.92,
3.961,-2.98,8.68,6.48,-1.98,1.63,-6.92,
3.961,-2.99,5.71,6.51,-1.98,1.63,-6.92,
3.962,-2.99,5.71,6.51,-1.98,1.63,-6.92,
3.969,-2.99,5.71,6.51,-1.98,2.50,-7.39,
3.97,-2.99,5.71,6.51,-1.98,2.50,-7.39,
3.97,-2.98,0.81,3.18,-1.98,2.50,-7.39,
3.971,-2.98,0.81,3.18,-1.98,2.50,-7.39,
3.979,-2.98,0.81,3.18,-1.97,3.31,-7.40,
3.98,-2.98,0.81,3.18,-1.97,3.31,-7.40,
3.981,-3.00,-4.38,-1.50,-1.97,3.31,-7.40,
3.982,-3.00,-4.38,-1.50,-1.97,3.31,-7.40,
3.988,-3.00,-4.38,-1.50,-1.67,3.21,-6.20,
3.989,-3.00,-4.38,-1.50,-1.67,3.21,-6.20,
3.99,-3.03,-8.26,-5.44,-1.67,3.21,-6.20,
3.99,-3.03,-8.26,-5.44,-1.67,3.21,-6.20,
3.997,-3.03,-8.26,-5.44,-1.67,3.21,-6.20,
3.998,-3.03,-8.26,-5.44,-1.67,3.21,-6.20,
3.999,-3.03,-8.26,-5.44,-1.67,3.21,-6.20,
3.999,-3.03,-8.26,-5.44,-1.67,3.21,-6.20,
4.007,-3.03,-8.26,-5.44,-1.23,2.57,-3.12,
4.008,-3.03,-8.26,-5.44,-1.23,2.57,-3.12,
4.009,-2.73,-9.25,-3.19,-1.23,2.57,-3.12,
4.009,-2.73,-9.25,-3.19,-1.23,2.57,-3.12,
4.017,-2.73,-9.25,-3.19,-0.91,2.16,2.09,
4.018,-2.73,-9.25,-3.19,-0.91,2.16,2.09,
4.018,-0.30,-9.18,0.68,-0.91,2.16,2.09,
4.019,-0.30,-9.18,0.68,-0.91,2.16,2.09,
4.027,-0.30,-9.18,0.68,-0.64,1.81,7.82,
4.028,-0.30,-9.18,0.68,-0.64,1.81,7.82,
4.029,1.59,-9.02,2.57,-0.64,1.81,7.82,
4.029,1.59,-9.02,2.57,-0.64,1.81,7.82,
4.042,1.59,-9.02,2.57,-0.44,1.53,11.39,
4.043,1.59,-9.02,2.57,-0.44,1.53,11.39,
4.044,1.75,-9.17,2.45,-0.44,1.53,11.39,
4.044,1.75,-9.17,2.45,-0.44,1.53,11.39,
4.048,1.75,-9.17,2.45,0.74,1.77,12.10,
4.048,1.75,-9.17,2.45,0.74,1.77,12.10,
4.048,1.78,-9.56,2.30,0.74,1.77,12.10,
4.049,1.78,-9.56,2.30,0.74,1.77,12.10,
4.055,1.78,-9.56,2.30,2.55,2.51,11.22,
4.056,1.78,-9.56,2.30,2.55,2.51,11.22,
4.056,1.83,-9.72,0.31,2.55,2.51,11.22,
4.057,1.83,-9.72,0.31,2.55,2.51,11.22,
4.065,1.83,-9.72,0.31,3.61,3.03,9.85,
4.066,1.83,-9.72,0.31,3.61,3.03,9.85,
4.067,2.05,-7.46,-0.01,3.61,3.03,9.85,
4.067,2.05,-7.46,-0.01,3.61,3.03,9.85,
4.074,2.05,-7.46,-0.01,3.95,3.11,8.44,
4.075,2.05,-7.46,-0.01,3.95,3.11,8.44,
4.076,2.18,-4.59,-0.06,3.95,3.11,8.44,
4.077,2.18,-4.59,-0.06,3.95,3.11,8.44,
4.084,2.18,-4.59,-0.06,3.69,2.84,7.00,
4.085,2.18,-4.59,-0.06,3.69,2.84,7.00,
4.086,2.01,-2.89,0.04,3.69,2.84,7.00,
4.086,2.01,-2.89,0.04,3.69,2.84,7.00,
4.093,2.01,-2.89,0.04,3.02,2.41,5.49,
4.094,2.01,-2.89,0.04,3.02,2.41,5.49,
4.095,-0.71,-0.96,0.09,3.02,2.41,5.49,
4.096,-0.71,-0.96,0.09,3.02,2.41,5.49,
4.103,-0.71,-0.96,0.09,2.11,1.94,3.93,
4.104,-0.71,-0.96,0.09,2.11,1.94,3.93,
4.105,-1.10,-0.93,0.19,2.11,1.94,3.93,
4.105,-1.10,-0.93,0.19,2.11,1.94,3.93,
4.112,-1.10,-0.93,0.19,1.13,1.43,2.49,
4.113,-1.10,-0.93,0.19,1.13,1.43,2.49,
4.113,-1.36,-1.02,0.44,1.13,1.43,2.49,
4.114,-1.36,-1.02,0.44,1.13,1.43,2.49,
4.121,-1.36,-1.02,0.44,0.21,0.84,1.32,
4.122,-1.36,-1.02,0.44,0.21,0.84,1.32,
4.123,-1.44,-1.17,0.65,0.21,0.84,1.32,
4.123,-1.44,-1.17,0.65,0.21,0.84,1.32,
4.131,-1.44,-1.17,0.65,-0.55,0.25,0.46,
4.132,-1.44,-1.17,0.65,-0.55,0.25,0.46,
4.133,-1.34,-1.19,0.70,-0.55,0.25,0.46,
4.134,-1.34,-1.19,0.70,-0.55,0.25,0.46,
4.146,-1.34,-1.19,0.70,-1.07,-0.23,-0.14,
4.147,-1.34,-1.19,0.70,-1.07,-0.23,-0.14,
4.148,-1.17,-1.11,0.65,-1.07,-0.23,-0.14,
4.148,-1.17,-1.11,0.65,-1.07,-0.23,-0.14,
4.15,-1.17,-1.11,0.65,-1.39,-0.55,-0.56,
4.15,-1.17,-1.11,0.65,-1.39,-0.55,-0.56,
4.15,-0.96,-1.08,0.38,-1.39,-0.55,-0.56,
4.151,-0.96,-1.08,0.38,-1.39,-0.55,-0.56,
4.159,-0.96,-1.08,0.38,-1.56,-0.75,-0.84,
4.159,-0.96,-1.08,0.38,-1.56,-0.75,-0.84,
4.16,-0.67,-1.07,0.25,-1.56,-0.75,-0.84,
4.16,-0.67,-1.07,0.25,-1.56,-0.75,-0.84,
4.169,-0.67,-1.07,0.25,-1.63,-0.84,-1.04,
4.17,-0.67,-1.07,0.25,-1.63,-0.84,-1.04,
4.17,-0.46,-1.18,0.21,-1.63,-0.84,-1.04,
4.171,-0.46,-1.18,0.21,-1.63,-0.84,-1.04,
4.179,-0.46,-1.18,0.21,-1.64,-0.86,-1.18,
4.18,-0.46,-1.18,0.21,-1.64,-0.86,-1.18,
4.181,-0.31,-1.30,0.63,-1.64,-0.86,-1.18,
4.181,-0.31,-1.30,0.63,-1.64,-0.86,-1.18,
4.188,-0.31,-1.30,0.63,-1.58,-0.81,-1.26,
4.19,-0.31,-1.30,0.63,-1.58,-0.81,-1.26,
4.191,-0.34,-1.39,0.69,-1.58,-0.81,-1.26,
4.192,-0.34,-1.39,0.69,-1.58,-0.81,-1.26,
4.198,-0.34,-1.39,0.69,-1.58,-0.81,-1.26,
4.198,-0.34,-1.39,0.69,-1.58,-0.81,-1.26,
4.199,-0.34,-1.39,0.69,-1.58,-0.81,-1.26,
4.199,-0.34,-1.39,0.69,-1.58,-0.81,-1.26,
4.207,-0.34,-1.39,0.69,-1.45,-0.68,-1.28,
4.207,-0.34,-1.39,0.69,-1.45,-0.68,-1.28,
4.208,-0.64,-1.48,0.27,-1.45,-0.68,-1.28,
4.208,-0.64,-1.48,0.27,-1.45,-0.68,-1.28,
4.216,-0.64,-1.48,0.27,-1.28,-0.53,-1.22,
4.217,-0.64,-1.48,0.27,-1.28,-0.53,-1.22,
4.218,-0.68,-1.45,-1.00,-1.28,-0.53,-1.22,
4.218,-0.68,-1.45,-1.00,-1.28,-0.53,-1.22,
4.226,-0.68,-1.45,-1.00,-1.11,-0.44,-1.10,
4.227,-0.68,-1.45,-1.00,-1.11,-0.44,-1.10,
4.228,-0.61,-1.40,-0.70,-1.11,-0.44,-1.10,
4.229,-0.61,-1.40,-0.70,-1.11,-0.44,-1.10,
4.238,-0.61,-1.40,-0.70,-0.98,-0.46,-0.92,
4.239,-0.61,-1.40,-0.70,-0.98,-0.46,-0.92,
4.239,-0.48,-1.36,-0.30,-0.98,-0.46,-0.92,
4.239,-0.48,-1.36,-0.30,-0.98,-0.46,-0.92,
4.245,-0.48,-1.36,-0.30,-0.90,-0.56,-0.74,
4.245,-0.48,-1.36,-0.30,-0.90,-0.56,-0.74,
4.246,-0.40,-1.34,0.11,-0.90,-0.56,-0.74,
4.246,-0.40,-1.34,0.11,-0.90,-0.56,-0.74,
4.254,-0.40,-1.34,0.11,-0.82,-0.63,-0.58,
4.255,-0.40,-1.34,0.11,-0.82,-0.63,-0.58,
4.256,-0.52,-1.27,0.44,-0.82,-0.63,-0.58,
4.256,-0.52,-1.27,0.44,-0.82,-0.63,-0.58,
4.265,-0.52,-1.27,0.44,-0.73,-0.60,-0.45,
4.266,-0.52,-1.27,0.44,-0.73,-0.60,-0.45,
4.266,-0.64,-1.19,0.57,-0.73,-0.60,-0.45,
4.267,-0.64,-1.19,0.57,-0.73,-0.60,-0.45,
4.274,-0.64,-1.19,0.57,-0.60,-0.48,-0.35,
4.275,-0.64,-1.19,0.57,-0.60,-0.48,-0.35,
4.276,-0.72,-1.12,0.59,-0.60,-0.48,-0.35,
4.276,-0.72,-1.12,0.59,-0.60,-0.48,-0.35,
4.283,-0.72,-1.12,0.59,-0.47,-0.34,-0.27,
4.284,-0.72,-1.12,0.59,-0.47,-0.34,-0.27,
4.284,-0.79,-1.02,0.32,-0.47,-0.34,-0.27,
4.285,-0.79,-1.02,0.32,-0.47,-0.34,-0.27,
4.293,-0.79,-1.02,0.32,-0.36,-0.23,-0.19,
4.294,-0.79,-1.02,0.32,-0.36,-0.23,-0.19,
4.295,-0.78,-0.96,-0.02,-0.36,-0.23,-0.19,
4.295,-0.78,-0.96,-0.02,-0.36,-0.23,-0.19,
4.303,-0.78,-0.96,-0.02,-0.28,-0.18,-0.12,
4.304,-0.78,-0.96,-0.02,-0.28,-0.18,-0.12,
4.304,-0.76,-0.86,-0.19,-0.28,-0.18,-0.12,
4.305,-0.76,-0.86,-0.19,-0.28,-0.18,-0.12,
4.311,-0.76,-0.86,-0.19,-0.25,-0.19,-0.05,
4.312,-0.76,-0.86,-0.19,-0.25,-0.19,-0.05,
4.312,-0.74,-0.78,-0.27,-0.25,-0.19,-0.05,
4.313,-0.74,-0.78,-0.27,-0.25,-0.19,-0.05,
4.321,-0.74,-0.78,-0.27,-0.24,-0.25,0.00,
4.322,-0.74,-0.78,-0.27,-0.24,-0.25,0.00,
4.322,-0.68,-0.68,-0.24,-0.24,-0.25,0.00,
4.322,-0.68,-0.68,-0.24,-0.24,-0.25,0.00,
4.33,-0.68,-0.68,-0.24,-0.25,-0.32,0.03,
4.331,-0.68,-0.68,-0.24,-0.25,-0.32,0.03,
4.332,-0.60,-0.60,-0.22,-0.25,-0.32,0.03,
4.332,-0.60,-0.60,-0.22,-0.25,-0.32,0.03,
4.34,-0.60,-0.60,-0.22,-0.24,-0.37,0.04,
4.341,-0.60,-0.60,-0.22,-0.24,-0.37,0.04,
4.342,-0.56,-0.56,-0.24,-0.24,-0.37,0.04,
4.342,-0.56,-0.56,-0.24,-0.24,-0.37,0.04,
4.349,-0.56,-0.56,-0.24,-0.23,-0.38,0.03,
4.35,-0.56,-0.56,-0.24,-0.23,-0.38,0.03,
4.35,-0.59,-0.48,-0.23,-0.23,-0.38,0.03,
4.351,-0.59,-0.48,-0.23,-0.23,-0.38,0.03,
4.359,-0.59,-0.48,-0.23,-0.22,-0.37,0.03,
4.36,-0.59,-0.48,-0.23,-0.22,-0.37,0.03,
4.361,-0.62,-0.35,-0.11,-0.22,-0.37,0.03,
4.361,-0.62,-0.35,-0.11,-0.22,-0.37,0.03,
4.369,-0.62,-0.35,-0.11,-0.21,-0.34,0.04,
4.37,-0.62,-0.35,-0.11,-0.21,-0.34,0.04,
4.371,-0.65,-0.24,0.00,-0.21,-0.34,0.04,
4.371,-0.65,-0.24,0.00,-0.21,-0.34,0.04,
4.38,-0.65,-0.24,0.00,-0.21,-0.30,0.05,
4.381,-0.65,-0.24,0.00,-0.21,-0.30,0.05,
4.382,-0.68,-0.08,-0.01,-0.21,-0.30,0.05,
4.383,-0.68,-0.08,-0.01,-0.21,-0.30,0.05,
4.389,-0.68,-0.08,-0.01,-0.20,-0.26,0.06,
4.39,-0.68,-0.08,-0.01,-0.20,-0.26,0.06,
4.391,-0.77,2.06,-0.35,-0.20,-0.26,0.06,
4.391,-0.77,2.06,-0.35,-0.20,-0.26,0.06,
4.397,-0.77,2.06,-0.35,-0.20,-0.26,0.06,
4.398,-0.77,2.06,-0.35,-0.20,-0.26,0.06,
4.399,-0.77,2.06,-0.35,-0.20,-0.26,0.06,
4.4,-0.77,2.06,-0.35,-0.20,-0.26,0.06,
4.407,-0.77,2.06,-0.35,-0.24,-0.23,-0.00,
4.409,-0.77,2.06,-0.35,-0.24,-0.23,-0.00,
4.41,-1.23,5.31,0.12,-0.24,-0.23,-0.00,
4.411,-1.23,5.31,0.12,-0.24,-0.23,-0.00,
4.416,-1.23,5.31,0.12,-0.44,-0.25,-0.31,
4.418,-1.23,5.31,0.12,-0.44,-0.25,-0.31,
4.418,-1.37,5.73,0.66,-0.44,-0.25,-0.31,
4.419,-1.37,5.73,0.66,-0.44,-0.25,-0.31,
4.43,-1.37,5.73,0.66,-0.87,-0.33,-1.05,
4.431,-1.37,5.73,0.66,-0.87,-0.33,-1.05,
4.431,-1.24,5.81,1.28,-0.87,-0.33,-1.05,
4.432,-1.24,5.81,1.28,-0.87,-0.33,-1.05,
4.448,-1.24,5.81,1.28,-1.46,-0.40,-2.17,
4.449,-1.24,5.81,1.28,-1.46,-0.40,-2.17,
4.45,-1.03,4.03,1.31,-1.46,-0.40,-2.17,
4.45,-1.03,4.03,1.31,-1.46,-0.40,-2.17,
4.451,-1.03,4.03,1.31,-1.46,-0.40,-2.17,
4.451,-1.03,4.03,1.31,-1.46,-0.40,-2.17,
4.451,-1.03,4.03,1.31,-1.46,-0.40,-2.17,
4.452,-1.03,4.03,1.31,-1.46,-0.40,-2.17,
4.454,-1.03,4.03,1.31,-2.12,-0.22,-3.94,
4.455,-1.03,4.03,1.31,-2.12,-0.22,-3.94,
4.456,-0.69,2.03,0.28,-2.12,-0.22,-3.94,
4.456,-0.69,2.03,0.28,-2.12,-0.22,-3.94,
4.465,-0.69,2.03,0.28,-1.52,0.00,-3.06,
4.465,-0.69,2.03,0.28,-1.52,0.00,-3.06,
4.466,-0.47,1.62,-0.06,-1.52,0.00,-3.06,
4.467,-0.47,1.62,-0.06,-1.52,0.00,-3.06,
4.474,-0.47,1.62,-0.06,-1.52,0.00,-3.06,
4.475,-0.47,1.62,-0.06,-1.52,0.00,-3.06,
4.476,-0.47,1.62,-0.06,-1.52,0.00,-3.06,
4.476,-0.47,1.62,-0.06,-1.52,0.00,-3.06,
4.483,-0.47,1.62,-0.06,-0.51,-0.07,-1.02,
4.484,-0.47,1.62,-0.06,-0.51,-0.07,-1.02,
4.484,-0.01,1.69,-0.21,-0.51,-0.07,-1.02,
4.485,-0.01,1.69,-0.21,-0.51,-0.07,-1.02,
4.493,-0.01,1.69,-0.21,-0.18,-0.06,-0.38,
4.494,-0.01,1.69,-0.21,-0.18,-0.06,-0.38,
4.495,0.07,1.87,-0.28,-0.18,-0.06,-0.38,
4.495,0.07,1.87,-0.28,-0.18,-0.06,-0.38,
4.502,0.07,1.87,-0.28,0.02,-0.02,-0.01,
4.503,0.07,1.87,-0.28,0.02,-0.02,-0.01,
4.504,-0.25,1.51,-0.42,0.02,-0.02,-0.01,
4.504,-0.25,1.51,-0.42,0.02,-0.02,-0.01,
4.512,-0.25,1.51,-0.42,0.16,0.02,0.22,
4.513,-0.25,1.51,-0.42,0.16,0.02,0.22,
4.514,-0.67,-0.59,-0.54,0.16,0.02,0.22,
4.514,-0.67,-0.59,-0.54,0.16,0.02,0.22,
4.522,-0.67,-0.59,-0.54,0.27,0.00,0.46,
4.522,-0.67,-0.59,-0.54,0.27,0.00,0.46,
4.523,-0.98,-2.82,-0.62,0.27,0.00,0.46,
4.523,-0.98,-2.82,-0.62,0.27,0.00,0.46,
4.531,-0.98,-2.82,-0.62,0.45,-0.09,0.94,
4.531,-0.98,-2.82,-0.62,0.45,-0.09,0.94,
4.532,-0.96,-4.78,-0.49,0.45,-0.09,0.94,
4.532,-0.96,-4.78,-0.49,0.45,-0.09,0.94,
4.541,-0.96,-4.78,-0.49,0.81,-0.23,1.80,
4.541,-0.96,-4.78,-0.49,0.81,-0.23,1.80,
4.542,-0.65,-5.09,-0.25,0.81,-0.23,1.80,
4.543,-0.65,-5.09,-0.25,0.81,-0.23,1.80,
4.55,-0.65,-5.09,-0.25,1.38,-0.30,2.94,
4.55,-0.65,-5.09,-0.25,1.38,-0.30,2.94,
4.551,-0.29,-4.97,-0.13,1.38,-0.30,2.94,
4.552,-0.29,-4.97,-0.13,1.38,-0.30,2.94,
4.56,-0.29,-4.97,-0.13,2.03,-0.24,3.97,
4.561,-0.29,-4.97,-0.13,2.03,-0.24,3.97,
4.561,0.04,-2.98,0.02,2.03,-0.24,3.97,
4.562,0.04,-2.98,0.02,2.03,-0.24,3.97,
4.575,0.04,-2.98,0.02,2.55,-0.09,4.52,
4.576,0.04,-2.98,0.02,2.55,-0.09,4.52,
4.577,0.21,-2.52,0.11,2.55,-0.09,4.52,
4.577,0.21,-2.52,0.11,2.55,-0.09,4.52,
4.578,0.21,-2.52,0.11,2.77,0.10,4.47,
4.578,0.21,-2.52,0.11,2.77,0.10,4.47,
4.579,0.27,-2.00,0.14,2.77,0.10,4.47,
4.579,0.27,-2.00,0.14,2.77,0.10,4.47,
4.588,0.27,-2.00,0.14,2.77,0.10,4.47,
4.589,0.27,-2.00,0.14,2.77,0.10,4.47,
4.589,0.27,-2.00,0.14,2.77,0.10,4.47,
4.59,0.27,-2.00,0.14,2.77,0.10,4.47,
4.598,0.27,-2.00,0.14,2.65,0.27,3.99,
4.599,0.27,-2.00,0.14,2.65,0.27,3.99,
4.599,0.16,-1.99,-0.06,2.65,0.27,3.99,
4.6,0.16,-1.99,-0.06,2.65,0.27,3.99,
4.608,0.16,-1.99,-0.06,2.33,0.37,3.28,
4.609,0.16,-1.99,-0.06,2.33,0.37,3.28,
4.61,-0.07,-2.45,-0.35,2.33,0.37,3.28,
4.61,-0.07,-2.45,-0.35,2.33,0.37,3.28,
4.617,-0.07,-2.45,-0.35,1.95,0.41,2.59,
4.618,-0.07,-2.45,-0.35,1.95,0.41,2.59,
4.619,-0.23,-2.84,-0.63,1.95,0.41,2.59,
4.619,-0.23,-2.84,-0.63,1.95,0.41,2.59,
4.626,-0.23,-2.84,-0.63,1.59,0.37,2.05,
4.628,-0.23,-2.84,-0.63,1.59,0.37,2.05,
4.628,-0.30,-3.04,-0.66,1.59,0.37,2.05,
4.629,-0.30,-3.04,-0.66,1.59,0.37,2.05,
4.643,-0.30,-3.04,-0.66,1.31,0.26,1.71,
4.644,-0.30,-3.04,-0.66,1.31,0.26,1.71,
4.645,-0.29,-3.05,-0.49,1.31,0.26,1.71,
4.645,-0.29,-3.05,-0.49,1.31,0.26,1.71,
4.645,-0.29,-3.05,-0.49,1.10,0.13,1.53,
4.645,-0.29,-3.05,-0.49,1.10,0.13,1.53,
4.646,-0.11,-2.74,-0.45,1.10,0.13,1.53,
4.646,-0.11,-2.74,-0.45,1.10,0.13,1.53,
4.655,-0.11,-2.74,-0.45,0.93,0.03,1.42,
4.656,-0.11,-2.74,-0.45,0.93,0.03,1.42,
4.656,0.09,-2.21,-0.39,0.93,0.03,1.42,
4.657,0.09,-2.21,-0.39,0.93,0.03,1.42,
4.665,0.09,-2.21,-0.39,0.77,-0.02,1.31,
4.666,0.09,-2.21,-0.39,0.77,-0.02,1.31,
4.667,0.32,-1.62,-0.31,0.77,-0.02,1.31,
4.668,0.32,-1.62,-0.31,0.77,-0.02,1.31,
4.674,0.32,-1.62,-0.31,0.57,0.00,1.14,
4.675,0.32,-1.62,-0.31,0.57,0.00,1.14,
4.676,0.35,-1.14,-0.21,0.57,0.00,1.14,
4.677,0.35,-1.14,-0.21,0.57,0.00,1.14,
4.683,0.35,-1.14,-0.21,0.33,0.06,0.89,
4.683,0.35,-1.14,-0.21,0.33,0.06,0.89,
4.684,0.23,-0.85,0.05,0.33,0.06,0.89,
4.685,0.23,-0.85,0.05,0.33,0.06,0.89,
4.693,0.23,-0.85,0.05,0.04,0.15,0.61,
4.694,0.23,-0.85,0.05,0.04,0.15,0.61,
4.695,0.07,-0.65,0.28,0.04,0.15,0.61,
4.696,0.07,-0.65,0.28,0.04,0.15,0.61,
4.702,0.07,-0.65,0.28,-0.24,0.24,0.34,
4.703,0.07,-0.65,0.28,-0.24,0.24,0.34,
4.704,-0.14,-0.40,0.37,-0.24,0.24,0.34,
4.704,-0.14,-0.40,0.37,-0.24,0.24,0.34,
4.712,-0.14,-0.40,0.37,-0.48,0.31,0.12,
4.713,-0.14,-0.40,0.37,-0.48,0.31,0.12,
4.714,-0.13,0.02,0.40,-0.48,0.31,0.12,
4.714,-0.13,0.02,0.40,-0.48,0.31,0.12,
4.721,-0.13,0.02,0.40,-0.67,0.36,-0.04,
4.722,-0.13,0.02,0.40,-0.67,0.36,-0.04,
4.723,-0.09,0.44,0.44,-0.67,0.36,-0.04,
4.724,-0.09,0.44,0.44,-0.67,0.36,-0.04,
4.73,-0.09,0.44,0.44,-0.85,0.37,-0.16,
4.732,-0.09,0.44,0.44,-0.85,0.37,-0.16,
4.733,-0.03,0.78,0.54,-0.85,0.37,-0.16,
4.734,-0.03,0.78,0.54,-0.85,0.37,-0.16,
4.745,-0.03,0.78,0.54,-1.03,0.38,-0.27,
4.746,-0.03,0.78,0.54,-1.03,0.38,-0.27,
4.747,0.04,1.02,0.68,-1.03,0.38,-0.27,
4.747,0.04,1.02,0.68,-1.03,0.38,-0.27,
4.75,0.04,1.02,0.68,-1.21,0.39,-0.40,
4.75,0.04,1.02,0.68,-1.21,0.39,-0.40,
4.751,0.13,1.27,0.76,-1.21,0.39,-0.40,
4.751,0.13,1.27,0.76,-1.21,0.39,-0.40,
4.759,0.13,1.27,0.76,-1.36,0.41,-0.53,
4.76,0.13,1.27,0.76,-1.36,0.41,-0.53,
4.761,0.23,1.54,0.79,-1.36,0.41,-0.53,
4.761,0.23,1.54,0.79,-1.36,0.41,-0.53,
4.769,0.23,1.54,0.79,-1.49,0.45,-0.66,
4.77,0.23,1.54,0.79,-1.49,0.45,-0.66,
4.77,0.34,1.84,0.80,-1.49,0.45,-0.66,
4.771,0.34,1.84,0.80,-1.49,0.45,-0.66,
4.778,0.34,1.84,0.80,-1.58,0.51,-0.79,
4.78,0.34,1.84,0.80,-1.58,0.51,-0.79,
4.78,0.44,2.13,0.81,-1.58,0.51,-0.79,
4.781,0.44,2.13,0.81,-1.58,0.51,-0.79,
4.788,0.44,2.13,0.81,-1.58,0.51,-0.79,
4.789,0.44,2.13,0.81,-1.58,0.51,-0.79,
4.79,0.44,2.13,0.81,-1.58,0.51,-0.79,
4.79,0.44,2.13,0.81,-1.58,0.51,-0.79,
4.797,0.44,2.13,0.81,-1.65,0.56,-0.90,
4.798,0.44,2.13,0.81,-1.65,0.56,-0.90,
4.799,0.56,2.51,0.88,-1.65,0.56,-0.90,
4.799,0.56,2.51,0.88,-1.65,0.56,-0.90,
4.807,0.56,2.51,0.88,-1.72,0.62,-1.01,
4.808,0.56,2.51,0.88,-1.72,0.62,-1.01,
4.809,0.69,2.63,0.97,-1.72,0.62,-1.01,
4.809,0.69,2.63,0.97,-1.72,0.62,-1.01,
4.816,0.69,2.63,0.97,-1.78,0.68,-1.12,
4.817,0.69,2.63,0.97,-1.78,0.68,-1.12,
4.817,0.81,2.74,1.09,-1.78,0.68,-1.12,
4.818,0.81,2.74,1.09,-1.78,0.68,-1.12,
4.826,0.81,2.74,1.09,-1.83,0.74,-1.21,
4.827,0.81,2.74,1.09,-1.83,0.74,-1.21,
4.828,0.95,2.83,1.34,-1.83,0.74,-1.21,
4.828,0.95,2.83,1.34,-1.83,0.74,-1.21,
4.84,0.95,2.83,1.34,-1.82,0.82,-1.28,
4.841,0.95,2.83,1.34,-1.82,0.82,-1.28,
4.841,1.03,2.89,1.47,-1.82,0.82,-1.28,
4.842,1.03,2.89,1.47,-1.82,0.82,-1.28,
4.845,1.03,2.89,1.47,-1.76,0.91,-1.33,
4.846,1.03,2.89,1.47,-1.76,0.91,-1.33,
4.847,1.06,2.99,1.44,-1.76,0.91,-1.33,
4.847,1.06,2.99,1.44,-1.76,0.91,-1.33,
4.854,1.06,2.99,1.44,-1.67,1.02,-1.33,
4.855,1.06,2.99,1.44,-1.67,1.02,-1.33,
4.855,1.04,3.09,1.29,-1.67,1.02,-1.33,
4.856,1.04,3.09,1.29,-1.67,1.02,-1.33,
4.864,1.04,3.09,1.29,-1.57,1.10,-1.30,
4.865,1.04,3.09,1.29,-1.57,1.10,-1.30,
4.865,1.01,3.13,1.07,-1.57,1.10,-1.30,
4.866,1.01,3.13,1.07,-1.57,1.10,-1.30,
4.874,1.01,3.13,1.07,-1.49,1.13,-1.22,
4.875,1.01,3.13,1.07,-1.49,1.13,-1.22,
4.876,0.96,3.15,1.01,-1.49,1.13,-1.22,
4.876,0.96,3.15,1.01,-1.49,1.13,-1.22,
4.883,0.96,3.15,1.01,-1.42,1.09,-1.12,
4.884,0.96,3.15,1.01,-1.42,1.09,-1.12,
4.884,0.89,3.08,1.10,-1.42,1.09,-1.12,
4.885,0.89,3.08,1.10,-1.42,1.09,-1.12,
4.893,0.89,3.08,1.10,-1.35,0.99,-1.01,
4.894,0.89,3.08,1.10,-1.35,0.99,-1.01,
4.895,0.82,2.95,1.31,-1.35,0.99,-1.01,
4.896,0.82,2.95,1.31,-1.35,0.99,-1.01,
4.902,0.82,2.95,1.31,-1.27,0.87,-0.90,
4.903,0.82,2.95,1.31,-1.27,0.87,-0.90,
4.904,0.73,2.81,1.51,-1.27,0.87,-0.90,
4.904,0.73,2.81,1.51,-1.27,0.87,-0.90,
4.911,0.73,2.81,1.51,-1.16,0.77,-0.77,
4.912,0.73,2.81,1.51,-1.16,0.77,-0.77,
4.913,0.64,2.67,1.65,-1.16,0.77,-0.77,
4.913,0.64,2.67,1.65,-1.16,0.77,-0.77,
4.921,0.64,2.67,1.65,-1.03,0.70,-0.62,
4.921,0.64,2.67,1.65,-1.03,0.70,-0.62,
4.922,0.54,2.55,1.80,-1.03,0.70,-0.62,
4.922,0.54,2.55,1.80,-1.03,0.70,-0.62,
4.94,0.54,2.55,1.80,-0.89,0.67,-0.46,
4.941,0.54,2.55,1.80,-0.89,0.67,-0.46,
4.942,0.40,2.47,1.90,-0.89,0.67,-0.46,
4.943,0.40,2.47,1.90,-0.89,0.67,-0.46,
4.943,0.40,2.47,1.90,-0.76,0.65,-0.29,
4.944,0.40,2.47,1.90,-0.76,0.65,-0.29,
4.944,0.26,2.41,1.97,-0.76,0.65,-0.29,
4.945,0.26,2.41,1.97,-0.76,0.65,-0.29,
4.949,0.26,2.41,1.97,-0.64,0.64,-0.13,
4.95,0.26,2.41,1.97,-0.64,0.64,-0.13,
4.95,0.14,2.38,1.98,-0.64,0.64,-0.13,
4.95,0.14,2.38,1.98,-0.64,0.64,-0.13,
4.96,0.14,2.38,1.98,-0.52,0.62,-0.01,
4.961,0.14,2.38,1.98,-0.52,0.62,-0.01,
4.961,0.06,2.30,1.86,-0.52,0.62,-0.01,
4.961,0.06,2.30,1.86,-0.52,0.62,-0.01,
4.969,0.06,2.30,1.86,-0.42,0.58,0.07,
4.97,0.06,2.30,1.86,-0.42,0.58,0.07,
4.971,0.04,2.22,1.62,-0.42,0.58,0.07,
4.971,0.04,2.22,1.62,-0.42,0.58,0.07,
4.979,0.04,2.22,1.62,-0.34,0.51,0.12,
4.98,0.04,2.22,1.62,-0.34,0.51,0.12,
4.98,0.13,2.11,1.13,-0.34,0.51,0.12,
4.981,0.13,2.11,1.13,-0.34,0.51,0.12,
4.988,0.13,2.11,1.13,-0.34,0.51,0.12,
4.99,0.13,2.11,1.13,-0.34,0.51,0.12,
4.99,0.13,2.11,1.13,-0.34,0.51,0.12,
4.991,0.13,2.11,1.13,-0.34,0.51,0.12,
4.998,0.13,2.11,1.13,-0.28,0.40,0.15,
4.998,0.13,2.11,1.13,-0.28,0.40,0.15,
4.999,0.53,1.49,-2.44,-0.28,0.40,0.15,
4.999,0.53,1.49,-2.44,-0.28,0.40,0.15,
5.007,0.53,1.49,-2.44,-0.26,0.17,0.20,
5.008,0.53,1.49,-2.44,-0.26,0.17,0.20,
5.009,0.73,-0.32,-2.84,-0.26,0.17,0.20,
5.009,0.73,-0.32,-2.84,-0.26,0.17,0.20,
5.016,0.73,-0.32,-2.84,-0.25,-0.26,0.38,
5.017,0.73,-0.32,-2.84,-0.25,-0.26,0.38,
5.017,0.97,-0.71,-3.12,-0.25,-0.26,0.38,
5.018,0.97,-0.71,-3.12,-0.25,-0.26,0.38,
5.026,0.97,-0.71,-3.12,-0.17,-0.83,0.74,
5.027,0.97,-0.71,-3.12,-0.17,-0.83,0.74,
5.028,1.23,-1.21,-2.86,-0.17,-0.83,0.74,
5.028,1.23,-1.21,-2.86,-0.17,-0.83,0.74,
5.04,1.23,-1.21,-2.86,0.01,-1.29,1.20,
5.041,1.23,-1.21,-2.86,0.01,-1.29,1.20,
5.041,1.45,-1.50,-1.21,0.01,-1.29,1.20,
5.042,1.45,-1.50,-1.21,0.01,-1.29,1.20,
5.045,1.45,-1.50,-1.21,0.27,-1.48,1.58,
5.046,1.45,-1.50,-1.21,0.27,-1.48,1.58,
5.046,1.54,-1.45,0.30,0.27,-1.48,1.58,
5.046,1.54,-1.45,0.30,0.27,-1.48,1.58,
5.056,1.54,-1.45,0.30,0.55,-1.33,1.77,
5.057,1.54,-1.45,0.30,0.55,-1.33,1.77,
5.057,1.39,-1.16,0.65,0.55,-1.33,1.77,
5.057,1.39,-1.16,0.65,0.55,-1.33,1.77,
5.064,1.39,-1.16,0.65,0.81,-0.94,1.77,
5.064,1.39,-1.16,0.65,0.81,-0.94,1.77,
5.065,1.03,-0.72,0.88,0.81,-0.94,1.77,
5.065,1.03,-0.72,0.88,0.81,-0.94,1.77,
5.073,1.03,-0.72,0.88,1.01,-0.42,1.63,
5.074,1.03,-0.72,0.88,1.01,-0.42,1.63,
5.075,0.53,-0.28,0.95,1.01,-0.42,1.63,
5.076,0.53,-0.28,0.95,1.01,-0.42,1.63,
5.083,0.53,-0.28,0.95,1.10,0.05,1.39,
5.084,0.53,-0.28,0.95,1.10,0.05,1.39,
5.085,-0.06,0.06,0.93,1.10,0.05,1.39,
5.085,-0.06,0.06,0.93,1.10,0.05,1.39,
5.093,-0.06,0.06,0.93,1.06,0.37,1.08,
5.094,-0.06,0.06,0.93,1.06,0.37,1.08,
5.095,-0.65,0.27,0.83,1.06,0.37,1.08,
5.095,-0.65,0.27,0.83,1.06,0.37,1.08,
5.102,-0.65,0.27,0.83,0.89,0.50,0.74,
5.103,-0.65,0.27,0.83,0.89,0.50,0.74,
5.104,-1.15,0.33,0.64,0.89,0.50,0.74,
5.104,-1.15,0.33,0.64,0.89,0.50,0.74,
5.111,-1.15,0.33,0.64,0.64,0.46,0.42,
5.112,-1.15,0.33,0.64,0.64,0.46,0.42,
5.113,-1.44,0.27,0.35,0.64,0.46,0.42,
5.114,-1.44,0.27,0.35,0.64,0.46,0.42,
5.121,-1.44,0.27,0.35,0.36,0.27,0.15,
5.122,-1.44,0.27,0.35,0.36,0.27,0.15,
5.123,-1.46,0.07,0.00,0.36,0.27,0.15,
5.124,-1.46,0.07,0.00,0.36,0.27,0.15,
5.13,-1.46,0.07,0.00,0.09,-0.01,-0.05,
5.131,-1.46,0.07,0.00,0.09,-0.01,-0.05,
5.132,-1.27,-0.22,-0.32,0.09,-0.01,-0.05,
5.132,-1.27,-0.22,-0.32,0.09,-0.01,-0.05,
5.141,-1.27,-0.22,-0.32,-0.13,-0.32,-0.18,
5.142,-1.27,-0.22,-0.32,-0.13,-0.32,-0.18,
5.142,-0.92,-0.57,-0.52,-0.13,-0.32,-0.18,
5.143,-0.92,-0.57,-0.52,-0.13,-0.32,-0.18,
5.15,-0.92,-0.57,-0.52,-0.29,-0.59,-0.22,
5.151,-0.92,-0.57,-0.52,-0.29,-0.59,-0.22,
5.151,-0.58,-0.89,-0.60,-0.29,-0.59,-0.22,
5.152,-0.58,-0.89,-0.60,-0.29,-0.59,-0.22,
5.159,-0.58,-0.89,-0.60,-0.35,-0.75,-0.21,
5.16,-0.58,-0.89,-0.60,-0.35,-0.75,-0.21,
5.161,-0.31,-1.10,-0.57,-0.35,-0.75,-0.21,
5.161,-0.31,-1.10,-0.57,-0.35,-0.75,-0.21,
5.169,-0.31,-1.10,-0.57,-0.32,-0.79,-0.16,
5.17,-0.31,-1.10,-0.57,-0.32,-0.79,-0.16,
5.17,-0.16,-1.14,-0.50,-0.32,-0.79,-0.16,
5.171,-0.16,-1.14,-0.50,-0.32,-0.79,-0.16,
5.179,-0.16,-1.14,-0.50,-0.22,-0.71,-0.09,
5.18,-0.16,-1.14,-0.50,-0.22,-0.71,-0.09,
5.181,-0.17,-1.02,-0.45,-0.22,-0.71,-0.09,
5.181,-0.17,-1.02,-0.45,-0.22,-0.71,-0.09,
5.188,-0.17,-1.02,-0.45,-0.22,-0.71,-0.09,
5.189,-0.17,-1.02,-0.45,-0.22,-0.71,-0.09,
5.189,-0.17,-1.02,-0.45,-0.22,-0.71,-0.09,
5.19,-0.17,-1.02,-0.45,-0.22,-0.71,-0.09,
5.198,-0.17,-1.02,-0.45,-0.10,-0.55,-0.05,
5.2,-0.17,-1.02,-0.45,-0.10,-0.55,-0.05,
5.201,-0.66,-0.57,-0.36,-0.10,-0.55,-0.05,
5.202,-0.66,-0.57,-0.36,-0.10,-0.55,-0.05,
5.207,-0.66,-0.57,-0.36,-0.01,-0.38,-0.03,
5.209,-0.66,-0.57,-0.36,-0.01,-0.38,-0.03,
5.21,-1.00,-0.35,-0.34,-0.01,-0.38,-0.03,
5.21,-1.00,-0.35,-0.34,-0.01,-0.38,-0.03,
5.216,-1.00,-0.35,-0.34,-0.00,-0.26,-0.05,
5.217,-1.00,-0.35,-0.34,-0.00,-0.26,-0.05,
5.217,-1.28,-0.22,-0.31,-0.00,-0.26,-0.05,
5.217,-1.28,-0.22,-0.31,-0.00,-0.26,-0.05,
5.226,-1.28,-0.22,-0.31,-0.07,-0.23,-0.10,
5.226,-1.28,-0.22,-0.31,-0.07,-0.23,-0.10,
5.227,-1.45,-0.15,-0.32,-0.07,-0.23,-0.10,
5.227,-1.45,-0.15,-0.32,-0.07,-0.23,-0.10,
5.237,-1.45,-0.15,-0.32,-0.19,-0.28,-0.16,
5.238,-1.45,-0.15,-0.32,-0.19,-0.28,-0.16,
5.239,-1.49,-0.15,-0.34,-0.19,-0.28,-0.16,
5.239,-1.49,-0.15,-0.34,-0.19,-0.28,-0.16,
5.245,-1.49,-0.15,-0.34,-0.30,-0.37,-0.21,
5.245,-1.49,-0.15,-0.34,-0.30,-0.37,-0.21,
5.246,-1.43,-0.23,-0.34,-0.30,-0.37,-0.21,
5.246,-1.43,-0.23,-0.34,-0.30,-0.37,-0.21,
5.254,-1.43,-0.23,-0.34,-0.38,-0.47,-0.25,
5.255,-1.43,-0.23,-0.34,-0.38,-0.47,-0.25,
5.255,-1.31,-0.32,-0.36,-0.38,-0.47,-0.25,
5.255,-1.31,-0.32,-0.36,-0.38,-0.47,-0.25,
5.264,-1.31,-0.32,-0.36,-0.42,-0.54,-0.25,
5.264,-1.31,-0.32,-0.36,-0.42,-0.54,-0.25,
5.265,-1.17,-0.44,-0.37,-0.42,-0.54,-0.25,
5.265,-1.17,-0.44,-0.37,-0.42,-0.54,-0.25,
5.273,-1.17,-0.44,-0.37,-0.41,-0.57,-0.23,
5.275,-1.17,-0.44,-0.37,-0.41,-0.57,-0.23,
5.275,-0.99,-0.52,-0.38,-0.41,-0.57,-0.23,
5.276,-0.99,-0.52,-0.38,-0.41,-0.57,-0.23,
5.283,-0.99,-0.52,-0.38,-0.36,-0.55,-0.19,
5.284,-0.99,-0.52,-0.38,-0.36,-0.55,-0.19,
5.285,-0.83,-0.56,-0.37,-0.36,-0.55,-0.19,
5.286,-0.83,-0.56,-0.37,-0.36,-0.55,-0.19,
5.292,-0.83,-0.56,-0.37,-0.27,-0.48,-0.14,
5.293,-0.83,-0.56,-0.37,-0.27,-0.48,-0.14,
5.294,-0.71,-0.59,-0.36,-0.27,-0.48,-0.14,
5.295,-0.71,-0.59,-0.36,-0.27,-0.48,-0.14,
5.301,-0.71,-0.59,-0.36,-0.16,-0.39,-0.09,
5.302,-0.71,-0.59,-0.36,-0.16,-0.39,-0.09,
5.303,-0.62,-0.61,-0.32,-0.16,-0.39,-0.09,
5.304,-0.62,-0.61,-0.32,-0.16,-0.39,-0.09,
5.311,-0.62,-0.61,-0.32,-0.05,-0.28,-0.05,
5.312,-0.62,-0.61,-0.32,-0.05,-0.28,-0.05,
5.312,-0.62,-0.58,-0.30,-0.05,-0.28,-0.05,
5.313,-0.62,-0.58,-0.30,-0.05,-0.28,-0.05,
5.321,-0.62,-0.58,-0.30,0.04,-0.17,-0.02,
5.321,-0.62,-0.58,-0.30,0.04,-0.17,-0.02,
5.322,-0.67,-0.55,-0.27,0.04,-0.17,-0.02,
5.322,-0.67,-0.55,-0.27,0.04,-0.17,-0.02,
5.33,-0.67,-0.55,-0.27,0.11,-0.08,0.01,
5.331,-0.67,-0.55,-0.27,0.11,-0.08,0.01,
5.332,-0.79,-0.53,-0.27,0.11,-0.08,0.01,
5.332,-0.79,-0.53,-0.27,0.11,-0.08,0.01,
5.34,-0.79,-0.53,-0.27,0.16,-0.02,0.04,
5.342,-0.79,-0.53,-0.27,0.16,-0.02,0.04,
5.342,-0.92,-0.48,-0.29,0.16,-0.02,0.04,
5.343,-0.92,-0.48,-0.29,0.16,-0.02,0.04,
5.349,-0.92,-0.48,-0.29,0.19,-0.00,0.06,
5.35,-0.92,-0.48,-0.29,0.19,-0.00,0.06,
5.351,-1.02,-0.45,-0.30,0.19,-0.00,0.06,
5.351,-1.02,-0.45,-0.30,0.19,-0.00,0.06,
5.359,-1.02,-0.45,-0.30,0.19,-0.03,0.08,
5.36,-1.02,-0.45,-0.30,0.19,-0.03,0.08,
5.36,-1.08,-0.43,-0.32,0.19,-0.03,0.08,
5.36,-1.08,-0.43,-0.32,0.19,-0.03,0.08,
5.369,-1.08,-0.43,-0.32,0.18,-0.09,0.11,
5.37,-1.08,-0.43,-0.32,0.18,-0.09,0.11,
5.37,-1.06,-0.39,-0.31,0.18,-0.09,0.11,
5.37,-1.06,-0.39,-0.31,0.18,-0.09,0.11,
5.378,-1.06,-0.39,-0.31,0.16,-0.18,0.14,
5.379,-1.06,-0.39,-0.31,0.16,-0.18,0.14,
5.38,-0.96,-0.35,-0.28,0.16,-0.18,0.14,
5.381,-0.96,-0.35,-0.28,0.16,-0.18,0.14,
5.388,-0.96,-0.35,-0.28,0.16,-0.18,0.14,
5.389,-0.96,-0.35,-0.28,0.16,-0.18,0.14,
5.39,-0.96,-0.35,-0.28,0.16,-0.18,0.14,
5.391,-0.96,-0.35,-0.28,0.16,-0.18,0.14,
5.397,-0.96,-0.35,-0.28,0.13,-0.25,0.17,
5.398,-0.96,-0.35,-0.28,0.13,-0.25,0.17,
5.399,-0.87,-0.23,-0.26,0.13,-0.25,0.17,
5.4,-0.87,-0.23,-0.26,0.13,-0.25,0.17,
5.406,-0.87,-0.23,-0.26,0.10,-0.30,0.18,
5.408,-0.87,-0.23,-0.26,0.10,-0.30,0.18,
5.409,-0.83,-0.14,-0.24,0.10,-0.30,0.18,
5.41,-0.83,-0.14,-0.24,0.10,-0.30,0.18,
5.416,-0.83,-0.14,-0.24,0.06,-0.32,0.18,
5.416,-0.83,-0.14,-0.24,0.06,-0.32,0.18,
5.417,-0.84,-0.05,-0.25,0.06,-0.32,0.18,
5.417,-0.84,-0.05,-0.25,0.06,-0.32,0.18,
5.425,-0.84,-0.05,-0.25,0.02,-0.31,0.16,
5.426,-0.84,-0.05,-0.25,0.02,-0.31,0.16,
5.427,-0.82,0.00,-0.25,0.02,-0.31,0.16,
5.427,-0.82,0.00,-0.25,0.02,-0.31,0.16,
5.448,-0.82,0.00,-0.25,-0.01,-0.30,0.11,
5.449,-0.82,0.00,-0.25,-0.01,-0.30,0.11,
5.449,-0.79,0.03,-0.25,-0.01,-0.30,0.11,
5.449,-0.79,0.03,-0.25,-0.01,-0.30,0.11,
5.45,-0.79,0.03,-0.25,-0.01,-0.30,0.11,
5.45,-0.79,0.03,-0.25,-0.01,-0.30,0.11,
5.45,-0.79,0.03,-0.25,-0.01,-0.30,0.11,
5.451,-0.79,0.03,-0.25,-0.01,-0.30,0.11,
5.454,-0.79,0.03,-0.25,-0.07,-0.29,0.03,
5.455,-0.79,0.03,-0.25,-0.07,-0.29,0.03,
5.455,-0.70,0.01,-0.15,-0.07,-0.29,0.03,
5.455,-0.70,0.01,-0.15,-0.07,-0.29,0.03,
5.465,-0.70,0.01,-0.15,-0.13,-0.27,0.02,
5.465,-0.70,0.01,-0.15,-0.13,-0.27,0.02,
5.466,-0.59,0.01,-0.03,-0.13,-0.27,0.02,
5.466,-0.59,0.01,-0.03,-0.13,-0.27,0.02,
5.473,-0.59,0.01,-0.03,-0.13,-0.27,0.02,
5.474,-0.59,0.01,-0.03,-0.13,-0.27,0.02,
5.474,-0.59,0.01,-0.03,-0.13,-0.27,0.02,
5.474,-0.59,0.01,-0.03,-0.13,-0.27,0.02,
5.484,-0.59,0.01,-0.03,-0.12,-0.20,0.04,
5.485,-0.59,0.01,-0.03,-0.12,-0.20,0.04,
5.485,-0.54,-0.01,0.14,-0.12,-0.20,0.04,
5.486,-0.54,-0.01,0.14,-0.12,-0.20,0.04,
5.492,-0.54,-0.01,0.14,-0.10,-0.16,0.03,
5.493,-0.54,-0.01,0.14,-0.10,-0.16,0.03,
5.494,-0.55,-0.02,0.17,-0.10,-0.16,0.03,
5.494,-0.55,-0.02,0.17,-0.10,-0.16,0.03,
5.502,-0.55,-0.02,0.17,-0.07,-0.11,0.03,
5.503,-0.55,-0.02,0.17,-0.07,-0.11,0.03,
5.503,-0.54,-0.05,0.16,-0.07,-0.11,0.03,
5.503,-0.54,-0.05,0.16,-0.07,-0.11,0.03,
5.512,-0.54,-0.05,0.16,-0.04,-0.07,0.03,
5.512,-0.54,-0.05,0.16,-0.04,-0.07,0.03,
5.513,-0.50,-0.08,0.15,-0.04,-0.07,0.03,
5.514,-0.50,-0.08,0.15,-0.04,-0.07,0.03,
5.522,-0.50,-0.08,0.15,-0.02,-0.05,0.04,
5.523,-0.50,-0.08,0.15,-0.02,-0.05,0.04,
5.523,-0.42,-0.09,0.13,-0.02,-0.05,0.04,
5.524,-0.42,-0.09,0.13,-0.02,-0.05,0.04,
5.53,-0.42,-0.09,0.13,0.01,-0.04,0.05,
5.531,-0.42,-0.09,0.13,0.01,-0.04,0.05,
5.531,-0.34,-0.11,0.13,0.01,-0.04,0.05,
5.532,-0.34,-0.11,0.13,0.01,-0.04,0.05,
5.54,-0.34,-0.11,0.13,0.03,-0.03,0.06,
5.541,-0.34,-0.11,0.13,0.03,-0.03,0.06,
5.542,-0.25,-0.14,0.15,0.03,-0.03,0.06,
5.542,-0.25,-0.14,0.15,0.03,-0.03,0.06,
5.563,-0.25,-0.14,0.15,0.06,-0.01,0.06,
5.564,-0.25,-0.14,0.15,0.06,-0.01,0.06,
5.565,-0.22,-0.17,0.16,0.06,-0.01,0.06,
5.565,-0.22,-0.17,0.16,0.06,-0.01,0.06,
5.565,-0.22,-0.17,0.16,0.08,0.02,0.06,
5.565,-0.22,-0.17,0.16,0.08,0.02,0.06,
5.566,-0.24,-0.19,0.17,0.08,0.02,0.06,
5.566,-0.24,-0.19,0.17,0.08,0.02,0.06,
5.571,-0.24,-0.19,0.17,0.11,0.05,0.07,
5.572,-0.24,-0.19,0.17,0.11,0.05,0.07,
5.572,-0.27,-0.18,0.18,0.11,0.05,0.07,
5.572,-0.27,-0.18,0.18,0.11,0.05,0.07,
5.578,-0.27,-0.18,0.18,0.13,0.07,0.08,
5.579,-0.27,-0.18,0.18,0.13,0.07,0.08,
5.58,-0.32,-0.15,0.19,0.13,0.07,0.08,
5.58,-0.32,-0.15,0.19,0.13,0.07,0.08,
5.587,-0.32,-0.15,0.19,0.13,0.07,0.08,
5.589,-0.32,-0.15,0.19,0.13,0.07,0.08,
5.59,-0.32,-0.15,0.19,0.13,0.07,0.08,
5.591,-0.32,-0.15,0.19,0.13,0.07,0.08,
5.597,-0.32,-0.15,0.19,0.14,0.07,0.09,
5.598,-0.32,-0.15,0.19,0.14,0.07,0.09,
5.598,-0.29,-0.02,0.21,0.14,0.07,0.09,
5.599,-0.29,-0.02,0.21,0.14,0.07,0.09,
5.607,-0.29,-0.02,0.21,0.14,0.07,0.09,
5.609,-0.29,-0.02,0.21,0.14,0.07,0.09,
5.61,-0.24,0.04,0.22,0.14,0.07,0.09,
5.611,-0.24,0.04,0.22,0.14,0.07,0.09,
5.616,-0.24,0.04,0.22,0.13,0.05,0.08,
5.617,-0.24,0.04,0.22,0.13,0.05,0.08,
5.617,-0.19,0.11,0.19,0.13,0.05,0.08,
5.618,-0.19,0.11,0.19,0.13,0.05,0.08,
5.625,-0.19,0.11,0.19,0.10,0.03,0.04,
5.626,-0.19,0.11,0.19,0.10,0.03,0.04,
5.627,-0.17,0.17,0.16,0.10,0.03,0.04,
5.627,-0.17,0.17,0.16,0.10,0.03,0.04,
5.638,-0.17,0.17,0.16,0.06,0.03,-0.01,
5.639,-0.17,0.17,0.16,0.06,0.03,-0.01,
5.639,-0.18,0.21,0.12,0.06,0.03,-0.01,
5.639,-0.18,0.21,0.12,0.06,0.03,-0.01,
5.645,-0.18,0.21,0.12,0.01,0.02,-0.06,
5.645,-0.18,0.21,0.12,0.01,0.02,-0.06,
5.645,-0.16,0.22,0.10,0.01,0.02,-0.06,
5.646,-0.16,0.22,0.10,0.01,0.02,-0.06,
5.656,-0.16,0.22,0.10,-0.03,0.01,-0.10,
5.657,-0.16,0.22,0.10,-0.03,0.01,-0.10,
5.657,-0.19,0.21,0.10,-0.03,0.01,-0.10,
5.657,-0.19,0.21,0.10,-0.03,0.01,-0.10,
5.663,-0.19,0.21,0.10,-0.07,-0.01,-0.14,
5.664,-0.19,0.21,0.10,-0.07,-0.01,-0.14,
5.664,-0.22,0.18,0.11,-0.07,-0.01,-0.14,
5.665,-0.22,0.18,0.11,-0.07,-0.01,-0.14,
5.673,-0.22,0.18,0.11,-0.10,-0.03,-0.16,
5.674,-0.22,0.18,0.11,-0.10,-0.03,-0.16,
5.674,-0.25,0.19,0.13,-0.10,-0.03,-0.16,
5.675,-0.25,0.19,0.13,-0.10,-0.03,-0.16,
5.683,-0.25,0.19,0.13,-0.11,-0.05,-0.17,
5.684,-0.25,0.19,0.13,-0.11,-0.05,-0.17,
5.684,-0.33,0.20,0.18,-0.11,-0.05,-0.17,
5.685,-0.33,0.20,0.18,-0.11,-0.05,-0.17,
5.693,-0.33,0.20,0.18,-0.12,-0.07,-0.16,
5.694,-0.33,0.20,0.18,-0.12,-0.07,-0.16,
5.695,-0.38,0.21,0.21,-0.12,-0.07,-0.16,
5.695,-0.38,0.21,0.21,-0.12,-0.07,-0.16,
5.702,-0.38,0.21,0.21,-0.12,-0.09,-0.14,
5.703,-0.38,0.21,0.21,-0.12,-0.09,-0.14,
5.703,-0.42,0.20,0.25,-0.12,-0.09,-0.14,
5.704,-0.42,0.20,0.25,-0.12,-0.09,-0.14,
5.711,-0.42,0.20,0.25,-0.12,-0.12,-0.12,
5.712,-0.42,0.20,0.25,-0.12,-0.12,-0.12,
5.713,-0.42,0.16,0.29,-0.12,-0.12,-0.12,
5.714,-0.42,0.16,0.29,-0.12,-0.12,-0.12,
5.72,-0.42,0.16,0.29,-0.11,-0.14,-0.11,
5.722,-0.42,0.16,0.29,-0.11,-0.14,-0.11,
5.722,-0.39,0.13,0.30,-0.11,-0.14,-0.11,
5.722,-0.39,0.13,0.30,-0.11,-0.14,-0.11,
5.731,-0.39,0.13,0.30,-0.09,-0.15,-0.09,
5.732,-0.39,0.13,0.30,-0.09,-0.15,-0.09,
5.733,-0.36,0.12,0.32,-0.09,-0.15,-0.09,
5.733,-0.36,0.12,0.32,-0.09,-0.15,-0.09,
5.742,-0.36,0.12,0.32,-0.07,-0.15,-0.07,
5.743,-0.36,0.12,0.32,-0.07,-0.15,-0.07,
5.744,-0.35,0.09,0.35,-0.07,-0.15,-0.07,
5.745,-0.35,0.09,0.35,-0.07,-0.15,-0.07,
5.749,-0.35,0.09,0.35,-0.05,-0.14,-0.05,
5.75,-0.35,0.09,0.35,-0.05,-0.14,-0.05,
5.75,-0.38,0.08,0.36,-0.05,-0.14,-0.05,
5.75,-0.38,0.08,0.36,-0.05,-0.14,-0.05,
5.759,-0.38,0.08,0.36,-0.02,-0.12,-0.04,
5.759,-0.38,0.08,0.36,-0.02,-0.12,-0.04,
5.76,-0.41,0.08,0.37,-0.02,-0.12,-0.04,
5.76,-0.41,0.08,0.37,-0.02,-0.12,-0.04,
5.769,-0.41,0.08,0.37,0.00,-0.09,-0.02,
5.77,-0.41,0.08,0.37,0.00,-0.09,-0.02,
5.77,-0.44,0.10,0.35,0.00,-0.09,-0.02,
5.771,-0.44,0.10,0.35,0.00,-0.09,-0.02,
5.778,-0.44,0.10,0.35,0.02,-0.08,-0.00,
5.779,-0.44,0.10,0.35,0.02,-0.08,-0.00,
5.78,-0.46,0.14,0.33,0.02,-0.08,-0.00,
5.781,-0.46,0.14,0.33,0.02,-0.08,-0.00,
5.787,-0.46,0.14,0.33,0.02,-0.08,-0.00,
5.789,-0.46,0.14,0.33,0.02,-0.08,-0.00,
5.789,-0.46,0.14,0.33,0.02,-0.08,-0.00,
5.79,-0.46,0.14,0.33,0.02,-0.08,-0.00,
5.797,-0.46,0.14,0.33,0.02,-0.07,0.02,
5.798,-0.46,0.14,0.33,0.02,-0.07,0.02,
5.799,-0.37,0.14,0.26,0.02,-0.07,0.02,
5.799,-0.37,0.14,0.26,0.02,-0.07,0.02,
5.806,-0.37,0.14,0.26,0.01,-0.07,0.03,
5.807,-0.37,0.14,0.26,0.01,-0.07,0.03,
5.808,-0.33,0.13,0.25,0.01,-0.07,0.03,
5.808,-0.33,0.13,0.25,0.01,-0.07,0.03,
5.816,-0.33,0.13,0.25,-0.00,-0.07,0.05,
5.817,-0.33,0.13,0.25,-0.00,-0.07,0.05,
5.817,-0.33,0.08,0.26,-0.00,-0.07,0.05,
5.818,-0.33,0.08,0.26,-0.00,-0.07,0.05,
5.825,-0.33,0.08,0.26,-0.01,-0.06,0.04,
5.826,-0.33,0.08,0.26,-0.01,-0.06,0.04,
5.827,-0.34,0.07,0.28,-0.01,-0.06,0.04,
5.827,-0.34,0.07,0.28,-0.01,-0.06,0.04,
5.839,-0.34,0.07,0.28,-0.01,-0.05,0.04,
5.84,-0.34,0.07,0.28,-0.01,-0.05,0.04,
5.84,-0.33,0.08,0.32,-0.01,-0.05,0.04,
5.841,-0.33,0.08,0.32,-0.01,-0.05,0.04,
5.845,-0.33,0.08,0.32,-0.00,-0.04,0.03,
5.845,-0.33,0.08,0.32,-0.00,-0.04,0.03,
5.846,-0.31,0.12,0.33,-0.00,-0.04,0.03,
5.847,-0.31,0.12,0.33,-0.00,-0.04,0.03,
5.855,-0.31,0.12,0.33,0.01,-0.03,0.01,
5.855,-0.31,0.12,0.33,0.01,-0.03,0.01,
5.856,-0.27,0.15,0.32,0.01,-0.03,0.01,
5.856,-0.27,0.15,0.32,0.01,-0.03,0.01,
5.864,-0.27,0.15,0.32,0.02,-0.01,-0.00,
5.865,-0.27,0.15,0.32,0.02,-0.01,-0.00,
5.866,-0.25,0.15,0.32,0.02,-0.01,-0.00,
5.866,-0.25,0.15,0.32,0.02,-0.01,-0.00,
5.873,-0.25,0.15,0.32,0.02,0.00,-0.01,
5.874,-0.25,0.15,0.32,0.02,0.00,-0.01,
5.875,-0.24,0.14,0.32,0.02,0.00,-0.01,
5.875,-0.24,0.14,0.32,0.02,0.00,-0.01,
5.882,-0.24,0.14,0.32,0.00,0.02,-0.02,
5.883,-0.24,0.10,0.30,0.00,0.02,-0.02,
5.883,-0.24,0.10,0.30,0.00,0.02,-0.02,
5.884,-0.24,0.10,0.30,0.00,0.02,-0.02,
5.892,-0.24,0.10,0.30,-0.01,0.04,-0.03,
5.893,-0.24,0.10,0.30,-0.01,0.04,-0.03,
5.894,-0.24,0.10,0.27,-0.01,0.04,-0.03,
5.894,-0.24,0.10,0.27,-0.01,0.04,-0.03,
5.901,-0.24,0.10,0.27,-0.03,0.05,-0.02,
5.902,-0.24,0.10,0.27,-0.03,0.05,-0.02,
5.903,-0.24,0.13,0.22,-0.03,0.05,-0.02,
5.903,-0.24,0.13,0.22,-0.03,0.05,-0.02,
5.911,-0.24,0.13,0.22,-0.03,0.05,-0.02,
5.912,-0.24,0.13,0.22,-0.03,0.05,-0.02,
5.913,-0.24,0.15,0.18,-0.03,0.05,-0.02,
5.913,-0.24,0.15,0.18,-0.03,0.05,-0.02,
5.921,-0.24,0.15,0.18,-0.02,0.04,-0.01,
5.921,-0.24,0.15,0.18,-0.02,0.04,-0.01,
5.922,-0.25,0.18,0.18,-0.02,0.04,-0.01,
5.922,-0.25,0.18,0.18,-0.02,0.04,-0.01,
5.93,-0.25,0.18,0.18,-0.03,0.03,-0.02,
5.931,-0.25,0.18,0.18,-0.03,0.03,-0.02,
5.931,-0.25,0.17,0.18,-0.03,0.03,-0.02,
5.932,-0.25,0.17,0.18,-0.03,0.03,-0.02,
5.94,-0.25,0.17,0.18,-0.04,0.00,-0.03,
5.941,-0.25,0.17,0.18,-0.04,0.00,-0.03,
5.942,-0.25,0.17,0.18,-0.04,0.00,-0.03,
5.942,-0.25,0.17,0.18,-0.04,0.00,-0.03,
5.949,-0.25,0.17,0.18,-0.06,-0.01,-0.03,
5.95,-0.25,0.17,0.18,-0.06,-0.01,-0.03,
5.951,-0.24,0.17,0.18,-0.06,-0.01,-0.03,
5.951,-0.24,0.17,0.18,-0.06,-0.01,-0.03,
5.958,-0.24,0.17,0.18,-0.07,-0.03,-0.03,
5.959,-0.24,0.17,0.18,-0.07,-0.03,-0.03,
5.959,-0.24,0.16,0.19,-0.07,-0.03,-0.03,
5.96,-0.24,0.16,0.19,-0.07,-0.03,-0.03,
5.969,-0.24,0.16,0.19,-0.08,-0.04,-0.04,
5.97,-0.24,0.16,0.19,-0.08,-0.04,-0.04,
5.97,-0.24,0.16,0.19,-0.08,-0.04,-0.04,
5.97,-0.24,0.16,0.19,-0.08,-0.04,-0.04,
5.978,-0.24,0.16,0.19,-0.08,-0.04,-0.04,
5.979,-0.24,0.16,0.19,-0.08,-0.04,-0.04,
5.98,-0.24,0.16,0.19,-0.08,-0.04,-0.04,
5.981,-0.24,0.16,0.19,-0.08,-0.04,-0.04,
5.988,-0.24,0.16,0.19,-0.08,-0.04,-0.04,
5.989,-0.24,0.16,0.19,-0.08,-0.04,-0.04,
5.99,-0.24,0.16,0.19,-0.08,-0.04,-0.04,
5.99,-0.24,0.16,0.19,-0.08,-0.04,-0.04,
5.997,-0.24,0.16,0.19,-0.08,-0.04,-0.03,
5.998,-0.24,0.16,0.19,-0.08,-0.04,-0.03,
5.999,-0.23,0.16,0.19,-0.08,-0.04,-0.03,
5.999,-0.23,0.16,0.19,-0.08,-0.04,-0.03,
6.006,-0.23,0.16,0.19,-0.07,-0.04,-0.03,
6.008,-0.23,0.16,0.19,-0.07,-0.04,-0.03,
6.009,-0.23,0.16,0.19,-0.07,-0.04,-0.03,
6.01,-0.23,0.16,0.19,-0.07,-0.04,-0.03,
6.018,-0.23,0.16,0.19,-0.06,-0.03,-0.03,
6.019,-0.23,0.16,0.19,-0.06,-0.03,-0.03,
6.019,-0.23,0.16,0.19,-0.06,-0.03,-0.03,
6.02,-0.23,0.16,0.19,-0.06,-0.03,-0.03,
6.026,-0.23,0.16,0.19,-0.05,-0.03,-0.02,
6.026,-0.23,0.16,0.19,-0.05,-0.03,-0.02,
6.027,-0.23,0.15,0.20,-0.05,-0.03,-0.02,
6.027,-0.23,0.15,0.20,-0.05,-0.03,-0.02,
6.034,-0.23,0.15,0.20,-0.04,-0.02,-0.02,
6.035,-0.23,0.15,0.20,-0.04,-0.02,-0.02,
6.035,-0.23,0.15,0.20,-0.04,-0.02,-0.02,
6.036,-0.23,0.15,0.20,-0.04,-0.02,-0.02,
6.045,-0.23,0.15,0.20,-0.03,-0.02,-0.01,
6.046,-0.23,0.15,0.20,-0.03,-0.02,-0.01,
6.047,-0.22,0.15,0.20,-0.03,-0.02,-0.01,
6.047,-0.22,0.15,0.20,-0.03,-0.02,-0.01,
6.056,-0.22,0.15,0.20,-0.03,-0.01,-0.01,
6.058,-0.22,0.15,0.20,-0.03,-0.01,-0.01,
6.058,-0.22,0.14,0.20,-0.03,-0.01,-0.01,
6.059,-0.22,0.14,0.20,-0.03,-0.01,-0.01,
6.064,-0.22,0.14,0.20,-0.02,-0.01,-0.01,
6.065,-0.22,0.14,0.20,-0.02,-0.01,-0.01,
6.065,-0.22,0.14,0.21,-0.02,-0.01,-0.01,
6.066,-0.22,0.14,0.21,-0.02,-0.01,-0.01,
6.073,-0.22,0.14,0.21,-0.02,-0.01,-0.01,
6.074,-0.22,0.14,0.21,-0.02,-0.01,-0.01,
6.075,-0.21,0.13,0.21,-0.02,-0.01,-0.01,
6.075,-0.21,0.13,0.21,-0.02,-0.01,-0.01,
6.083,-0.21,0.13,0.21,-0.01,-0.01,-0.01,
6.084,-0.21,0.13,0.21,-0.01,-0.01,-0.01,
6.084,-0.21,0.13,0.21,-0.01,-0.01,-0.01,
6.085,-0.21,0.13,0.21,-0.01,-0.01,-0.01,
6.093,-0.21,0.13,0.21,-0.01,-0.01,-0.01,
6.094,-0.21,0.13,0.21,-0.01,-0.01,-0.01,
6.094,-0.21,0.12,0.22,-0.01,-0.01,-0.01,
6.095,-0.21,0.12,0.22,-0.01,-0.01,-0.01,
6.102,-0.21,0.12,0.22,-0.01,-0.01,-0.00,
6.103,-0.21,0.12,0.22,-0.01,-0.01,-0.00,
6.104,-0.20,0.12,0.22,-0.01,-0.01,-0.00,
6.104,-0.20,0.12,0.22,-0.01,-0.01,-0.00,
6.112,-0.20,0.12,0.22,-0.01,-0.00,-0.00,
6.113,-0.20,0.12,0.22,-0.01,-0.00,-0.00,
6.114,-0.20,0.12,0.22,-0.01,-0.00,-0.00,
6.115,-0.20,0.12,0.22,-0.01,-0.00,-0.00,
6.121,-0.20,0.12,0.22,-0.01,-0.00,-0.00,
6.122,-0.20,0.12,0.22,-0.01,-0.00,-0.00,
6.122,-0.20,0.11,0.22,-0.01,-0.00,-0.00,
6.123,-0.20,0.11,0.22,-0.01,-0.00,-0.00,
6.13,-0.20,0.11,0.22,-0.01,-0.00,-0.00,
6.131,-0.20,0.11,0.22,-0.01,-0.00,-0.00,
6.132,-0.20,0.11,0.23,-0.01,-0.00,-0.00,
6.132,-0.20,0.11,0.23,-0.01,-0.00,-0.00,
6.139,-0.20,0.11,0.23,-0.00,-0.00,-0.00,
6.141,-0.20,0.11,0.23,-0.00,-0.00,-0.00,
6.141,-0.20,0.10,0.23,-0.00,-0.00,-0.00,
6.142,-0.20,0.10,0.23,-0.00,-0.00,-0.00,
6.149,-0.20,0.10,0.23,-0.00,-0.00,-0.00,
6.149,-0.20,0.10,0.23,-0.00,-0.00,-0.00,
6.15,-0.19,0.10,0.23,-0.00,-0.00,-0.00,
6.15,-0.19,0.10,0.23,-0.00,-0.00,-0.00,
6.158,-0.19,0.10,0.23,-0.00,-0.00,0.00,
6.159,-0.19,0.10,0.23,-0.00,-0.00,0.00,
6.159,-0.19,0.09,0.23,-0.00,-0.00,0.00,
6.16,-0.19,0.09,0.23,-0.00,-0.00,0.00,
6.169,-0.19,0.09,0.23,-0.00,0.00,0.00,
6.17,-0.19,0.09,0.23,-0.00,0.00,0.00,
6.17,-0.19,0.09,0.23,-0.00,0.00,0.00,
6.17,-0.19,0.09,0.23,-0.00,0.00,0.00,
6.178,-0.19,0.09,0.23,-0.00,0.00,0.00,
6.179,-0.19,0.09,0.23,-0.00,0.00,0.00,
6.18,-0.19,0.09,0.23,-0.00,0.00,0.00,
6.18,-0.19,0.09,0.23,-0.00,0.00,0.00,
6.187,-0.19,0.09,0.23,-0.00,-0.00,0.00,
6.188,-0.19,0.09,0.23,-0.00,-0.00,0.00,
6.189,-0.19,0.09,0.23,-0.00,-0.00,0.00,
6.19,-0.19,0.09,0.23,-0.00,-0.00,0.00,
6.197,-0.19,0.09,0.23,-0.00,0.00,-0.00,
6.198,-0.19,0.09,0.23,-0.00,0.00,-0.00,
6.199,-0.19,0.08,0.23,-0.00,0.00,-0.00,
6.199,-0.19,0.08,0.23,-0.00,0.00,-0.00,
6.206,-0.19,0.08,0.23,-0.00,-0.00,0.00,
6.207,-0.19,0.08,0.23,-0.00,-0.00,0.00,
6.207,-0.19,0.08,0.23,-0.00,-0.00,0.00,
6.207,-0.19,0.08,0.23,-0.00,-0.00,0.00,
6.215,-0.19,0.08,0.23,-0.00,0.00,-0.00,
6.216,-0.19,0.08,0.23,-0.00,0.00,-0.00,
6.216,-0.19,0.08,0.24,-0.00,0.00,-0.00,
6.217,-0.19,0.08,0.24,-0.00,0.00,-0.00,
6.226,-0.19,0.08,0.24,0.00,-0.00,-0.00,
6.226,-0.19,0.08,0.24,0.00,-0.00,-0.00,
6.227,-0.19,0.07,0.24,0.00,-0.00,-0.00,
6.227,-0.19,0.07,0.24,0.00,-0.00,-0.00,
6.237,-0.19,0.07,0.24,0.00,-0.00,0.00,
6.238,-0.19,0.07,0.24,0.00,-0.00,0.00,
6.238,-0.19,0.07,0.24,0.00,-0.00,0.00,
6.238,-0.19,0.07,0.24,0.00,-0.00,0.00,
6.245,-0.19,0.07,0.24,-0.00,-0.00,-0.00,
6.245,-0.19,0.07,0.24,-0.00,-0.00,-0.00,
6.246,-0.19,0.07,0.24,-0.00,-0.00,-0.00,
6.246,-0.19,0.07,0.24,-0.00,-0.00,-0.00,
6.256,-0.19,0.07,0.24,-0.00,-0.00,-0.00,
6.257,-0.19,0.07,0.24,-0.00,-0.00,-0.00,
6.257,-0.19,0.06,0.24,-0.00,-0.00,-0.00,
6.258,-0.19,0.06,0.24,-0.00,-0.00,-0.00,
6.264,-0.19,0.06,0.24,-0.00,0.00,-0.00,
6.264,-0.19,0.06,0.24,-0.00,0.00,-0.00,
6.264,-0.19,0.06,0.24,-0.00,0.00,-0.00,
6.265,-0.19,0.06,0.24,-0.00,0.00,-0.00,
6.273,-0.19,0.06,0.24,-0.00,-0.00,0.00,
6.275,-0.19,0.06,0.24,-0.00,-0.00,0.00,
6.275,-0.18,0.06,0.24,-0.00,-0.00,0.00,
6.276,-0.18,0.06,0.24,-0.00,-0.00,0.00,
6.284,-0.18,0.06,0.24,0.00,-0.00,-0.00,
6.285,-0.18,0.06,0.24,0.00,-0.00,-0.00,
6.286,-0.18,0.05,0.24,0.00,-0.00,-0.00,
6.286,-0.18,0.05,0.24,0.00,-0.00,-0.00,
6.292,-0.18,0.05,0.24,-0.00,0.00,0.00,
6.293,-0.18,0.05,0.24,-0.00,0.00,0.00,
6.294,-0.18,0.05,0.24,-0.00,0.00,0.00,
6.295,-0.18,0.05,0.24,-0.00,0.00,0.00,
6.301,-0.18,0.05,0.24,0.00,-0.00,0.00,
6.302,-0.18,0.05,0.24,0.00,-0.00,0.00,
6.303,-0.18,0.05,0.25,0.00,-0.00,0.00,
6.303,-0.18,0.05,0.25,0.00,-0.00,0.00,
6.311,-0.18,0.05,0.25,0.00,0.00,0.00,
6.312,-0.18,0.05,0.25,0.00,0.00,0.00,
6.313,-0.18,0.04,0.25,0.00,0.00,0.00,
6.314,-0.18,0.04,0.25,0.00,0.00,0.00,
6.32,-0.18,0.04,0.25,-0.00,0.00,0.00,
6.322,-0.18,0.04,0.25,-0.00,0.00,0.00,
6.323,-0.18,0.04,0.25,-0.00,0.00,0.00,
6.323,-0.18,0.04,0.25,-0.00,0.00,0.00,
6.33,-0.18,0.04,0.25,0.00,0.00,0.00,
6.33,-0.18,0.04,0.25,0.00,0.00,0.00,
6.331,-0.18,0.04,0.25,0.00,0.00,0.00,
6.331,-0.18,0.04,0.25,0.00,0.00,0.00,
6.34,-0.18,0.04,0.25,-0.00,-0.00,-0.00,
6.341,-0.18,0.04,0.25,-0.00,-0.00,-0.00,
6.342,-0.18,0.04,0.25,-0.00,-0.00,-0.00,
6.342,-0.18,0.04,0.25,-0.00,-0.00,-0.00,
6.36,-0.18,0.04,0.25,0.00,0.00,-0.00,
6.361,-0.18,0.04,0.25,0.00,0.00,-0.00,
6.361,-0.17,0.04,0.25,0.00,0.00,-0.00,
6.362,-0.17,0.04,0.25,0.00,0.00,-0.00,
6.362,-0.17,0.04,0.25,-0.00,0.00,-0.00,
6.362,-0.17,0.04,0.25,-0.00,0.00,-0.00,
6.362,-0.17,0.03,0.25,-0.00,0.00,-0.00,
6.363,-0.17,0.03,0.25,-0.00,0.00,-0.00,
6.37,-0.17,0.03,0.25,0.00,-0.00,-0.00,
6.371,-0.17,0.03,0.25,0.00,-0.00,-0.00,
6.371,-0.17,0.03,0.25,0.00,-0.00,-0.00,
6.372,-0.17,0.03,0.25,0.00,-0.00,-0.00,
6.378,-0.17,0.03,0.25,0.00,-0.00,-0.00,
6.379,-0.17,0.03,0.25,0.00,-0.00,-0.00,
6.379,-0.17,0.03,0.25,0.00,-0.00,-0.00,
6.38,-0.17,0.03,0.25,0.00,-0.00,-0.00,
6.387,-0.17,0.03,0.25,-0.00,0.00,-0.00,
6.388,-0.17,0.03,0.25,-0.00,0.00,-0.00,
6.389,-0.17,0.03,0.25,-0.00,0.00,-0.00,
6.39,-0.17,0.03,0.25,-0.00,0.00,-0.00,
6.397,-0.17,0.03,0.25,0.00,0.00,-0.00,
6.398,-0.17,0.03,0.25,0.00,0.00,-0.00,
6.399,-0.17,0.03,0.25,0.00,0.00,-0.00,
6.399,-0.17,0.03,0.25,0.00,0.00,-0.00,
6.406,-0.17,0.03,0.25,-0.00,-0.00,0.00,
6.408,-0.17,0.03,0.25,-0.00,-0.00,0.00,
6.408,-0.17,0.03,0.25,-0.00,-0.00,0.00,
6.409,-0.17,0.03,0.25,-0.00,-0.00,0.00,
6.417,-0.17,0.03,0.25,-0.00,0.00,0.00,
6.418,-0.17,0.03,0.25,-0.00,0.00,0.00,
6.419,-0.17,0.03,0.25,-0.00,0.00,0.00,
6.42,-0.17,0.03,0.25,-0.00,0.00,0.00,
6.426,-0.17,0.03,0.25,-0.00,0.00,-0.00,
6.427,-0.17,0.03,0.25,-0.00,0.00,-0.00,
6.428,-0.17,0.03,0.25,-0.00,0.00,-0.00,
6.429,-0.17,0.03,0.25,-0.00,0.00,-0.00,
6.448,-0.17,0.03,0.25,-0.00,0.00,0.00,
6.449,-0.17,0.03,0.25,-0.00,0.00,0.00,
6.449,-0.17,0.03,0.25,-0.00,0.00,0.00,
6.45,-0.17,0.03,0.25,-0.00,0.00,0.00,
6.45,-0.17,0.03,0.25,0.00,-0.00,0.00,
6.451,-0.17,0.03,0.25,0.00,-0.00,0.00,
6.452,-0.17,0.03,0.25,0.00,-0.00,0.00,
6.452,-0.17,0.03,0.25,0.00,-0.00,0.00,
6.461,-0.17,0.03,0.25,0.00,-0.00,0.00,
6.461,-0.17,0.03,0.25,0.00,-0.00,0.00,
6.462,-0.17,0.03,0.25,0.00,-0.00,0.00,
6.462,-0.17,0.03,0.25,0.00,-0.00,0.00,
6.463,-0.17,0.03,0.25,0.00,-0.00,0.00,
6.463,-0.17,0.03,0.25,0.00,-0.00,0.00,
6.463,-0.17,0.03,0.25,0.00,-0.00,0.00,
6.463,-0.17,0.03,0.25,0.00,-0.00,0.00,
6.481,-0.17,0.03,0.25,0.00,-0.00,-0.00,
6.482,-0.17,0.03,0.25,0.00,-0.00,-0.00,
6.482,-0.17,0.03,0.25,0.00,-0.00,-0.00,
6.483,-0.17,0.03,0.25,0.00,-0.00,-0.00,
6.483,-0.17,0.03,0.25,0.00,0.00,-0.00,
6.483,-0.17,0.03,0.25,0.00,0.00,-0.00,
6.483,-0.17,0.03,0.25,0.00,0.00,-0.00,
6.484,-0.17,0.03,0.25,0.00,0.00,-0.00,
6.492,-0.17,0.03,0.25,-0.00,-0.00,0.00,
6.492,-0.17,0.03,0.25,-0.00,-0.00,0.00,
6.493,-0.17,0.03,0.25,-0.00,-0.00,0.00,
6.493,-0.17,0.03,0.25,-0.00,-0.00,0.00,
6.501,-0.17,0.03,0.25,0.00,0.00,0.00,
6.502,-0.17,0.03,0.25,0.00,0.00,0.00,
6.503,-0.17,0.03,0.25,0.00,0.00,0.00,
6.503,-0.17,0.03,0.25,0.00,0.00,0.00,
6.511,-0.17,0.03,0.25,-0.00,0.00,-0.00,
6.512,-0.17,0.03,0.25,-0.00,0.00,-0.00,
6.513,-0.17,0.03,0.25,-0.00,0.00,-0.00,
6.513,-0.17,0.03,0.25,-0.00,0.00,-0.00,
6.52,-0.17,0.03,0.25,-0.00,0.00,0.00,
6.521,-0.17,0.03,0.25,-0.00,0.00,0.00,
6.522,-0.17,0.03,0.25,-0.00,0.00,0.00,
6.523,-0.17,0.03,0.25,-0.00,0.00,0.00,
6.53,-0.17,0.03,0.25,-0.00,0.00,0.00,
6.531,-0.17,0.03,0.25,-0.00,0.00,0.00,
6.531,-0.17,0.03,0.25,-0.00,0.00,0.00,
6.532,-0.17,0.03,0.25,-0.00,0.00,0.00,
6.54,-0.17,0.03,0.25,-0.00,0.00,0.00,
6.541,-0.17,0.03,0.25,-0.00,0.00,0.00,
6.542,-0.17,0.03,0.25,-0.00,0.00,0.00,
6.542,-0.17,0.03,0.25,-0.00,0.00,0.00,
6.557,-0.17,0.03,0.25,0.00,-0.00,-0.00,
6.557,-0.17,0.03,0.25,0.00,-0.00,-0.00,
6.558,-0.17,0.03,0.25,0.00,-0.00,-0.00,
6.558,-0.17,0.03,0.25,0.00,-0.00,-0.00,
6.559,-0.17,0.03,0.25,-0.00,0.00,-0.00,
6.559,-0.17,0.03,0.25,-0.00,0.00,-0.00,
6.56,-0.17,0.03,0.25,-0.00,0.00,-0.00,
6.56,-0.17,0.03,0.25,-0.00,0.00,-0.00,
6.568,-0.17,0.03,0.25,0.00,-0.00,-0.00,
6.569,-0.17,0.03,0.25,0.00,-0.00,-0.00,
6.569,-0.17,0.03,0.25,0.00,-0.00,-0.00,
6.57,-0.17,0.03,0.25,0.00,-0.00,-0.00,
6.578,-0.17,0.03,0.25,0.00,-0.00,-0.00,
6.579,-0.17,0.03,0.25,0.00,-0.00,-0.00,
6.579,-0.17,0.03,0.25,0.00,-0.00,-0.00,
6.58,-0.17,0.03,0.25,0.00,-0.00,-0.00,
6.587,-0.17,0.03,0.25,-0.00,-0.00,-0.00,
6.588,-0.17,0.03,0.25,-0.00,-0.00,-0.00,
6.589,-0.17,0.03,0.25,-0.00,-0.00,-0.00,
6.59,-0.17,0.03,0.25,-0.00,-0.00,-0.00,
6.597,-0.17,0.03,0.25,0.00,0.00,0.00,
6.597,-0.17,0.03,0.25,0.00,0.00,0.00,
6.598,-0.17,0.03,0.25,0.00,0.00,0.00,
6.599,-0.17,0.03,0.25,0.00,0.00,0.00,
6.606,-0.17,0.03,0.25,-0.00,0.00,0.00,
6.608,-0.17,0.03,0.25,-0.00,0.00,0.00,
6.609,-0.17,0.03,0.25,-0.00,0.00,0.00,
6.609,-0.17,0.03,0.25,-0.00,0.00,0.00,
6.617,-0.17,0.03,0.25,-0.00,-0.00,-0.00,
6.619,-0.17,0.03,0.25,-0.00,-0.00,-0.00,
6.619,-0.17,0.03,0.25,-0.00,-0.00,-0.00,
6.62,-0.17,0.03,0.25,-0.00,-0.00,-0.00,
6.625,-0.17,0.03,0.25,0.00,-0.00,-0.00,
6.626,-0.17,0.03,0.25,0.00,-0.00,-0.00,
6.627,-0.17,0.03,0.25,0.00,-0.00,-0.00,
6.628,-0.17,0.03,0.25,0.00,-0.00,-0.00,
6.634,-0.17,0.03,0.25,0.00,-0.00,-0.00,
6.635,-0.17,0.03,0.25,0.00,-0.00,-0.00,
6.635,-0.17,0.03,0.25,0.00,-0.00,-0.00,
6.636,-0.17,0.03,0.25,0.00,-0.00,-0.00,
6.645,-0.17,0.03,0.25,0.00,-0.00,0.00,
6.647,-0.17,0.03,0.25,0.00,-0.00,0.00,
6.648,-0.17,0.03,0.25,0.00,-0.00,0.00,
6.649,-0.17,0.03,0.25,0.00,-0.00,0.00,
6.661,-0.17,0.03,0.25,-0.00,-0.00,0.00,
6.662,-0.17,0.03,0.25,-0.00,-0.00,0.00,
6.662,-0.17,0.03,0.25,-0.00,-0.00,0.00,
6.663,-0.17,0.03,0.25,-0.00,-0.00,0.00,
6.667,-0.17,0.03,0.25,0.00,-0.00,0.00,
6.668,-0.17,0.03,0.25,0.00,-0.00,0.00,
6.668,-0.17,0.03,0.25,0.00,-0.00,0.00,
6.669,-0.17,0.03,0.25,0.00,-0.00,0.00,
6.673,-0.17,0.03,0.25,0.00,0.00,-0.00,
6.674,-0.17,0.03,0.25,0.00,0.00,-0.00,
6.674,-0.17,0.03,0.25,0.00,0.00,-0.00,
6.674,-0.17,0.03,0.25,0.00,0.00,-0.00,
6.682,-0.17,0.03,0.25,0.00,0.00,-0.00,
6.683,-0.17,0.03,0.25,0.00,0.00,-0.00,
6.684,-0.17,0.03,0.25,0.00,0.00,-0.00,
6.684,-0.17,0.03,0.25,0.00,0.00,-0.00,
6.692,-0.17,0.03,0.25,-0.00,0.00,0.00,
6.693,-0.17,0.03,0.25,-0.00,0.00,0.00,
6.693,-0.17,0.03,0.25,-0.00,0.00,0.00,
6.695,-0.17,0.03,0.25,-0.00,0.00,0.00,
6.701,-0.17,0.03,0.25,0.00,-0.00,-0.00,
6.702,-0.17,0.03,0.25,0.00,-0.00,-0.00,
6.702,-0.17,0.03,0.25,0.00,-0.00,-0.00,
6.702,-0.17,0.03,0.25,0.00,-0.00,-0.00,
6.71,-0.17,0.03,0.25,0.00,-0.00,0.00,
6.711,-0.17,0.03,0.25,0.00,-0.00,0.00,
6.712,-0.17,0.03,0.25,0.00,-0.00,0.00,
6.712,-0.17,0.03,0.25,0.00,-0.00,0.00,
6.72,-0.17,0.03,0.25,0.00,-0.00,-0.00,
6.721,-0.17,0.03,0.25,0.00,-0.00,-0.00,
6.722,-0.17,0.03,0.25,0.00,-0.00,-0.00,
6.722,-0.17,0.03,0.25,0.00,-0.00,-0.00,
6.73,-0.17,0.03,0.25,-0.00,-0.00,0.00,
6.731,-0.17,0.03,0.25,-0.00,-0.00,0.00,
6.732,-0.17,0.03,0.25,-0.00,-0.00,0.00,
6.732,-0.17,0.03,0.25,-0.00,-0.00,0.00,
6.742,-0.17,0.03,0.25,0.00,0.00,0.00,
6.743,-0.17,0.03,0.25,0.00,0.00,0.00,
6.744,-0.17,0.03,0.25,0.00,0.00,0.00,
6.744,-0.17,0.03,0.25,0.00,0.00,0.00,
6.757,-0.17,0.03,0.25,-0.00,-0.00,-0.00,
6.758,-0.17,0.03,0.25,-0.00,-0.00,-0.00,
6.758,-0.17,0.03,0.25,-0.00,-0.00,-0.00,
6.759,-0.17,0.03,0.25,-0.00,-0.00,-0.00,
6.759,-0.17,0.03,0.25,0.00,-0.00,-0.00,
6.759,-0.17,0.03,0.25,0.00,-0.00,-0.00,
6.759,0.15,-0.19,0.42,0.00,-0.00,-0.00,
6.759,0.15,-0.19,0.42,0.00,-0.00,-0.00,
6.768,0.15,-0.19,0.42,-0.00,-0.00,-0.00,
6.769,0.15,-0.19,0.42,-0.00,-0.00,-0.00,
6.769,0.22,-0.23,0.32,-0.00,-0.00,-0.00,
6.77,0.22,-0.23,0.32,-0.00,-0.00,-0.00,
6.777,0.22,-0.23,0.32,-0.00,-0.00,-0.00,
6.778,0.22,-0.23,0.32,-0.00,-0.00,-0.00,
6.779,0.22,-0.23,0.32,-0.00,-0.00,-0.00,
6.779,0.22,-0.23,0.32,-0.00,-0.00,-0.00,
6.787,0.22,-0.23,0.32,-0.00,0.00,-0.00,
6.789,0.22,-0.23,0.32,-0.00,0.00,-0.00,
6.789,0.09,-0.19,0.17,-0.00,0.00,-0.00,
6.79,0.09,-0.19,0.17,-0.00,0.00,-0.00,
6.797,0.09,-0.19,0.17,-0.00,0.00,0.00,
6.798,0.09,-0.19,0.17,-0.00,0.00,0.00,
6.799,-0.01,-0.17,0.23,-0.00,0.00,0.00,
6.8,-0.01,-0.17,0.23,-0.00,0.00,0.00,
6.806,-0.01,-0.17,0.23,-0.00,-0.00,-0.00,
6.807,-0.01,-0.17,0.23,-0.00,-0.00,-0.00,
6.808,-0.07,-0.18,0.35,-0.00,-0.00,-0.00,
6.809,-0.07,-0.18,0.35,-0.00,-0.00,-0.00,
6.817,-0.07,-0.18,0.35,-0.00,-0.00,-0.00,
6.817,-0.07,-0.18,0.35,-0.00,-0.00,-0.00,
6.818,-0.03,-0.19,0.48,-0.00,-0.00,-0.00,
6.818,-0.03,-0.19,0.48,-0.00,-0.00,-0.00,
6.825,-0.03,-0.19,0.48,0.00,0.00,0.00,
6.826,-0.03,-0.19,0.48,0.00,0.00,0.00,
6.827,0.06,-0.22,0.54,0.00,0.00,0.00,
6.827,0.06,-0.22,0.54,0.00,0.00,0.00,
6.834,0.06,-0.22,0.54,0.00,-0.00,-0.00,
6.835,0.06,-0.22,0.54,0.00,-0.00,-0.00,
6.836,0.17,-0.26,0.52,0.00,-0.00,-0.00,
6.836,0.17,-0.26,0.52,0.00,-0.00,-0.00,
6.844,0.17,-0.26,0.52,0.00,-0.00,0.00,
6.845,0.17,-0.26,0.52,0.00,-0.00,0.00,
6.846,0.26,-0.30,0.48,0.00,-0.00,0.00,
6.846,0.26,-0.30,0.48,0.00,-0.00,0.00,
6.855,0.26,-0.30,0.48,0.00,-0.00,-0.00,
6.857,0.26,-0.30,0.48,0.00,-0.00,-0.00,
6.857,0.29,-0.35,0.43,0.00,-0.00,-0.00,
6.858,0.29,-0.35,0.43,0.00,-0.00,-0.00,
6.863,0.29,-0.35,0.43,0.19,0.25,0.08,
6.864,0.29,-0.35,0.43,0.19,0.25,0.08,
6.865,0.21,-0.38,0.36,0.19,0.25,0.08,
6.865,0.21,-0.38,0.36,0.19,0.25,0.08,
6.873,0.21,-0.38,0.36,0.21,0.27,0.06,
6.874,0.21,-0.38,0.36,0.21,0.27,0.06,
6.875,0.10,-0.41,0.31,0.21,0.27,0.06,
6.875,0.10,-0.41,0.31,0.21,0.27,0.06,
6.883,0.10,-0.41,0.31,0.23,0.27,0.06,
6.884,0.10,-0.41,0.31,0.23,0.27,0.06,
6.885,-0.03,-0.42,0.25,0.23,0.27,0.06,
6.885,-0.03,-0.42,0.25,0.23,0.27,0.06,
6.893,-0.03,-0.42,0.25,0.24,0.24,0.07,
6.894,-0.03,-0.42,0.25,0.24,0.24,0.07,
6.894,-0.17,-0.39,0.23,0.24,0.24,0.07,
6.895,-0.17,-0.39,0.23,0.24,0.24,0.07,
6.902,-0.17,-0.39,0.23,0.23,0.17,0.09,
6.903,-0.17,-0.39,0.23,0.23,0.17,0.09,
6.904,-0.25,-0.33,0.28,0.23,0.17,0.09,
6.904,-0.25,-0.33,0.28,0.23,0.17,0.09,
6.911,-0.25,-0.33,0.28,0.21,0.08,0.12,
6.911,-0.25,-0.33,0.28,0.21,0.08,0.12,
6.912,-0.28,-0.23,0.39,0.21,0.08,0.12,
6.912,-0.28,-0.23,0.39,0.21,0.08,0.12,
6.92,-0.28,-0.23,0.39,0.17,-0.02,0.15,
6.921,-0.28,-0.23,0.39,0.17,-0.02,0.15,
6.921,-0.23,-0.19,0.52,0.17,-0.02,0.15,
6.921,-0.23,-0.19,0.52,0.17,-0.02,0.15,
6.93,-0.23,-0.19,0.52,0.12,-0.09,0.16,
6.93,-0.23,-0.19,0.52,0.12,-0.09,0.16,
6.931,-0.13,-0.21,0.59,0.12,-0.09,0.16,
6.931,-0.13,-0.21,0.59,0.12,-0.09,0.16,
6.939,-0.13,-0.21,0.59,0.08,-0.12,0.14,
6.94,-0.13,-0.21,0.59,0.08,-0.12,0.14,
6.94,-0.00,-0.26,0.58,0.08,-0.12,0.14,
6.941,-0.00,-0.26,0.58,0.08,-0.12,0.14,
6.951,-0.00,-0.26,0.58,0.06,-0.11,0.11,
6.952,-0.00,-0.26,0.58,0.06,-0.11,0.11,
6.952,0.12,-0.36,0.49,0.06,-0.11,0.11,
6.952,0.12,-0.36,0.49,0.06,-0.11,0.11,
6.959,0.12,-0.36,0.49,0.06,-0.07,0.07,
6.959,0.12,-0.36,0.49,0.06,-0.07,0.07,
6.96,0.18,-0.39,0.32,0.06,-0.07,0.07,
6.96,0.18,-0.39,0.32,0.06,-0.07,0.07,
6.968,0.18,-0.39,0.32,0.06,-0.07,0.07,
6.968,0.18,-0.39,0.32,0.06,-0.07,0.07,
6.969,0.18,-0.39,0.32,0.06,-0.07,0.07,
6.969,0.18,-0.39,0.32,0.06,-0.07,0.07,
6.978,0.18,-0.39,0.32,0.07,-0.01,0.03,
6.979,0.18,-0.39,0.32,0.07,-0.01,0.03,
6.979,0.16,-0.33,0.08,0.07,-0.01,0.03,
6.98,0.16,-0.33,0.08,0.07,-0.01,0.03,
6.987,0.16,-0.33,0.08,0.10,0.04,0.01,
6.989,0.16,-0.33,0.08,0.10,0.04,0.01,
6.989,0.09,-0.22,0.07,0.10,0.04,0.01,
6.99,0.09,-0.22,0.07,0.10,0.04,0.01,
6.998,0.09,-0.22,0.07,0.09,0.05,0.00,
6.999,0.09,-0.22,0.07,0.09,0.05,0.00,
6.999,-0.01,-0.09,0.17,0.09,0.05,0.00,
7.0,-0.01,-0.09,0.17,0.09,0.05,0.00,
7.006,-0.01,-0.09,0.17,0.07,0.03,0.00,
7.008,-0.01,-0.09,0.17,0.07,0.03,0.00,
7.009,-0.07,0.06,0.35,0.07,0.03,0.00,
7.009,-0.07,0.06,0.35,0.07,0.03,0.00,
7.016,-0.07,0.06,0.35,0.02,0.00,-0.00,
7.018,-0.07,0.06,0.35,0.02,0.00,-0.00,
7.018,-0.09,0.19,0.55,0.02,0.00,-0.00,
7.019,-0.09,0.19,0.55,0.02,0.00,-0.00,
7.025,-0.09,0.19,0.55,-0.04,-0.02,-0.03,
7.026,-0.09,0.19,0.55,-0.04,-0.02,-0.03,
7.027,-0.09,0.32,0.70,-0.04,-0.02,-0.03,
7.027,-0.09,0.32,0.70,-0.04,-0.02,-0.03,
7.035,-0.09,0.32,0.70,-0.10,-0.02,-0.09,
7.036,-0.09,0.32,0.70,-0.10,-0.02,-0.09,
7.036,-0.06,0.43,0.78,-0.10,-0.02,-0.09,
7.037,-0.06,0.43,0.78,-0.10,-0.02,-0.09,
7.044,-0.06,0.43,0.78,-0.15,0.01,-0.16,
7.046,-0.06,0.43,0.78,-0.15,0.01,-0.16,
7.047,-0.04,0.53,0.82,-0.15,0.01,-0.16,
7.048,-0.04,0.53,0.82,-0.15,0.01,-0.16,
7.06,-0.04,0.53,0.82,-0.21,0.06,-0.24,
7.061,-0.04,0.53,0.82,-0.21,0.06,-0.24,
7.061,-0.05,0.63,0.81,-0.21,0.06,-0.24,
7.061,-0.05,0.63,0.81,-0.21,0.06,-0.24,
7.063,-0.05,0.63,0.81,-0.25,0.12,-0.31,
7.063,-0.05,0.63,0.81,-0.25,0.12,-0.31,
7.063,-0.06,0.69,0.77,-0.25,0.12,-0.31,
7.064,-0.06,0.69,0.77,-0.25,0.12,-0.31,
7.084,-0.06,0.69,0.77,-0.29,0.17,-0.39,
7.085,-0.06,0.69,0.77,-0.29,0.17,-0.39,
7.085,-0.06,0.69,0.73,-0.29,0.17,-0.39,
7.085,-0.06,0.69,0.73,-0.29,0.17,-0.39,
7.086,-0.06,0.69,0.73,-0.32,0.19,-0.45,
7.086,-0.06,0.69,0.73,-0.32,0.19,-0.45,
7.086,-0.04,0.69,0.68,-0.32,0.19,-0.45,
7.087,-0.04,0.69,0.68,-0.32,0.19,-0.45,
7.092,-0.04,0.69,0.68,-0.35,0.20,-0.49,
7.092,-0.04,0.69,0.68,-0.35,0.20,-0.49,
7.093,0.00,0.67,0.63,-0.35,0.20,-0.49,
7.093,0.00,0.67,0.63,-0.35,0.20,-0.49,
7.101,0.00,0.67,0.63,-0.36,0.20,-0.50,
7.101,0.00,0.67,0.63,-0.36,0.20,-0.50,
7.102,0.07,0.68,0.61,-0.36,0.20,-0.50,
7.102,0.07,0.68,0.61,-0.36,0.20,-0.50,
7.111,0.07,0.68,0.61,-0.35,0.19,-0.49,
7.112,0.07,0.68,0.61,-0.35,0.19,-0.49,
7.112,0.15,0.71,0.60,-0.35,0.19,-0.49,
7.113,0.15,0.71,0.60,-0.35,0.19,-0.49,
7.119,0.15,0.71,0.60,-0.32,0.18,-0.47,
7.12,0.15,0.71,0.60,-0.32,0.18,-0.47,
7.121,0.23,0.73,0.59,-0.32,0.18,-0.47,
7.121,0.23,0.73,0.59,-0.32,0.18,-0.47,
7.13,0.23,0.73,0.59,-0.29,0.19,-0.45,
7.13,0.23,0.73,0.59,-0.29,0.19,-0.45,
7.131,0.28,0.73,0.61,-0.29,0.19,-0.45,
7.132,0.28,0.73,0.61,-0.29,0.19,-0.45,
7.147,0.28,0.73,0.61,-0.25,0.20,-0.43,
7.148,0.28,0.73,0.61,-0.25,0.20,-0.43,
7.149,0.30,0.71,0.59,-0.25,0.20,-0.43,
7.149,0.30,0.71,0.59,-0.25,0.20,-0.43,
7.15,0.30,0.71,0.59,-0.21,0.23,-0.42,
7.15,0.30,0.71,0.59,-0.21,0.23,-0.42,
