
time,ax,ay,az,wx,wy,wz,
0.007,0.12,0.13,0.70,-0.04,-0.08,-0.02,
0.008,0.12,0.13,0.70,-0.04,-0.08,-0.02,
0.008,-0.01,0.09,0.54,-0.04,-0.08,-0.02,
0.008,-0.01,0.09,0.54,-0.04,-0.08,-0.02,
0.015,-0.01,0.09,0.54,-0.10,-0.18,-0.07,
0.015,-0.01,0.09,0.54,-0.10,-0.18,-0.07,
0.015,-0.11,0.02,0.38,-0.10,-0.18,-0.07,
0.016,-0.11,0.02,0.38,-0.10,-0.18,-0.07,
0.021,-0.11,0.02,0.38,-0.14,-0.22,-0.09,
0.022,-0.11,0.02,0.38,-0.14,-0.22,-0.09,
0.022,-0.15,-0.04,0.27,-0.14,-0.22,-0.09,
0.023,-0.15,-0.04,0.27,-0.14,-0.22,-0.09,
0.031,-0.15,-0.04,0.27,-0.15,-0.20,-0.08,
0.032,-0.15,-0.04,0.27,-0.15,-0.20,-0.08,
0.032,-0.15,-0.05,0.14,-0.15,-0.20,-0.08,
0.032,-0.15,-0.05,0.14,-0.15,-0.20,-0.08,
0.041,-0.15,-0.05,0.14,-0.14,-0.13,-0.05,
0.042,-0.15,-0.05,0.14,-0.14,-0.13,-0.05,
0.043,-0.09,-0.01,0.04,-0.14,-0.13,-0.05,
0.043,-0.09,-0.01,0.04,-0.14,-0.13,-0.05,
0.054,-0.09,-0.01,0.04,-0.13,-0.06,-0.00,
0.055,-0.09,-0.01,0.04,-0.13,-0.06,-0.00,
0.055,-0.01,0.02,-0.01,-0.13,-0.06,-0.00,
0.056,-0.01,0.02,-0.01,-0.13,-0.06,-0.00,
0.06,-0.01,0.02,-0.01,-0.11,-0.01,0.03,
0.061,-0.01,0.02,-0.01,-0.11,-0.01,0.03,
0.062,0.02,0.04,-0.04,-0.11,-0.01,0.03,
0.063,0.02,0.04,-0.04,-0.11,-0.01,0.03,
0.076,0.02,0.04,-0.04,-0.07,0.01,0.04,
0.076,0.02,0.04,-0.04,-0.07,0.01,0.04,
0.077,0.03,0.05,-0.02,-0.07,0.01,0.04,
0.077,0.03,0.05,-0.02,-0.07,0.01,0.04,
0.078,0.03,0.05,-0.02,-0.03,-0.01,0.03,
0.078,0.03,0.05,-0.02,-0.03,-0.01,0.03,
0.079,0.02,0.04,-0.00,-0.03,-0.01,0.03,
0.079,0.02,0.04,-0.00,-0.03,-0.01,0.03,
0.088,0.02,0.04,-0.00,0.01,-0.03,0.01,
0.089,0.02,0.04,-0.00,0.01,-0.03,0.01,
0.089,-0.01,0.03,0.07,0.01,-0.03,0.01,
0.089,-0.01,0.03,0.07,0.01,-0.03,0.01,
0.097,-0.01,0.03,0.07,0.04,-0.06,-0.01,
0.098,-0.01,0.03,0.07,0.04,-0.06,-0.01,
0.099,-0.01,0.05,0.18,0.04,-0.06,-0.01,
0.099,-0.01,0.05,0.18,0.04,-0.06,-0.01,
0.108,-0.01,0.05,0.18,0.05,-0.06,-0.01,
0.108,-0.01,0.05,0.18,0.05,-0.06,-0.01,
0.109,-0.02,0.07,0.30,0.05,-0.06,-0.01,
0.109,-0.02,0.07,0.30,0.05,-0.06,-0.01,
0.118,-0.02,0.07,0.30,0.05,-0.06,-0.01,
0.119,-0.02,0.07,0.30,0.05,-0.06,-0.01,
0.119,-0.02,0.07,0.30,0.05,-0.06,-0.01,
0.12,-0.02,0.07,0.30,0.05,-0.06,-0.01,
0.126,-0.02,0.07,0.30,0.05,-0.05,-0.01,
0.126,-0.02,0.07,0.30,0.05,-0.05,-0.01,
0.127,-0.06,0.09,0.41,0.05,-0.05,-0.01,
0.127,-0.06,0.09,0.41,0.05,-0.05,-0.01,
0.135,-0.06,0.09,0.41,0.03,-0.04,-0.00,
0.136,-0.06,0.09,0.41,0.03,-0.04,-0.00,
0.136,-0.08,0.07,0.34,0.03,-0.04,-0.00,
0.137,-0.08,0.07,0.34,0.03,-0.04,-0.00,
0.147,-0.08,0.07,0.34,0.01,-0.02,0.01,
0.147,-0.08,0.07,0.34,0.01,-0.02,0.01,
0.148,-0.07,0.05,0.25,0.01,-0.02,0.01,
0.148,-0.07,0.05,0.25,0.01,-0.02,0.01,
0.154,-0.07,0.05,0.25,-0.01,-0.00,0.01,
0.155,-0.07,0.05,0.25,-0.01,-0.00,0.01,
0.155,-0.05,0.01,0.14,-0.01,-0.00,0.01,
0.156,-0.05,0.01,0.14,-0.01,-0.00,0.01,
0.164,-0.05,0.01,0.14,-0.03,0.02,0.01,
0.165,-0.05,0.01,0.14,-0.03,0.02,0.01,
0.165,-0.02,0.02,0.09,-0.03,0.02,0.01,
0.166,-0.02,0.02,0.09,-0.03,0.02,0.01,
0.173,-0.02,0.02,0.09,-0.03,0.04,0.01,
0.174,-0.02,0.02,0.09,-0.03,0.04,0.01,
0.174,-0.01,0.03,0.09,-0.03,0.04,0.01,
0.175,-0.01,0.03,0.09,-0.03,0.04,0.01,
0.184,-0.01,0.03,0.09,-0.03,0.04,0.02,
0.185,-0.01,0.03,0.09,-0.03,0.04,0.02,
0.185,0.00,-0.00,0.10,-0.03,0.04,0.02,
0.185,0.00,-0.00,0.10,-0.03,0.04,0.02,
0.192,0.00,-0.00,0.10,-0.02,0.04,0.03,
0.193,0.00,-0.00,0.10,-0.02,0.04,0.03,
0.193,0.03,-0.00,0.14,-0.02,0.04,0.03,
0.194,0.03,-0.00,0.14,-0.02,0.04,0.03,
0.203,0.03,-0.00,0.14,-0.01,0.04,0.04,
0.203,0.03,-0.00,0.14,-0.01,0.04,0.04,
0.204,0.05,-0.01,0.17,-0.01,0.04,0.04,
0.204,0.05,-0.01,0.17,-0.01,0.04,0.04,
0.211,0.05,-0.01,0.17,-0.01,0.02,0.02,
0.212,0.05,-0.01,0.17,-0.01,0.02,0.02,
0.212,0.08,0.00,0.20,-0.01,0.02,0.02,
0.212,0.08,0.00,0.20,-0.01,0.02,0.02,
0.221,0.08,0.00,0.20,-0.02,-0.01,-0.01,
0.221,0.08,0.00,0.20,-0.02,-0.01,-0.01,
0.222,0.11,0.05,0.26,-0.02,-0.01,-0.01,
0.222,0.11,0.05,0.26,-0.02,-0.01,-0.01,
0.23,0.11,0.05,0.26,-0.02,-0.04,-0.04,
0.231,0.11,0.05,0.26,-0.02,-0.04,-0.04,
0.232,0.15,0.07,0.31,-0.02,-0.04,-0.04,
0.232,0.15,0.07,0.31,-0.02,-0.04,-0.04,
0.239,0.15,0.07,0.31,-0.03,-0.08,-0.06,
0.24,0.15,0.07,0.31,-0.03,-0.08,-0.06,
0.241,0.16,0.08,0.34,-0.03,-0.08,-0.06,
0.241,0.16,0.08,0.34,-0.03,-0.08,-0.06,
0.25,0.16,0.08,0.34,-0.03,-0.10,-0.06,
0.251,0.16,0.08,0.34,-0.03,-0.10,-0.06,
0.252,0.19,0.10,0.36,-0.03,-0.10,-0.06,
0.253,0.19,0.10,0.36,-0.03,-0.10,-0.06,
0.258,0.19,0.10,0.36,-0.03,-0.12,-0.04,
0.259,0.19,0.10,0.36,-0.03,-0.12,-0.04,
0.26,0.19,0.08,0.35,-0.03,-0.12,-0.04,
0.26,0.19,0.08,0.35,-0.03,-0.12,-0.04,
0.27,0.19,0.08,0.35,-0.03,-0.13,-0.02,
0.271,0.19,0.08,0.35,-0.03,-0.13,-0.02,
0.272,0.18,0.09,0.34,-0.03,-0.13,-0.02,
0.272,0.18,0.09,0.34,-0.03,-0.13,-0.02,
0.278,0.18,0.09,0.34,-0.03,-0.15,-0.01,
0.279,0.18,0.09,0.34,-0.03,-0.15,-0.01,
0.28,0.17,0.12,0.33,-0.03,-0.15,-0.01,
0.28,0.17,0.12,0.33,-0.03,-0.15,-0.01,
0.288,0.17,0.12,0.33,-0.02,-0.15,-0.02,
0.289,0.17,0.12,0.33,-0.02,-0.15,-0.02,
0.289,0.14,0.13,0.27,-0.02,-0.15,-0.02,
0.29,0.14,0.13,0.27,-0.02,-0.15,-0.02,
0.298,0.14,0.13,0.27,-0.02,-0.15,-0.01,
0.299,0.14,0.13,0.27,-0.02,-0.15,-0.01,
0.3,0.12,0.18,0.20,-0.02,-0.15,-0.01,
0.3,0.12,0.18,0.20,-0.02,-0.15,-0.01,
0.308,0.12,0.18,0.20,-0.02,-0.15,-0.01,
0.308,0.12,0.18,0.20,-0.02,-0.15,-0.01,
0.309,0.12,0.18,0.20,-0.02,-0.15,-0.01,
0.309,0.12,0.18,0.20,-0.02,-0.15,-0.01,
0.317,0.12,0.18,0.20,-0.01,-0.13,-0.01,
0.318,0.12,0.18,0.20,-0.01,-0.13,-0.01,
0.319,0.07,0.19,0.07,-0.01,-0.13,-0.01,
0.319,0.07,0.19,0.07,-0.01,-0.13,-0.01,
0.326,0.07,0.19,0.07,0.00,-0.10,-0.01,
0.327,0.07,0.19,0.07,0.00,-0.10,-0.01,
0.328,0.07,0.20,0.06,0.00,-0.10,-0.01,
0.329,0.07,0.20,0.06,0.00,-0.10,-0.01,
0.336,0.07,0.20,0.06,0.04,-0.07,-0.00,
0.337,0.07,0.20,0.06,0.04,-0.07,-0.00,
0.337,0.07,0.17,0.08,0.04,-0.07,-0.00,
0.338,0.07,0.17,0.08,0.04,-0.07,-0.00,
0.345,0.07,0.17,0.08,0.07,-0.04,0.01,
0.346,0.07,0.17,0.08,0.07,-0.04,0.01,
0.346,0.06,0.12,0.11,0.07,-0.04,0.01,
0.347,0.06,0.12,0.11,0.07,-0.04,0.01,
0.354,0.06,0.12,0.11,0.10,-0.01,0.01,
0.355,0.06,0.12,0.11,0.10,-0.01,0.01,
0.355,0.04,0.07,0.14,0.10,-0.01,0.01,
0.356,0.04,0.07,0.14,0.10,-0.01,0.01,
0.371,0.04,0.07,0.14,0.10,0.01,0.01,
0.372,0.04,0.07,0.14,0.10,0.01,0.01,
0.373,0.01,0.01,0.16,0.10,0.01,0.01,
0.373,0.01,0.01,0.16,0.10,0.01,0.01,
0.374,0.01,0.01,0.16,0.09,0.03,0.01,
0.375,0.01,0.01,0.16,0.09,0.03,0.01,
0.375,-0.02,-0.03,0.18,0.09,0.03,0.01,
0.376,-0.02,-0.03,0.18,0.09,0.03,0.01,
0.383,-0.02,-0.03,0.18,0.05,0.05,0.01,
0.384,-0.02,-0.03,0.18,0.05,0.05,0.01,
0.385,-0.06,-0.08,0.19,0.05,0.05,0.01,
0.385,-0.06,-0.08,0.19,0.05,0.05,0.01,
0.392,-0.06,-0.08,0.19,0.01,0.07,0.01,
0.393,-0.06,-0.08,0.19,0.01,0.07,0.01,
0.393,-0.07,-0.09,0.19,0.01,0.07,0.01,
0.393,-0.07,-0.09,0.19,0.01,0.07,0.01,
0.402,-0.07,-0.09,0.19,-0.04,0.08,0.01,
0.403,-0.07,-0.09,0.19,-0.04,0.08,0.01,
0.403,-0.08,-0.10,0.14,-0.04,0.08,0.01,
0.404,-0.08,-0.10,0.14,-0.04,0.08,0.01,
0.412,-0.08,-0.10,0.14,-0.08,0.10,-0.01,
0.412,-0.08,-0.10,0.14,-0.08,0.10,-0.01,
0.413,-0.09,-0.11,0.06,-0.08,0.10,-0.01,
0.413,-0.09,-0.11,0.06,-0.08,0.10,-0.01,
0.421,-0.09,-0.11,0.06,-0.11,0.11,-0.02,
0.421,-0.09,-0.11,0.06,-0.11,0.11,-0.02,
0.422,-0.08,-0.08,-0.02,-0.11,0.11,-0.02,
0.422,-0.08,-0.08,-0.02,-0.11,0.11,-0.02,
0.43,-0.08,-0.08,-0.02,-0.12,0.12,-0.02,
0.431,-0.08,-0.08,-0.02,-0.12,0.12,-0.02,
0.431,-0.10,-0.06,-0.10,-0.12,0.12,-0.02,
0.432,-0.10,-0.06,-0.10,-0.12,0.12,-0.02,
0.44,-0.10,-0.06,-0.10,-0.12,0.13,-0.01,
0.44,-0.10,-0.06,-0.10,-0.12,0.13,-0.01,
0.441,-0.12,-0.06,-0.13,-0.12,0.13,-0.01,
0.442,-0.12,-0.06,-0.13,-0.12,0.13,-0.01,
0.449,-0.12,-0.06,-0.13,-0.09,0.13,-0.00,
0.45,-0.12,-0.06,-0.13,-0.09,0.13,-0.00,
0.45,-0.12,-0.06,-0.15,-0.09,0.13,-0.00,
0.451,-0.12,-0.06,-0.15,-0.09,0.13,-0.00,
0.465,-0.12,-0.06,-0.15,-0.06,0.13,0.01,
0.466,-0.12,-0.06,-0.15,-0.06,0.13,0.01,
0.467,-0.14,-0.09,-0.13,-0.06,0.13,0.01,
0.467,-0.14,-0.09,-0.13,-0.06,0.13,0.01,
0.468,-0.14,-0.09,-0.13,-0.03,0.13,0.00,
0.468,-0.14,-0.09,-0.13,-0.03,0.13,0.00,
0.469,-0.14,-0.13,-0.09,-0.03,0.13,0.00,
0.469,-0.14,-0.13,-0.09,-0.03,0.13,0.00,
0.48,-0.14,-0.13,-0.09,-0.02,0.12,0.00,
0.481,-0.14,-0.13,-0.09,-0.02,0.12,0.00,
0.482,-0.11,-0.16,-0.05,-0.02,0.12,0.00,
0.482,-0.11,-0.16,-0.05,-0.02,0.12,0.00,
0.487,-0.11,-0.16,-0.05,-0.01,0.12,0.00,
0.488,-0.11,-0.16,-0.05,-0.01,0.12,0.00,
0.489,-0.02,-0.17,-0.05,-0.01,0.12,0.00,
0.489,-0.02,-0.17,-0.05,-0.01,0.12,0.00,
0.497,-0.02,-0.17,-0.05,-0.03,0.11,0.01,
0.498,-0.02,-0.17,-0.05,-0.03,0.11,0.01,
0.499,0.11,-0.15,-0.06,-0.03,0.11,0.01,
0.499,0.11,-0.15,-0.06,-0.03,0.11,0.01,
0.507,0.11,-0.15,-0.06,-0.03,0.11,0.01,
0.508,0.11,-0.15,-0.06,-0.03,0.11,0.01,
0.508,0.11,-0.15,-0.06,-0.03,0.11,0.01,
0.509,0.11,-0.15,-0.06,-0.03,0.11,0.01,
0.516,0.11,-0.15,-0.06,-0.04,0.08,0.01,
0.519,0.11,-0.15,-0.06,-0.04,0.08,0.01,
0.52,0.47,-0.06,-0.03,-0.04,0.08,0.01,
0.521,0.47,-0.06,-0.03,-0.04,0.08,0.01,
0.528,0.47,-0.06,-0.03,-0.05,0.01,0.01,
0.529,0.47,-0.06,-0.03,-0.05,0.01,0.01,
0.529,0.66,0.00,-0.03,-0.05,0.01,0.01,
0.529,0.66,0.00,-0.03,-0.05,0.01,0.01,
0.535,0.66,0.00,-0.03,-0.05,-0.11,-0.01,
0.535,0.66,0.00,-0.03,-0.05,-0.11,-0.01,
0.536,0.90,0.10,-0.15,-0.05,-0.11,-0.01,
0.536,0.90,0.10,-0.15,-0.05,-0.11,-0.01,
0.545,0.90,0.10,-0.15,-0.03,-0.28,-0.04,
0.545,0.90,0.10,-0.15,-0.03,-0.28,-0.04,
0.545,1.13,0.19,-0.38,-0.03,-0.28,-0.04,
0.546,1.13,0.19,-0.38,-0.03,-0.28,-0.04,
0.554,1.13,0.19,-0.38,0.02,-0.49,-0.07,
0.554,1.13,0.19,-0.38,0.02,-0.49,-0.07,
0.555,1.30,0.27,-0.70,0.02,-0.49,-0.07,
0.555,1.30,0.27,-0.70,0.02,-0.49,-0.07,
0.564,1.30,0.27,-0.70,0.09,-0.70,-0.08,
0.564,1.30,0.27,-0.70,0.09,-0.70,-0.08,
0.565,1.40,0.33,-1.02,0.09,-0.70,-0.08,
0.565,1.40,0.33,-1.02,0.09,-0.70,-0.08,
0.574,1.40,0.33,-1.02,0.20,-0.89,-0.07,
0.574,1.40,0.33,-1.02,0.20,-0.89,-0.07,
0.575,1.39,0.36,-1.24,0.20,-0.89,-0.07,
0.575,1.39,0.36,-1.24,0.20,-0.89,-0.07,
0.584,1.39,0.36,-1.24,0.32,-1.05,-0.04,
0.585,1.39,0.36,-1.24,0.32,-1.05,-0.04,
0.585,1.30,0.34,-1.40,0.32,-1.05,-0.04,
0.585,1.30,0.34,-1.40,0.32,-1.05,-0.04,
0.594,1.30,0.34,-1.40,0.46,-1.16,-0.02,
0.595,1.30,0.34,-1.40,0.46,-1.16,-0.02,
0.595,1.18,0.19,-1.56,0.46,-1.16,-0.02,
0.595,1.18,0.19,-1.56,0.46,-1.16,-0.02,
0.603,1.18,0.19,-1.56,0.57,-1.21,-0.01,
0.604,1.18,0.19,-1.56,0.57,-1.21,-0.01,
0.604,0.99,-0.08,-1.78,0.57,-1.21,-0.01,
0.605,0.99,-0.08,-1.78,0.57,-1.21,-0.01,
0.615,0.99,-0.08,-1.78,0.64,-1.19,-0.03,
0.616,0.99,-0.08,-1.78,0.64,-1.19,-0.03,
0.617,0.75,-0.47,-2.02,0.64,-1.19,-0.03,
0.617,0.75,-0.47,-2.02,0.64,-1.19,-0.03,
0.621,0.75,-0.47,-2.02,0.65,-1.11,-0.06,
0.622,0.75,-0.47,-2.02,0.65,-1.11,-0.06,
0.623,0.42,-0.98,-2.15,0.65,-1.11,-0.06,
0.623,0.42,-0.98,-2.15,0.65,-1.11,-0.06,
0.63,0.42,-0.98,-2.15,0.58,-0.94,-0.08,
0.632,0.42,-0.98,-2.15,0.58,-0.94,-0.08,
0.632,0.07,-1.58,-2.09,0.58,-0.94,-0.08,
0.633,0.07,-1.58,-2.09,0.58,-0.94,-0.08,
0.64,0.07,-1.58,-2.09,0.41,-0.70,-0.08,
0.64,0.07,-1.58,-2.09,0.41,-0.70,-0.08,
0.641,-0.20,-2.17,-1.70,0.41,-0.70,-0.08,
0.642,-0.20,-2.17,-1.70,0.41,-0.70,-0.08,
0.649,-0.20,-2.17,-1.70,0.11,-0.37,-0.07,
0.65,-0.20,-2.17,-1.70,0.11,-0.37,-0.07,
0.651,-0.30,-2.71,-1.09,0.11,-0.37,-0.07,
0.652,-0.30,-2.71,-1.09,0.11,-0.37,-0.07,
0.664,-0.30,-2.71,-1.09,-0.34,-0.01,-0.08,
0.665,-0.30,-2.71,-1.09,-0.34,-0.01,-0.08,
0.665,-0.26,-3.27,0.41,-0.34,-0.01,-0.08,
0.666,-0.26,-3.27,0.41,-0.34,-0.01,-0.08,
0.668,-0.26,-3.27,0.41,-0.94,0.33,-0.12,
0.669,-0.26,-3.27,0.41,-0.94,0.33,-0.12,
0.669,0.02,-3.74,0.76,-0.94,0.33,-0.12,
0.67,0.02,-3.74,0.76,-0.94,0.33,-0.12,
0.678,0.02,-3.74,0.76,-1.66,0.58,-0.17,
0.679,0.02,-3.74,0.76,-1.66,0.58,-0.17,
0.679,0.56,-4.09,1.12,-1.66,0.58,-0.17,
0.68,0.56,-4.09,1.12,-1.66,0.58,-0.17,
0.687,0.56,-4.09,1.12,-2.40,0.70,-0.20,
0.688,0.56,-4.09,1.12,-2.40,0.70,-0.20,
0.688,2.29,-4.27,1.52,-2.40,0.70,-0.20,
0.689,2.29,-4.27,1.52,-2.40,0.70,-0.20,
0.698,2.29,-4.27,1.52,-3.02,0.59,-0.22,
0.7,2.29,-4.27,1.52,-3.02,0.59,-0.22,
0.7,2.63,-4.22,1.88,-3.02,0.59,-0.22,
0.701,2.63,-4.22,1.88,-3.02,0.59,-0.22,
0.708,2.63,-4.22,1.88,-3.45,0.19,-0.26,
0.709,2.63,-4.22,1.88,-3.45,0.19,-0.26,
0.71,3.17,-4.08,2.22,-3.45,0.19,-0.26,
0.71,3.17,-4.08,2.22,-3.45,0.19,-0.26,
0.717,3.17,-4.08,2.22,-3.45,0.19,-0.26,
0.718,3.17,-4.08,2.22,-3.45,0.19,-0.26,
0.719,3.17,-4.08,2.22,-3.45,0.19,-0.26,
0.719,3.17,-4.08,2.22,-3.45,0.19,-0.26,
0.725,3.17,-4.08,2.22,-3.65,-0.41,-0.30,
0.726,3.17,-4.08,2.22,-3.65,-0.41,-0.30,
0.727,4.10,-4.11,2.37,-3.65,-0.41,-0.30,
0.727,4.10,-4.11,2.37,-3.65,-0.41,-0.30,
0.735,4.10,-4.11,2.37,-3.65,-1.05,-0.33,
0.736,4.10,-4.11,2.37,-3.65,-1.05,-0.33,
0.736,4.46,-4.28,2.12,-3.65,-1.05,-0.33,
0.736,4.46,-4.28,2.12,-3.65,-1.05,-0.33,
0.744,4.46,-4.28,2.12,-3.48,-1.63,-0.34,
0.745,4.46,-4.28,2.12,-3.48,-1.63,-0.34,
0.745,4.79,-4.42,1.73,-3.48,-1.63,-0.34,
0.745,4.79,-4.42,1.73,-3.48,-1.63,-0.34,
0.754,4.79,-4.42,1.73,-3.24,-2.12,-0.32,
0.755,4.79,-4.42,1.73,-3.24,-2.12,-0.32,
0.755,5.19,-4.49,1.29,-3.24,-2.12,-0.32,
0.756,5.19,-4.49,1.29,-3.24,-2.12,-0.32,
0.764,5.19,-4.49,1.29,-2.98,-2.52,-0.26,
0.765,5.19,-4.49,1.29,-2.98,-2.52,-0.26,
0.766,5.68,-4.46,0.83,-2.98,-2.52,-0.26,
0.766,5.68,-4.46,0.83,-2.98,-2.52,-0.26,
0.774,5.68,-4.46,0.83,-2.71,-2.82,-0.17,
0.774,5.68,-4.46,0.83,-2.71,-2.82,-0.17,
0.774,6.14,-4.31,0.88,-2.71,-2.82,-0.17,
0.775,6.14,-4.31,0.88,-2.71,-2.82,-0.17,
0.783,6.14,-4.31,0.88,-2.44,-3.07,-0.09,
0.784,6.14,-4.31,0.88,-2.44,-3.07,-0.09,
0.784,6.50,-4.13,1.28,-2.44,-3.07,-0.09,
0.785,6.50,-4.13,1.28,-2.44,-3.07,-0.09,
0.791,6.50,-4.13,1.28,-2.15,-3.28,-0.12,
0.792,6.50,-4.13,1.28,-2.15,-3.28,-0.12,
0.792,6.70,-4.09,3.09,-2.15,-3.28,-0.12,
0.793,6.70,-4.09,3.09,-2.15,-3.28,-0.12,
0.801,6.70,-4.09,3.09,-1.83,-3.41,-0.04,
0.803,6.70,-4.09,3.09,-1.83,-3.41,-0.04,
0.803,6.79,-4.34,3.34,-1.83,-3.41,-0.04,
0.804,6.79,-4.34,3.34,-1.83,-3.41,-0.04,
0.811,6.79,-4.34,3.34,-1.46,-3.38,0.24,
0.811,6.79,-4.34,3.34,-1.46,-3.38,0.24,
0.812,6.88,-6.01,3.23,-1.46,-3.38,0.24,
0.812,6.88,-6.01,3.23,-1.46,-3.38,0.24,
0.82,6.88,-6.01,3.23,-1.13,-3.20,0.61,
0.821,6.88,-6.01,3.23,-1.13,-3.20,0.61,
0.821,6.82,-6.26,2.81,-1.13,-3.20,0.61,
0.822,6.82,-6.26,2.81,-1.13,-3.20,0.61,
0.83,6.82,-6.26,2.81,-0.95,-2.93,1.04,
0.831,6.82,-6.26,2.81,-0.95,-2.93,1.04,
0.832,6.66,-6.65,1.21,-0.95,-2.93,1.04,
0.832,6.66,-6.65,1.21,-0.95,-2.93,1.04,
0.84,6.66,-6.65,1.21,-0.94,-2.67,1.47,
0.842,6.66,-6.65,1.21,-0.94,-2.67,1.47,
0.843,6.62,-6.86,-0.50,-0.94,-2.67,1.47,
0.843,6.62,-6.86,-0.50,-0.94,-2.67,1.47,
0.849,6.62,-6.86,-0.50,-1.07,-2.49,1.81,
0.85,6.62,-6.86,-0.50,-1.07,-2.49,1.81,
0.851,6.87,-6.75,-0.99,-1.07,-2.49,1.81,
0.852,6.87,-6.75,-0.99,-1.07,-2.49,1.81,
0.862,6.87,-6.75,-0.99,-1.25,-2.45,2.05,
0.863,6.87,-6.75,-0.99,-1.25,-2.45,2.05,
0.864,8.91,-6.40,-1.12,-1.25,-2.45,2.05,
0.864,8.91,-6.40,-1.12,-1.25,-2.45,2.05,
0.868,8.91,-6.40,-1.12,-1.44,-2.55,1.81,
0.869,8.91,-6.40,-1.12,-1.44,-2.55,1.81,
0.869,9.25,-5.94,-1.12,-1.44,-2.55,1.81,
0.87,9.25,-5.94,-1.12,-1.44,-2.55,1.81,
0.89,9.25,-5.94,-1.12,-1.59,-2.80,1.33,
0.892,9.25,-5.94,-1.12,-1.59,-2.80,1.33,
0.892,10.55,-5.45,-0.88,-1.59,-2.80,1.33,
0.893,10.55,-5.45,-0.88,-1.59,-2.80,1.33,
0.893,10.55,-5.45,-0.88,-1.59,-2.80,1.33,
0.893,10.55,-5.45,-0.88,-1.59,-2.80,1.33,
0.894,10.55,-5.45,-0.88,-1.59,-2.80,1.33,
0.894,10.55,-5.45,-0.88,-1.59,-2.80,1.33,
0.898,10.55,-5.45,-0.88,-1.54,-3.49,0.85,
0.899,10.55,-5.45,-0.88,-1.54,-3.49,0.85,
0.899,9.94,-4.68,-0.87,-1.54,-3.49,0.85,
0.899,9.94,-4.68,-0.87,-1.54,-3.49,0.85,
0.907,9.94,-4.68,-0.87,-1.54,-3.49,0.85,
0.907,9.94,-4.68,-0.87,-1.54,-3.49,0.85,
0.908,9.94,-4.68,-0.87,-1.54,-3.49,0.85,
0.909,9.94,-4.68,-0.87,-1.54,-3.49,0.85,
0.916,9.94,-4.68,-0.87,-1.35,-3.71,0.58,
0.917,9.94,-4.68,-0.87,-1.35,-3.71,0.58,
0.918,5.81,-4.54,-1.42,-1.35,-3.71,0.58,
0.918,5.81,-4.54,-1.42,-1.35,-3.71,0.58,
0.925,5.81,-4.54,-1.42,-1.09,-3.70,0.37,
0.926,5.81,-4.54,-1.42,-1.09,-3.70,0.37,
0.926,3.69,-4.72,-1.83,-1.09,-3.70,0.37,
0.926,3.69,-4.72,-1.83,-1.09,-3.70,0.37,
0.934,3.69,-4.72,-1.83,-0.79,-3.40,0.33,
0.935,3.69,-4.72,-1.83,-0.79,-3.40,0.33,
0.936,2.99,-4.97,-2.34,-0.79,-3.40,0.33,
0.936,2.99,-4.97,-2.34,-0.79,-3.40,0.33,
0.945,2.99,-4.97,-2.34,-0.50,-2.81,0.50,
0.945,2.99,-4.97,-2.34,-0.50,-2.81,0.50,
0.946,1.39,-5.13,-2.82,-0.50,-2.81,0.50,
0.946,1.39,-5.13,-2.82,-0.50,-2.81,0.50,
0.953,1.39,-5.13,-2.82,-0.30,-2.06,0.84,
0.954,1.39,-5.13,-2.82,-0.30,-2.06,0.84,
0.955,1.18,-5.02,-3.28,-0.30,-2.06,0.84,
0.955,1.18,-5.02,-3.28,-0.30,-2.06,0.84,
0.962,1.18,-5.02,-3.28,-0.26,-1.28,1.22,
0.964,1.18,-5.02,-3.28,-0.26,-1.28,1.22,
0.964,1.34,-4.57,-3.68,-0.26,-1.28,1.22,
0.965,1.34,-4.57,-3.68,-0.26,-1.28,1.22,
0.973,1.34,-4.57,-3.68,-0.36,-0.62,1.55,
0.973,1.34,-4.57,-3.68,-0.36,-0.62,1.55,
0.974,2.91,-3.91,-3.98,-0.36,-0.62,1.55,
0.974,2.91,-3.91,-3.98,-0.36,-0.62,1.55,
0.982,2.91,-3.91,-3.98,-0.52,-0.16,1.73,
0.984,2.91,-3.91,-3.98,-0.52,-0.16,1.73,
0.984,3.06,-3.18,-4.23,-0.52,-0.16,1.73,
0.985,3.06,-3.18,-4.23,-0.52,-0.16,1.73,
0.993,3.06,-3.18,-4.23,-0.66,-0.03,1.70,
0.994,3.06,-3.18,-4.23,-0.66,-0.03,1.70,
0.994,3.36,-2.50,-4.41,-0.66,-0.03,1.70,
0.995,3.36,-2.50,-4.41,-0.66,-0.03,1.70,
1.002,3.36,-2.50,-4.41,-0.71,-0.22,1.43,
1.003,3.36,-2.50,-4.41,-0.71,-0.22,1.43,
1.003,3.63,-1.95,-4.58,-0.71,-0.22,1.43,
1.004,3.63,-1.95,-4.58,-0.71,-0.22,1.43,
1.011,3.63,-1.95,-4.58,-0.64,-0.63,1.00,
1.013,3.63,-1.95,-4.58,-0.64,-0.63,1.00,
1.013,3.77,-1.48,-4.78,-0.64,-0.63,1.00,
1.014,3.77,-1.48,-4.78,-0.64,-0.63,1.00,
1.02,3.77,-1.48,-4.78,-0.48,-1.11,0.50,
1.021,3.77,-1.48,-4.78,-0.48,-1.11,0.50,
1.023,3.79,-1.04,-4.99,-0.48,-1.11,0.50,
1.024,3.79,-1.04,-4.99,-0.48,-1.11,0.50,
1.03,3.79,-1.04,-4.99,-0.29,-1.59,-0.00,
1.033,3.79,-1.04,-4.99,-0.29,-1.59,-0.00,
1.034,3.67,-0.65,-5.15,-0.29,-1.59,-0.00,
1.035,3.67,-0.65,-5.15,-0.29,-1.59,-0.00,
1.039,3.67,-0.65,-5.15,-0.11,-2.01,-0.47,
1.04,3.67,-0.65,-5.15,-0.11,-2.01,-0.47,
1.04,3.48,-0.37,-5.20,-0.11,-2.01,-0.47,
1.041,3.48,-0.37,-5.20,-0.11,-2.01,-0.47,
1.049,3.48,-0.37,-5.20,0.04,-2.36,-0.87,
1.05,3.48,-0.37,-5.20,0.04,-2.36,-0.87,
1.051,3.23,-0.17,-5.08,0.04,-2.36,-0.87,
1.051,3.23,-0.17,-5.08,0.04,-2.36,-0.87,
1.061,3.23,-0.17,-5.08,0.15,-2.60,-1.17,
1.062,3.23,-0.17,-5.08,0.15,-2.60,-1.17,
1.062,2.96,-0.06,-4.83,0.15,-2.60,-1.17,
1.063,2.96,-0.06,-4.83,0.15,-2.60,-1.17,
1.068,2.96,-0.06,-4.83,0.25,-2.71,-1.35,
1.069,2.96,-0.06,-4.83,0.25,-2.71,-1.35,
1.069,2.76,-0.02,-4.54,0.25,-2.71,-1.35,
1.069,2.76,-0.02,-4.54,0.25,-2.71,-1.35,
1.077,2.76,-0.02,-4.54,0.35,-2.68,-1.40,
1.078,2.76,-0.02,-4.54,0.35,-2.68,-1.40,
1.078,2.66,0.06,-4.31,0.35,-2.68,-1.40,
1.078,2.66,0.06,-4.31,0.35,-2.68,-1.40,
1.087,2.66,0.06,-4.31,0.35,-2.68,-1.40,
1.088,2.66,0.06,-4.31,0.35,-2.68,-1.40,
1.088,2.66,0.06,-4.31,0.35,-2.68,-1.40,
1.089,2.66,0.06,-4.31,0.35,-2.68,-1.40,
1.097,2.66,0.06,-4.31,0.54,-2.32,-1.18,
1.098,2.66,0.06,-4.31,0.54,-2.32,-1.18,
1.098,2.78,0.16,-4.17,0.54,-2.32,-1.18,
1.099,2.78,0.16,-4.17,0.54,-2.32,-1.18,
1.107,2.78,0.16,-4.17,0.54,-2.32,-1.18,
1.107,2.78,0.16,-4.17,0.54,-2.32,-1.18,
1.108,2.78,0.16,-4.17,0.54,-2.32,-1.18,
1.109,2.78,0.16,-4.17,0.54,-2.32,-1.18,
1.115,2.78,0.16,-4.17,0.60,-2.10,-1.00,
1.117,2.78,0.16,-4.17,0.60,-2.10,-1.00,
1.118,3.10,0.11,-4.61,0.60,-2.10,-1.00,
1.119,3.10,0.11,-4.61,0.60,-2.10,-1.00,
1.127,3.10,0.11,-4.61,0.62,-1.93,-0.82,
1.128,3.10,0.11,-4.61,0.62,-1.93,-0.82,
1.128,3.15,0.25,-4.94,0.62,-1.93,-0.82,
1.128,3.15,0.25,-4.94,0.62,-1.93,-0.82,
1.134,3.15,0.25,-4.94,0.58,-1.87,-0.68,
1.135,3.15,0.25,-4.94,0.58,-1.87,-0.68,
1.136,3.32,0.45,-5.26,0.58,-1.87,-0.68,
1.136,3.32,0.45,-5.26,0.58,-1.87,-0.68,
1.144,3.32,0.45,-5.26,0.46,-1.94,-0.59,
1.145,3.32,0.45,-5.26,0.46,-1.94,-0.59,
1.145,3.67,0.68,-5.41,0.46,-1.94,-0.59,
1.146,3.67,0.68,-5.41,0.46,-1.94,-0.59,
1.154,3.67,0.68,-5.41,0.30,-2.12,-0.57,
1.155,3.67,0.68,-5.41,0.30,-2.12,-0.57,
1.156,4.13,0.90,-5.28,0.30,-2.12,-0.57,
1.157,4.13,0.90,-5.28,0.30,-2.12,-0.57,
1.166,4.13,0.90,-5.28,0.14,-2.35,-0.61,
1.167,4.13,0.90,-5.28,0.14,-2.35,-0.61,
1.167,4.61,1.08,-4.81,0.14,-2.35,-0.61,
1.168,4.61,1.08,-4.81,0.14,-2.35,-0.61,
1.172,4.61,1.08,-4.81,0.03,-2.57,-0.70,
1.173,4.61,1.08,-4.81,0.03,-2.57,-0.70,
1.173,4.94,1.24,-4.14,0.03,-2.57,-0.70,
1.173,4.94,1.24,-4.14,0.03,-2.57,-0.70,
1.183,4.94,1.24,-4.14,-0.00,-2.67,-0.79,
1.184,4.94,1.24,-4.14,-0.00,-2.67,-0.79,
1.184,5.05,1.45,-3.43,-0.00,-2.67,-0.79,
1.184,5.05,1.45,-3.43,-0.00,-2.67,-0.79,
1.192,5.05,1.45,-3.43,0.06,-2.60,-0.78,
1.193,5.05,1.45,-3.43,0.06,-2.60,-0.78,
1.193,4.85,1.67,-2.85,0.06,-2.60,-0.78,
1.194,4.85,1.67,-2.85,0.06,-2.60,-0.78,
1.202,4.85,1.67,-2.85,0.20,-2.34,-0.74,
1.203,4.85,1.67,-2.85,0.20,-2.34,-0.74,
1.203,4.43,1.86,-2.66,0.20,-2.34,-0.74,
1.204,4.43,1.86,-2.66,0.20,-2.34,-0.74,
1.211,4.43,1.86,-2.66,0.40,-1.95,-0.79,
1.212,4.43,1.86,-2.66,0.40,-1.95,-0.79,
1.213,3.84,2.07,-2.94,0.40,-1.95,-0.79,
1.213,3.84,2.07,-2.94,0.40,-1.95,-0.79,
1.22,3.84,2.07,-2.94,0.60,-1.52,-0.81,
1.221,3.84,2.07,-2.94,0.60,-1.52,-0.81,
1.222,3.16,2.32,-4.40,0.60,-1.52,-0.81,
1.222,3.16,2.32,-4.40,0.60,-1.52,-0.81,
1.23,3.16,2.32,-4.40,0.75,-1.17,-0.83,
1.232,3.16,2.32,-4.40,0.75,-1.17,-0.83,
1.233,2.50,2.66,-6.09,0.75,-1.17,-0.83,
1.234,2.50,2.66,-6.09,0.75,-1.17,-0.83,
1.239,2.50,2.66,-6.09,0.79,-1.05,-0.87,
1.239,2.50,2.66,-6.09,0.79,-1.05,-0.87,
1.24,1.90,3.07,-6.26,0.79,-1.05,-0.87,
1.241,1.90,3.07,-6.26,0.79,-1.05,-0.87,
1.249,1.90,3.07,-6.26,0.74,-1.22,-0.96,
1.25,1.90,3.07,-6.26,0.74,-1.22,-0.96,
1.251,1.51,3.45,-6.56,0.74,-1.22,-0.96,
1.251,1.51,3.45,-6.56,0.74,-1.22,-0.96,
1.263,1.51,3.45,-6.56,0.63,-1.63,-1.12,
1.264,1.51,3.45,-6.56,0.63,-1.63,-1.12,
1.265,1.30,3.79,-6.84,0.63,-1.63,-1.12,
1.265,1.30,3.79,-6.84,0.63,-1.63,-1.12,
1.268,1.30,3.79,-6.84,0.54,-2.11,-1.32,
1.268,1.30,3.79,-6.84,0.54,-2.11,-1.32,
1.269,1.24,4.09,-7.03,0.54,-2.11,-1.32,
1.27,1.24,4.09,-7.03,0.54,-2.11,-1.32,
1.277,1.24,4.09,-7.03,0.48,-2.55,-1.56,
1.278,1.24,4.09,-7.03,0.48,-2.55,-1.56,
1.278,1.27,4.32,-7.16,0.48,-2.55,-1.56,
1.278,1.27,4.32,-7.16,0.48,-2.55,-1.56,
1.288,1.27,4.32,-7.16,0.44,-2.92,-1.82,
1.289,1.27,4.32,-7.16,0.44,-2.92,-1.82,
1.289,1.26,4.54,-7.20,0.44,-2.92,-1.82,
1.29,1.26,4.54,-7.20,0.44,-2.92,-1.82,
1.297,1.26,4.54,-7.20,0.44,-2.92,-1.82,
1.298,1.26,4.54,-7.20,0.44,-2.92,-1.82,
1.298,1.26,4.54,-7.20,0.44,-2.92,-1.82,
1.299,1.26,4.54,-7.20,0.44,-2.92,-1.82,
1.306,1.26,4.54,-7.20,0.42,-3.23,-2.06,
1.307,1.26,4.54,-7.20,0.42,-3.23,-2.06,
1.308,1.09,4.66,-7.23,0.42,-3.23,-2.06,
1.309,1.09,4.66,-7.23,0.42,-3.23,-2.06,
1.316,1.09,4.66,-7.23,0.40,-3.45,-2.26,
1.317,1.09,4.66,-7.23,0.40,-3.45,-2.26,
1.318,0.86,4.57,-7.08,0.40,-3.45,-2.26,
1.319,0.86,4.57,-7.08,0.40,-3.45,-2.26,
1.326,0.86,4.57,-7.08,0.36,-3.56,-2.40,
1.328,0.86,4.57,-7.08,0.36,-3.56,-2.40,
1.328,0.66,4.38,-6.89,0.36,-3.56,-2.40,
1.329,0.66,4.38,-6.89,0.36,-3.56,-2.40,
1.335,0.66,4.38,-6.89,0.30,-3.57,-2.01,
1.336,0.66,4.38,-6.89,0.30,-3.57,-2.01,
1.336,0.54,4.19,-6.70,0.30,-3.57,-2.01,
1.337,0.54,4.19,-6.70,0.30,-3.57,-2.01,
1.344,0.54,4.19,-6.70,0.20,-3.48,-1.60,
1.344,0.54,4.19,-6.70,0.20,-3.48,-1.60,
1.345,0.53,4.07,-6.46,0.20,-3.48,-1.60,
1.346,0.53,4.07,-6.46,0.20,-3.48,-1.60,
1.353,0.53,4.07,-6.46,0.09,-3.31,-1.37,
1.354,0.53,4.07,-6.46,0.09,-3.31,-1.37,
1.355,0.60,3.98,-6.15,0.09,-3.31,-1.37,
1.355,0.60,3.98,-6.15,0.09,-3.31,-1.37,
1.364,0.60,3.98,-6.15,-0.03,-3.07,-1.09,
1.365,0.60,3.98,-6.15,-0.03,-3.07,-1.09,
1.366,0.63,3.90,-5.76,-0.03,-3.07,-1.09,
1.367,0.63,3.90,-5.76,-0.03,-3.07,-1.09,
1.372,0.63,3.90,-5.76,-0.14,-2.78,-1.01,
1.373,0.63,3.90,-5.76,-0.14,-2.78,-1.01,
1.374,0.57,3.80,-5.20,-0.14,-2.78,-1.01,
1.374,0.57,3.80,-5.20,-0.14,-2.78,-1.01,
1.382,0.57,3.80,-5.20,-0.20,-2.42,-0.90,
1.382,0.57,3.80,-5.20,-0.20,-2.42,-0.90,
1.383,0.42,3.62,-4.59,-0.20,-2.42,-0.90,
1.383,0.42,3.62,-4.59,-0.20,-2.42,-0.90,
1.392,0.42,3.62,-4.59,-0.20,-1.99,-0.79,
1.393,0.42,3.62,-4.59,-0.20,-1.99,-0.79,
1.394,0.24,3.36,-4.03,-0.20,-1.99,-0.79,
1.394,0.24,3.36,-4.03,-0.20,-1.99,-0.79,
1.401,0.24,3.36,-4.03,-0.14,-1.50,-0.69,
1.402,0.24,3.36,-4.03,-0.14,-1.50,-0.69,
1.403,0.10,3.08,-3.61,-0.14,-1.50,-0.69,
1.404,0.10,3.08,-3.61,-0.14,-1.50,-0.69,
1.41,0.10,3.08,-3.61,-0.06,-0.98,-0.58,
1.411,0.10,3.08,-3.61,-0.06,-0.98,-0.58,
1.411,0.02,2.78,-3.42,-0.06,-0.98,-0.58,
1.412,0.02,2.78,-3.42,-0.06,-0.98,-0.58,
1.42,0.02,2.78,-3.42,0.03,-0.47,-0.46,
1.421,0.02,2.78,-3.42,0.03,-0.47,-0.46,
1.421,-0.06,2.45,-3.43,0.03,-0.47,-0.46,
1.422,-0.06,2.45,-3.43,0.03,-0.47,-0.46,
1.431,-0.06,2.45,-3.43,0.13,-0.04,-0.32,
1.432,-0.06,2.45,-3.43,0.13,-0.04,-0.32,
1.432,-0.19,2.15,-3.61,0.13,-0.04,-0.32,
1.433,-0.19,2.15,-3.61,0.13,-0.04,-0.32,
1.439,-0.19,2.15,-3.61,0.21,0.24,-0.16,
1.44,-0.19,2.15,-3.61,0.21,0.24,-0.16,
1.441,-0.39,1.87,-3.95,0.21,0.24,-0.16,
1.442,-0.39,1.87,-3.95,0.21,0.24,-0.16,
1.448,-0.39,1.87,-3.95,0.25,0.35,0.00,
1.449,-0.39,1.87,-3.95,0.25,0.35,0.00,
1.449,-0.63,1.58,-4.39,0.25,0.35,0.00,
1.45,-0.63,1.58,-4.39,0.25,0.35,0.00,
1.458,-0.63,1.58,-4.39,0.27,0.26,0.16,
1.459,-0.63,1.58,-4.39,0.27,0.26,0.16,
1.459,-0.87,1.30,-4.78,0.27,0.26,0.16,
1.459,-0.87,1.30,-4.78,0.27,0.26,0.16,
1.467,-0.87,1.30,-4.78,0.27,-0.00,0.30,
1.468,-0.87,1.30,-4.78,0.27,-0.00,0.30,
1.468,-1.09,1.01,-5.00,0.27,-0.00,0.30,
1.468,-1.09,1.01,-5.00,0.27,-0.00,0.30,
1.477,-1.09,1.01,-5.00,0.26,-0.40,0.44,
1.477,-1.09,1.01,-5.00,0.26,-0.40,0.44,
1.478,-1.27,0.68,-5.05,0.26,-0.40,0.44,
1.478,-1.27,0.68,-5.05,0.26,-0.40,0.44,
1.487,-1.27,0.68,-5.05,0.27,-0.86,0.56,
1.488,-1.27,0.68,-5.05,0.27,-0.86,0.56,
1.489,-1.38,0.35,-4.91,0.27,-0.86,0.56,
1.49,-1.38,0.35,-4.91,0.27,-0.86,0.56,
1.496,-1.38,0.35,-4.91,0.27,-0.86,0.56,
1.498,-1.38,0.35,-4.91,0.27,-0.86,0.56,
1.499,-1.38,0.35,-4.91,0.27,-0.86,0.56,
1.5,-1.38,0.35,-4.91,0.27,-0.86,0.56,
1.505,-1.38,0.35,-4.91,0.27,-1.30,0.69,
1.506,-1.38,0.35,-4.91,0.27,-1.30,0.69,
1.507,-1.35,-0.08,-4.70,0.27,-1.30,0.69,
1.507,-1.35,-0.08,-4.70,0.27,-1.30,0.69,
1.515,-1.35,-0.08,-4.70,0.27,-1.65,0.83,
1.516,-1.35,-0.08,-4.70,0.27,-1.65,0.83,
1.517,-1.25,-0.22,-4.54,0.27,-1.65,0.83,
1.518,-1.25,-0.22,-4.54,0.27,-1.65,0.83,
1.525,-1.25,-0.22,-4.54,0.28,-1.88,0.97,
1.526,-1.25,-0.22,-4.54,0.28,-1.88,0.97,
1.527,-1.06,-0.26,-4.40,0.28,-1.88,0.97,
1.527,-1.06,-0.26,-4.40,0.28,-1.88,0.97,
1.534,-1.06,-0.26,-4.40,0.31,-1.98,1.09,
1.535,-1.06,-0.26,-4.40,0.31,-1.98,1.09,
1.536,-0.82,-0.21,-4.19,0.31,-1.98,1.09,
1.536,-0.82,-0.21,-4.19,0.31,-1.98,1.09,
1.543,-0.82,-0.21,-4.19,0.35,-1.97,1.17,
1.544,-0.82,-0.21,-4.19,0.35,-1.97,1.17,
1.545,-0.56,-0.09,-3.90,0.35,-1.97,1.17,
1.545,-0.56,-0.09,-3.90,0.35,-1.97,1.17,
1.553,-0.56,-0.09,-3.90,0.39,-1.87,1.17,
1.554,-0.56,-0.09,-3.90,0.39,-1.87,1.17,
1.555,-0.35,0.02,-3.53,0.39,-1.87,1.17,
1.555,-0.35,0.02,-3.53,0.39,-1.87,1.17,
1.564,-0.35,0.02,-3.53,0.43,-1.71,1.07,
1.565,-0.35,0.02,-3.53,0.43,-1.71,1.07,
1.565,-0.28,0.09,-3.14,0.43,-1.71,1.07,
1.566,-0.28,0.09,-3.14,0.43,-1.71,1.07,
1.572,-0.28,0.09,-3.14,0.45,-1.47,0.89,
1.573,-0.28,0.09,-3.14,0.45,-1.47,0.89,
1.573,-0.33,0.05,-2.83,0.45,-1.47,0.89,
1.574,-0.33,0.05,-2.83,0.45,-1.47,0.89,
1.582,-0.33,0.05,-2.83,0.45,-1.19,0.67,
1.583,-0.33,0.05,-2.83,0.45,-1.19,0.67,
1.583,-0.49,-0.09,-2.63,0.45,-1.19,0.67,
1.583,-0.49,-0.09,-2.63,0.45,-1.19,0.67,
1.592,-0.49,-0.09,-2.63,0.45,-0.90,0.44,
1.593,-0.49,-0.09,-2.63,0.45,-0.90,0.44,
1.594,-0.66,-0.29,-2.54,0.45,-0.90,0.44,
1.594,-0.66,-0.29,-2.54,0.45,-0.90,0.44,
1.601,-0.66,-0.29,-2.54,0.45,-0.64,0.25,
1.602,-0.66,-0.29,-2.54,0.45,-0.64,0.25,
1.603,-0.73,-0.49,-2.59,0.45,-0.64,0.25,
1.603,-0.73,-0.49,-2.59,0.45,-0.64,0.25,
1.611,-0.73,-0.49,-2.59,0.45,-0.46,0.12,
1.612,-0.73,-0.49,-2.59,0.45,-0.46,0.12,
1.613,-0.66,-0.61,-2.63,0.45,-0.46,0.12,
1.613,-0.66,-0.61,-2.63,0.45,-0.46,0.12,
1.62,-0.66,-0.61,-2.63,0.44,-0.37,0.06,
1.621,-0.66,-0.61,-2.63,0.44,-0.37,0.06,
1.622,-0.48,-0.70,-2.61,0.44,-0.37,0.06,
1.623,-0.48,-0.70,-2.61,0.44,-0.37,0.06,
1.63,-0.48,-0.70,-2.61,0.41,-0.37,0.05,
1.631,-0.48,-0.70,-2.61,0.41,-0.37,0.05,
1.632,-0.24,-0.71,-2.52,0.41,-0.37,0.05,
1.632,-0.24,-0.71,-2.52,0.41,-0.37,0.05,
1.639,-0.24,-0.71,-2.52,0.36,-0.43,0.07,
1.64,-0.04,-0.70,-2.27,0.36,-0.43,0.07,
1.641,-0.04,-0.70,-2.27,0.36,-0.43,0.07,
1.641,-0.04,-0.70,-2.27,0.36,-0.43,0.07,
1.648,-0.04,-0.70,-2.27,0.31,-0.49,0.09,
1.65,-0.04,-0.70,-2.27,0.31,-0.49,0.09,
1.65,0.08,-0.72,-1.96,0.31,-0.49,0.09,
1.651,0.08,-0.72,-1.96,0.31,-0.49,0.09,
1.663,0.08,-0.72,-1.96,0.27,-0.51,0.11,
1.664,0.08,-0.72,-1.96,0.27,-0.51,0.11,
1.664,0.10,-0.70,-1.60,0.27,-0.51,0.11,
1.665,0.10,-0.70,-1.60,0.27,-0.51,0.11,
1.67,0.10,-0.70,-1.60,0.25,-0.47,0.11,
1.671,0.10,-0.70,-1.60,0.25,-0.47,0.11,
1.671,0.05,-0.73,-1.30,0.25,-0.47,0.11,
1.671,0.05,-0.73,-1.30,0.25,-0.47,0.11,
1.677,0.05,-0.73,-1.30,0.26,-0.38,0.08,
1.678,0.05,-0.73,-1.30,0.26,-0.38,0.08,
1.678,-0.10,-0.76,-1.09,0.26,-0.38,0.08,
1.679,-0.10,-0.76,-1.09,0.26,-0.38,0.08,
1.688,-0.10,-0.76,-1.09,0.31,-0.24,0.04,
1.689,-0.10,-0.76,-1.09,0.31,-0.24,0.04,
1.689,-0.33,-0.80,-0.96,0.31,-0.24,0.04,
1.69,-0.33,-0.80,-0.96,0.31,-0.24,0.04,
1.696,-0.33,-0.80,-0.96,0.31,-0.24,0.04,
1.697,-0.33,-0.80,-0.96,0.31,-0.24,0.04,
1.698,-0.33,-0.80,-0.96,0.31,-0.24,0.04,
1.698,-0.33,-0.80,-0.96,0.31,-0.24,0.04,
1.706,-0.33,-0.80,-0.96,0.39,-0.10,-0.01,
1.708,-0.33,-0.80,-0.96,0.39,-0.10,-0.01,
1.708,-0.90,-0.81,-1.11,0.39,-0.10,-0.01,
1.709,-0.90,-0.81,-1.11,0.39,-0.10,-0.01,
1.715,-0.90,-0.81,-1.11,0.47,0.01,-0.05,
1.716,-0.90,-0.81,-1.11,0.47,0.01,-0.05,
1.717,-1.24,-0.85,-1.19,0.47,0.01,-0.05,
1.717,-1.24,-0.85,-1.19,0.47,0.01,-0.05,
1.726,-1.24,-0.85,-1.19,0.56,0.05,-0.09,
1.727,-1.24,-0.85,-1.19,0.56,0.05,-0.09,
1.728,-1.58,-0.98,-1.18,0.56,0.05,-0.09,
1.728,-1.58,-0.98,-1.18,0.56,0.05,-0.09,
1.735,-1.58,-0.98,-1.18,0.64,-0.00,-0.12,
1.736,-1.58,-0.98,-1.18,0.64,-0.00,-0.12,
1.736,-1.95,-1.24,-1.03,0.64,-0.00,-0.12,
1.737,-1.95,-1.24,-1.03,0.64,-0.00,-0.12,
1.744,-1.95,-1.24,-1.03,0.71,-0.12,-0.12,
1.744,-1.95,-1.24,-1.03,0.71,-0.12,-0.12,
1.745,-2.19,-1.55,-0.80,0.71,-0.12,-0.12,
1.745,-2.19,-1.55,-0.80,0.71,-0.12,-0.12,
1.753,-2.19,-1.55,-0.80,0.77,-0.25,-0.07,
1.754,-2.19,-1.55,-0.80,0.77,-0.25,-0.07,
1.755,-2.21,-1.77,-0.55,0.77,-0.25,-0.07,
1.755,-2.21,-1.77,-0.55,0.77,-0.25,-0.07,
1.764,-2.21,-1.77,-0.55,0.83,-0.37,0.04,
1.765,-2.21,-1.77,-0.55,0.83,-0.37,0.04,
1.766,-2.00,-1.83,-0.35,0.83,-0.37,0.04,
1.766,-2.00,-1.83,-0.35,0.83,-0.37,0.04,
1.772,-2.00,-1.83,-0.35,0.90,-0.42,0.20,
1.774,-2.00,-1.83,-0.35,0.90,-0.42,0.20,
1.775,-1.63,-1.74,-0.36,0.90,-0.42,0.20,
1.776,-1.63,-1.74,-0.36,0.90,-0.42,0.20,
1.782,-1.63,-1.74,-0.36,0.99,-0.40,0.38,
1.783,-1.63,-1.74,-0.36,0.99,-0.40,0.38,
1.783,-1.19,-1.53,-0.81,0.99,-0.40,0.38,
1.784,-1.19,-1.53,-0.81,0.99,-0.40,0.38,
1.791,-1.19,-1.53,-0.81,1.06,-0.35,0.52,
1.792,-1.19,-1.53,-0.81,1.06,-0.35,0.52,
1.792,-0.75,-1.25,-2.64,1.06,-0.35,0.52,
1.793,-0.75,-1.25,-2.64,1.06,-0.35,0.52,
1.801,-0.75,-1.25,-2.64,1.10,-0.37,0.58,
1.803,-0.75,-1.25,-2.64,1.10,-0.37,0.58,
1.803,-0.28,-1.00,-4.16,1.10,-0.37,0.58,
1.804,-0.28,-1.00,-4.16,1.10,-0.37,0.58,
1.81,-0.28,-1.00,-4.16,1.04,-0.62,0.57,
1.811,-0.28,-1.00,-4.16,1.04,-0.62,0.57,
1.812,0.23,-0.69,-4.63,1.04,-0.62,0.57,
1.812,0.23,-0.69,-4.63,1.04,-0.62,0.57,
1.82,0.23,-0.69,-4.63,0.89,-1.15,0.49,
1.82,0.23,-0.69,-4.63,0.89,-1.15,0.49,
1.821,0.69,-0.41,-4.88,0.89,-1.15,0.49,
1.822,0.69,-0.41,-4.88,0.89,-1.15,0.49,
1.83,0.69,-0.41,-4.88,0.68,-1.79,0.37,
1.831,0.69,-0.41,-4.88,0.68,-1.79,0.37,
1.831,1.02,-0.20,-4.79,0.68,-1.79,0.37,
1.832,1.02,-0.20,-4.79,0.68,-1.79,0.37,
1.838,1.02,-0.20,-4.79,0.48,-2.28,0.21,
1.839,1.02,-0.20,-4.79,0.48,-2.28,0.21,
1.84,1.12,-0.05,-4.47,0.48,-2.28,0.21,
1.84,1.12,-0.05,-4.47,0.48,-2.28,0.21,
1.849,1.12,-0.05,-4.47,0.35,-2.49,0.03,
1.85,1.12,-0.05,-4.47,0.35,-2.49,0.03,
1.851,0.95,-0.07,-4.11,0.35,-2.49,0.03,
1.852,0.95,-0.07,-4.11,0.35,-2.49,0.03,
1.863,0.95,-0.07,-4.11,0.25,-2.46,-0.16,
1.864,0.95,-0.07,-4.11,0.25,-2.46,-0.16,
1.864,0.60,-0.21,-3.75,0.25,-2.46,-0.16,
1.865,0.60,-0.21,-3.75,0.25,-2.46,-0.16,
1.868,0.60,-0.21,-3.75,0.14,-2.25,-0.34,
1.868,0.60,-0.21,-3.75,0.14,-2.25,-0.34,
1.869,0.19,-0.54,-2.03,0.14,-2.25,-0.34,
1.869,0.19,-0.54,-2.03,0.14,-2.25,-0.34,
1.89,0.19,-0.54,-2.03,0.14,-2.25,-0.34,
1.891,0.19,-0.54,-2.03,0.14,-2.25,-0.34,
1.891,0.19,-0.54,-2.03,0.14,-2.25,-0.34,
1.891,0.19,-0.54,-2.03,0.14,-2.25,-0.34,
1.892,0.19,-0.54,-2.03,0.16,-1.93,-0.48,
1.892,0.19,-0.54,-2.03,0.16,-1.93,-0.48,
1.892,-0.38,-1.17,-1.91,0.16,-1.93,-0.48,
1.893,-0.38,-1.17,-1.91,0.16,-1.93,-0.48,
1.896,-0.38,-1.17,-1.91,0.32,-1.52,-0.54,
1.897,-0.38,-1.17,-1.91,0.32,-1.52,-0.54,
1.897,-0.42,-1.29,-1.97,0.32,-1.52,-0.54,
1.898,-0.42,-1.29,-1.97,0.32,-1.52,-0.54,
1.907,-0.42,-1.29,-1.97,0.47,-1.07,-0.48,
1.908,-0.42,-1.29,-1.97,0.47,-1.07,-0.48,
1.909,-0.36,-1.19,-2.22,0.47,-1.07,-0.48,
1.91,-0.36,-1.19,-2.22,0.47,-1.07,-0.48,
1.915,-0.36,-1.19,-2.22,0.54,-0.68,-0.31,
1.915,-0.36,-1.19,-2.22,0.54,-0.68,-0.31,
1.916,-0.20,-0.99,-2.28,0.54,-0.68,-0.31,
1.916,-0.20,-0.99,-2.28,0.54,-0.68,-0.31,
1.924,-0.20,-0.99,-2.28,0.53,-0.42,-0.08,
1.925,-0.20,-0.99,-2.28,0.53,-0.42,-0.08,
1.926,-0.08,-0.88,-1.81,0.53,-0.42,-0.08,
1.927,-0.08,-0.88,-1.81,0.53,-0.42,-0.08,
1.934,-0.08,-0.88,-1.81,0.47,-0.25,0.11,
1.934,-0.08,-0.88,-1.81,0.47,-0.25,0.11,
1.935,0.08,-0.84,-0.10,0.47,-0.25,0.11,
1.935,0.08,-0.84,-0.10,0.47,-0.25,0.11,
1.943,0.08,-0.84,-0.10,0.39,-0.06,0.21,
1.944,0.08,-0.84,-0.10,0.39,-0.06,0.21,
1.944,0.21,-0.86,0.40,0.39,-0.06,0.21,
1.944,0.21,-0.86,0.40,0.39,-0.06,0.21,
1.953,0.21,-0.86,0.40,0.34,0.25,0.23,
1.954,0.21,-0.86,0.40,0.34,0.25,0.23,
1.954,0.35,-0.86,0.85,0.34,0.25,0.23,
1.955,0.35,-0.86,0.85,0.34,0.25,0.23,
1.963,0.35,-0.86,0.85,0.34,0.73,0.20,
1.964,0.35,-0.86,0.85,0.34,0.73,0.20,
1.965,0.59,-0.79,1.03,0.34,0.73,0.20,
1.966,0.59,-0.79,1.03,0.34,0.73,0.20,
1.973,0.59,-0.79,1.03,0.38,1.27,0.15,
1.974,0.59,-0.79,1.03,0.38,1.27,0.15,
1.974,0.91,-0.65,0.86,0.38,1.27,0.15,
1.975,0.91,-0.65,0.86,0.38,1.27,0.15,
1.981,0.91,-0.65,0.86,0.41,1.75,0.10,
1.982,0.91,-0.65,0.86,0.41,1.75,0.10,
1.982,1.34,-0.52,0.46,0.41,1.75,0.10,
1.983,1.34,-0.52,0.46,0.41,1.75,0.10,
1.992,1.34,-0.52,0.46,0.42,2.08,0.06,
1.993,1.34,-0.52,0.46,0.42,2.08,0.06,
1.994,1.71,-0.45,0.11,0.42,2.08,0.06,
1.994,1.71,-0.45,0.11,0.42,2.08,0.06,
2.0,1.71,-0.45,0.11,0.42,2.23,0.01,
2.001,1.71,-0.45,0.11,0.42,2.23,0.01,
2.001,1.83,-0.61,0.08,0.42,2.23,0.01,
2.002,1.83,-0.61,0.08,0.42,2.23,0.01,
2.01,1.83,-0.61,0.08,0.41,2.19,-0.04,
2.011,1.83,-0.61,0.08,0.41,2.19,-0.04,
2.011,1.69,-1.00,1.74,0.41,2.19,-0.04,
2.012,1.69,-1.00,1.74,0.41,2.19,-0.04,
2.02,1.69,-1.00,1.74,0.39,2.08,-0.05,
2.021,1.69,-1.00,1.74,0.39,2.08,-0.05,
2.021,1.17,-1.53,3.88,0.39,2.08,-0.05,
2.022,1.17,-1.53,3.88,0.39,2.08,-0.05,
2.029,1.17,-1.53,3.88,0.41,2.08,-0.00,
2.03,1.17,-1.53,3.88,0.41,2.08,-0.00,
2.031,-0.47,-3.23,7.32,0.41,2.08,-0.00,
2.032,-0.47,-3.23,7.32,0.41,2.08,-0.00,
2.039,-0.47,-3.23,7.32,0.49,2.42,0.17,
2.039,-0.47,-3.23,7.32,0.49,2.42,0.17,
2.04,-0.79,-3.37,9.06,0.49,2.42,0.17,
2.041,-0.79,-3.37,9.06,0.49,2.42,0.17,
2.048,-0.79,-3.37,9.06,0.66,3.25,0.52,
2.049,-0.79,-3.37,9.06,0.66,3.25,0.52,
2.05,-1.26,-3.44,9.15,0.66,3.25,0.52,
2.051,-1.26,-3.44,9.15,0.66,3.25,0.52,
2.063,-1.26,-3.44,9.15,0.86,4.47,1.04,
2.064,-1.26,-3.44,9.15,0.86,4.47,1.04,
2.065,-1.40,-3.41,9.17,0.86,4.47,1.04,
2.065,-1.40,-3.41,9.17,0.86,4.47,1.04,
2.069,-1.40,-3.41,9.17,1.01,5.77,1.60,
2.07,-1.40,-3.41,9.17,1.01,5.77,1.60,
2.07,-1.24,-3.10,5.58,1.01,5.77,1.60,
2.071,-1.24,-3.10,5.58,1.01,5.77,1.60,
2.077,-1.24,-3.10,5.58,0.95,6.66,1.83,
2.078,-1.24,-3.10,5.58,0.95,6.66,1.83,
2.078,-0.67,-1.40,2.65,0.95,6.66,1.83,
2.079,-0.67,-1.40,2.65,0.95,6.66,1.83,
2.086,-0.67,-1.40,2.65,0.95,6.66,1.83,
2.087,-0.67,-1.40,2.65,0.95,6.66,1.83,
2.087,-0.67,-1.40,2.65,0.95,6.66,1.83,
2.088,-0.67,-1.40,2.65,0.95,6.66,1.83,
2.096,-0.67,-1.40,2.65,0.80,6.70,1.84,
2.097,-0.67,-1.40,2.65,0.80,6.70,1.84,
2.098,2.49,0.73,-1.88,0.80,6.70,1.84,
2.098,2.49,0.73,-1.88,0.80,6.70,1.84,
2.106,2.49,0.73,-1.88,0.70,5.61,1.68,
2.107,2.49,0.73,-1.88,0.70,5.61,1.68,
2.107,2.79,2.31,-3.35,0.70,5.61,1.68,
2.108,2.79,2.31,-3.35,0.70,5.61,1.68,
2.116,2.79,2.31,-3.35,0.54,3.46,0.99,
2.117,2.79,2.31,-3.35,0.54,3.46,0.99,
2.117,3.20,2.90,-3.63,0.54,3.46,0.99,
2.118,3.20,2.90,-3.63,0.54,3.46,0.99,
2.127,3.20,2.90,-3.63,0.35,0.78,-0.14,
2.128,3.20,2.90,-3.63,0.35,0.78,-0.14,
2.129,3.33,3.45,-3.83,0.35,0.78,-0.14,
2.129,3.33,3.45,-3.83,0.35,0.78,-0.14,
2.134,3.33,3.45,-3.83,0.21,-1.63,-0.31,
2.134,3.33,3.45,-3.83,0.21,-1.63,-0.31,
2.135,2.84,3.70,-4.09,0.21,-1.63,-0.31,
2.135,2.84,3.70,-4.09,0.21,-1.63,-0.31,
2.144,2.84,3.70,-4.09,0.18,-3.28,-0.42,
2.144,2.84,3.70,-4.09,0.18,-3.28,-0.42,
2.145,0.85,3.59,-4.56,0.18,-3.28,-0.42,
2.145,0.85,3.59,-4.56,0.18,-3.28,-0.42,
2.152,0.85,3.59,-4.56,0.10,-4.19,-0.51,
2.153,0.85,3.59,-4.56,0.10,-4.19,-0.51,
2.154,0.25,3.32,-5.11,0.10,-4.19,-0.51,
2.154,0.25,3.32,-5.11,0.10,-4.19,-0.51,
2.163,0.25,3.32,-5.11,-0.01,-4.65,0.29,
2.164,0.25,3.32,-5.11,-0.01,-4.65,0.29,
2.164,-0.13,3.08,-5.55,-0.01,-4.65,0.29,
2.165,-0.13,3.08,-5.55,-0.01,-4.65,0.29,
2.173,-0.13,3.08,-5.55,0.04,-4.91,0.23,
2.174,-0.13,3.08,-5.55,0.04,-4.91,0.23,
2.174,-0.15,2.92,-5.79,0.04,-4.91,0.23,
2.175,-0.15,2.92,-5.79,0.04,-4.91,0.23,
2.186,-0.15,2.92,-5.79,0.15,-5.10,-0.34,
2.187,-0.15,2.92,-5.79,0.15,-5.10,-0.34,
2.188,0.02,2.86,-5.84,0.15,-5.10,-0.34,
2.188,0.02,2.86,-5.84,0.15,-5.10,-0.34,
2.196,0.02,2.86,-5.84,0.17,-5.19,-0.44,
2.196,0.02,2.86,-5.84,0.17,-5.19,-0.44,
2.197,0.15,2.87,-5.84,0.17,-5.19,-0.44,
2.197,0.15,2.87,-5.84,0.17,-5.19,-0.44,
2.2,0.15,2.87,-5.84,0.10,-5.15,-0.35,
2.201,0.15,2.87,-5.84,0.10,-5.15,-0.35,
2.201,0.07,2.89,-5.62,0.10,-5.15,-0.35,
2.201,0.07,2.89,-5.62,0.10,-5.15,-0.35,
2.21,0.07,2.89,-5.62,-0.02,-4.97,-0.31,
2.21,0.07,2.89,-5.62,-0.02,-4.97,-0.31,
2.211,-0.17,2.82,-3.87,-0.02,-4.97,-0.31,
2.211,-0.17,2.82,-3.87,-0.02,-4.97,-0.31,
2.219,-0.17,2.82,-3.87,-0.15,-4.64,-0.23,
2.22,-0.17,2.82,-3.87,-0.15,-4.64,-0.23,
2.221,-0.49,2.56,-1.85,-0.15,-4.64,-0.23,
2.221,-0.49,2.56,-1.85,-0.15,-4.64,-0.23,
2.229,-0.49,2.56,-1.85,-0.22,-4.09,-0.18,
2.23,-0.49,2.56,-1.85,-0.22,-4.09,-0.18,
2.231,-0.83,2.08,0.88,-0.22,-4.09,-0.18,
2.231,-0.83,2.08,0.88,-0.22,-4.09,-0.18,
2.238,-0.83,2.08,0.88,-0.16,-3.24,-0.26,
2.239,-0.83,2.08,0.88,-0.16,-3.24,-0.26,
2.24,-1.19,1.42,3.82,-0.16,-3.24,-0.26,
2.241,-1.19,1.42,3.82,-0.16,-3.24,-0.26,
2.248,-1.19,1.42,3.82,0.04,-2.05,-0.43,
2.249,-1.19,1.42,3.82,0.04,-2.05,-0.43,
2.249,-1.64,0.78,6.00,0.04,-2.05,-0.43,
2.25,-1.64,0.78,6.00,0.04,-2.05,-0.43,
2.263,-1.64,0.78,6.00,0.31,-0.48,-0.61,
2.264,-1.64,0.78,6.00,0.31,-0.48,-0.61,
2.264,-2.18,0.29,6.49,0.31,-0.48,-0.61,
2.265,-2.18,0.29,6.49,0.31,-0.48,-0.61,
2.267,-2.18,0.29,6.49,0.52,1.36,-0.63,
2.268,-2.18,0.29,6.49,0.52,1.36,-0.63,
2.269,-2.74,-0.03,6.94,0.52,1.36,-0.63,
2.269,-2.74,-0.03,6.94,0.52,1.36,-0.63,
2.276,-2.74,-0.03,6.94,0.59,3.28,-0.44,
2.277,-2.74,-0.03,6.94,0.59,3.28,-0.44,
2.277,-3.27,-0.20,6.95,0.59,3.28,-0.44,
2.278,-3.27,-0.20,6.95,0.59,3.28,-0.44,
2.286,-3.27,-0.20,6.95,0.59,3.28,-0.44,
2.287,-3.27,-0.20,6.95,0.59,3.28,-0.44,
2.287,-3.27,-0.20,6.95,0.59,3.28,-0.44,
2.288,-3.27,-0.20,6.95,0.59,3.28,-0.44,
2.295,-3.27,-0.20,6.95,0.47,5.02,-0.07,
2.296,-3.27,-0.20,6.95,0.47,5.02,-0.07,
2.297,-3.77,-0.34,4.80,0.47,5.02,-0.07,
2.297,-3.77,-0.34,4.80,0.47,5.02,-0.07,
2.305,-3.77,-0.34,4.80,0.24,6.29,0.35,
2.306,-3.77,-0.34,4.80,0.24,6.29,0.35,
2.307,-3.59,-0.38,4.20,0.24,6.29,0.35,
2.308,-3.59,-0.38,4.20,0.24,6.29,0.35,
2.315,-3.59,-0.38,4.20,-0.01,6.88,0.72,
2.316,-3.59,-0.38,4.20,-0.01,6.88,0.72,
2.317,-1.81,-0.41,2.50,-0.01,6.88,0.72,
2.317,-1.81,-0.41,2.50,-0.01,6.88,0.72,
2.325,-1.81,-0.41,2.50,-0.22,6.69,1.01,
2.326,-1.81,-0.41,2.50,-0.22,6.69,1.01,
2.327,-1.29,-0.42,1.97,-0.22,6.69,1.01,
2.327,-1.29,-0.42,1.97,-0.22,6.69,1.01,
2.333,-1.29,-0.42,1.97,-0.33,5.80,1.23,
2.334,-1.29,-0.42,1.97,-0.33,5.80,1.23,
2.335,0.61,-0.46,0.13,-0.33,5.80,1.23,
2.336,0.61,-0.46,0.13,-0.33,5.80,1.23,
2.343,0.61,-0.46,0.13,-0.36,4.41,1.39,
2.344,0.61,-0.46,0.13,-0.36,4.41,1.39,
2.344,1.09,-0.48,-0.18,-0.36,4.41,1.39,
2.345,1.09,-0.48,-0.18,-0.36,4.41,1.39,
2.353,1.09,-0.48,-0.18,-0.33,2.80,1.49,
2.354,1.09,-0.48,-0.18,-0.33,2.80,1.49,
2.354,1.44,-0.55,-0.65,-0.33,2.80,1.49,
2.355,1.44,-0.55,-0.65,-0.33,2.80,1.49,
2.364,1.44,-0.55,-0.65,-0.29,1.22,1.53,
2.365,1.44,-0.55,-0.65,-0.29,1.22,1.53,
2.366,1.46,-0.63,-1.12,-0.29,1.22,1.53,
2.366,1.46,-0.63,-1.12,-0.29,1.22,1.53,
2.371,1.46,-0.63,-1.12,-0.26,-0.08,1.51,
2.372,1.46,-0.63,-1.12,-0.26,-0.08,1.51,
2.373,1.20,-0.67,-1.59,-0.26,-0.08,1.51,
2.373,1.20,-0.67,-1.59,-0.26,-0.08,1.51,
2.381,1.20,-0.67,-1.59,-0.26,-1.04,1.44,
2.382,1.20,-0.67,-1.59,-0.26,-1.04,1.44,
2.383,0.90,-0.65,-1.96,-0.26,-1.04,1.44,
2.384,0.90,-0.65,-1.96,-0.26,-1.04,1.44,
2.391,0.90,-0.65,-1.96,-0.28,-1.73,1.35,
2.393,0.90,-0.65,-1.96,-0.28,-1.73,1.35,
2.395,0.64,-0.57,-2.06,-0.28,-1.73,1.35,
2.396,0.64,-0.57,-2.06,-0.28,-1.73,1.35,
2.4,0.64,-0.57,-2.06,-0.35,-2.24,1.23,
2.401,0.64,-0.57,-2.06,-0.35,-2.24,1.23,
2.401,0.55,-0.41,-1.90,-0.35,-2.24,1.23,
2.402,0.55,-0.41,-1.90,-0.35,-2.24,1.23,
2.409,0.55,-0.41,-1.90,-0.43,-2.59,1.11,
2.41,0.55,-0.41,-1.90,-0.43,-2.59,1.11,
2.411,0.60,-0.19,-1.47,-0.43,-2.59,1.11,
2.411,0.60,-0.19,-1.47,-0.43,-2.59,1.11,
2.419,0.60,-0.19,-1.47,-0.53,-2.76,0.96,
2.42,0.60,-0.19,-1.47,-0.53,-2.76,0.96,
2.421,0.62,-0.02,-1.01,-0.53,-2.76,0.96,
2.422,0.62,-0.02,-1.01,-0.53,-2.76,0.96,
2.428,0.62,-0.02,-1.01,-0.62,-2.74,0.78,
2.431,0.62,-0.02,-1.01,-0.62,-2.74,0.78,
2.432,0.86,0.01,-0.80,-0.62,-2.74,0.78,
2.433,0.86,0.01,-0.80,-0.62,-2.74,0.78,
2.438,0.86,0.01,-0.80,-0.68,-2.55,0.58,
2.439,0.86,0.01,-0.80,-0.68,-2.55,0.58,
2.439,0.99,-0.04,-0.88,-0.68,-2.55,0.58,
2.44,0.99,-0.04,-0.88,-0.68,-2.55,0.58,
2.447,0.99,-0.04,-0.88,-0.70,-2.24,0.38,
2.448,0.99,-0.04,-0.88,-0.70,-2.24,0.38,
2.448,0.82,-0.17,-1.18,-0.70,-2.24,0.38,
2.449,0.82,-0.17,-1.18,-0.70,-2.24,0.38,
2.463,0.82,-0.17,-1.18,-0.70,-1.91,0.23,
2.464,0.82,-0.17,-1.18,-0.70,-1.91,0.23,
2.465,0.40,-0.31,-1.35,-0.70,-1.91,0.23,
2.465,0.40,-0.31,-1.35,-0.70,-1.91,0.23,
2.467,0.40,-0.31,-1.35,-0.70,-1.91,0.23,
2.468,0.40,-0.31,-1.35,-0.70,-1.91,0.23,
2.469,0.40,-0.31,-1.35,-0.70,-1.91,0.23,
2.469,0.40,-0.31,-1.35,-0.70,-1.91,0.23,
2.477,0.40,-0.31,-1.35,-0.75,-1.44,0.12,
2.477,0.40,-0.31,-1.35,-0.75,-1.44,0.12,
2.478,-0.69,-0.47,-0.62,-0.75,-1.44,0.12,
2.478,-0.69,-0.47,-0.62,-0.75,-1.44,0.12,
2.486,-0.69,-0.47,-0.62,-0.75,-1.44,0.12,
2.487,-0.69,-0.47,-0.62,-0.75,-1.44,0.12,
2.487,-0.69,-0.47,-0.62,-0.75,-1.44,0.12,
2.488,-0.69,-0.47,-0.62,-0.75,-1.44,0.12,
2.496,-0.69,-0.47,-0.62,-0.81,-1.32,0.16,
2.497,-0.69,-0.47,-0.62,-0.81,-1.32,0.16,
2.497,-0.47,-0.74,1.75,-0.81,-1.32,0.16,
2.498,-0.47,-0.74,1.75,-0.81,-1.32,0.16,
2.505,-0.47,-0.74,1.75,-0.86,-1.15,0.22,
2.506,-0.47,-0.74,1.75,-0.86,-1.15,0.22,
2.506,-0.13,-0.94,2.34,-0.86,-1.15,0.22,
2.507,-0.13,-0.94,2.34,-0.86,-1.15,0.22,
2.515,-0.13,-0.94,2.34,-0.83,-0.78,0.27,
2.516,-0.13,-0.94,2.34,-0.83,-0.78,0.27,
2.517,0.08,-1.14,2.82,-0.83,-0.78,0.27,
2.517,0.08,-1.14,2.82,-0.83,-0.78,0.27,
2.525,0.08,-1.14,2.82,-0.72,-0.15,0.33,
2.526,0.08,-1.14,2.82,-0.72,-0.15,0.33,
2.526,0.18,-1.30,3.12,-0.72,-0.15,0.33,
2.527,0.18,-1.30,3.12,-0.72,-0.15,0.33,
2.534,0.18,-1.30,3.12,-0.57,0.63,0.41,
2.534,0.18,-1.30,3.12,-0.57,0.63,0.41,
2.535,0.20,-1.34,3.31,-0.57,0.63,0.41,
2.535,0.20,-1.34,3.31,-0.57,0.63,0.41,
2.543,0.20,-1.34,3.31,-0.44,1.38,0.52,
2.544,0.20,-1.34,3.31,-0.44,1.38,0.52,
2.545,0.18,-1.23,3.39,-0.44,1.38,0.52,
2.545,0.18,-1.23,3.39,-0.44,1.38,0.52,
2.552,0.18,-1.23,3.39,-0.34,1.97,0.62,
2.554,0.18,-1.23,3.39,-0.34,1.97,0.62,
2.555,0.10,-1.03,3.42,-0.34,1.97,0.62,
2.556,0.10,-1.03,3.42,-0.34,1.97,0.62,
2.57,0.10,-1.03,3.42,-0.27,2.37,0.69,
2.571,0.10,-1.03,3.42,-0.27,2.37,0.69,
2.572,-0.07,-0.83,3.44,-0.27,2.37,0.69,
2.572,-0.07,-0.83,3.44,-0.27,2.37,0.69,
2.572,-0.07,-0.83,3.44,-0.22,2.60,0.69,
2.573,-0.07,-0.83,3.44,-0.22,2.60,0.69,
2.573,-0.26,-0.67,3.53,-0.22,2.60,0.69,
2.573,-0.26,-0.67,3.53,-0.22,2.60,0.69,
2.581,-0.26,-0.67,3.53,-0.16,2.68,0.63,
2.582,-0.26,-0.67,3.53,-0.16,2.68,0.63,
2.582,-0.37,-0.53,3.81,-0.16,2.68,0.63,
2.582,-0.37,-0.53,3.81,-0.16,2.68,0.63,
2.591,-0.37,-0.53,3.81,-0.10,2.66,0.51,
2.592,-0.37,-0.53,3.81,-0.10,2.66,0.51,
2.592,-0.31,-0.46,4.24,-0.10,2.66,0.51,
2.593,-0.31,-0.46,4.24,-0.10,2.66,0.51,
2.6,-0.31,-0.46,4.24,-0.01,2.61,0.37,
2.601,-0.31,-0.46,4.24,-0.01,2.61,0.37,
2.601,-0.03,-0.41,4.67,-0.01,2.61,0.37,
2.602,-0.03,-0.41,4.67,-0.01,2.61,0.37,
2.611,-0.03,-0.41,4.67,0.12,2.59,0.23,
2.611,-0.03,-0.41,4.67,0.12,2.59,0.23,
2.612,0.41,-0.36,4.83,0.12,2.59,0.23,
2.612,0.41,-0.36,4.83,0.12,2.59,0.23,
2.619,0.41,-0.36,4.83,0.28,2.62,0.11,
2.619,0.41,-0.36,4.83,0.28,2.62,0.11,
2.619,0.72,-0.29,0.14,0.28,2.62,0.11,
2.62,0.72,-0.29,0.14,0.28,2.62,0.11,
2.629,0.72,-0.29,0.14,0.46,2.49,0.03,
2.63,0.72,-0.29,0.14,0.46,2.49,0.03,
2.63,0.94,0.06,-5.12,0.46,2.49,0.03,
2.63,0.94,0.06,-5.12,0.46,2.49,0.03,
2.638,0.94,0.06,-5.12,0.59,1.75,-0.04,
2.638,0.94,0.06,-5.12,0.59,1.75,-0.04,
2.639,1.14,0.62,-8.71,0.59,1.75,-0.04,
2.639,1.14,0.62,-8.71,0.59,1.75,-0.04,
2.647,1.14,0.62,-8.71,0.62,0.02,-0.13,
2.648,1.14,0.62,-8.71,0.62,0.02,-0.13,
2.648,1.21,1.18,-9.05,0.62,0.02,-0.13,
2.649,1.21,1.18,-9.05,0.62,0.02,-0.13,
2.662,1.21,1.18,-9.05,0.46,-2.46,-0.25,
2.663,1.21,1.18,-9.05,0.46,-2.46,-0.25,
2.664,1.24,1.59,-4.82,0.46,-2.46,-0.25,
2.665,1.24,1.59,-4.82,0.46,-2.46,-0.25,
2.669,1.24,1.59,-4.82,0.19,-4.71,-0.38,
2.669,1.24,1.59,-4.82,0.19,-4.71,-0.38,
2.67,0.99,1.52,-0.24,0.19,-4.71,-0.38,
2.67,0.99,1.52,-0.24,0.19,-4.71,-0.38,
2.676,0.99,1.52,-0.24,0.19,-4.71,-0.38,
2.677,0.99,1.52,-0.24,0.19,-4.71,-0.38,
2.677,0.99,1.52,-0.24,0.19,-4.71,-0.38,
2.678,0.99,1.52,-0.24,0.19,-4.71,-0.38,
2.686,0.99,1.52,-0.24,0.06,-5.78,-0.58,
2.686,0.99,1.52,-0.24,0.06,-5.78,-0.58,
2.687,-1.14,0.57,3.05,0.06,-5.78,-0.58,
2.687,-1.14,0.57,3.05,0.06,-5.78,-0.58,
2.695,-1.14,0.57,3.05,0.24,-5.41,-0.91,
2.696,-1.14,0.57,3.05,0.24,-5.41,-0.91,
2.696,-1.72,0.22,1.38,0.24,-5.41,-0.91,
2.697,-1.72,0.22,1.38,0.24,-5.41,-0.91,
2.705,-1.72,0.22,1.38,0.64,-4.17,-1.25,
2.705,-1.72,0.22,1.38,0.64,-4.17,-1.25,
2.706,-2.15,0.21,-3.08,0.64,-4.17,-1.25,
2.706,-2.15,0.21,-3.08,0.64,-4.17,-1.25,
2.714,-2.15,0.21,-3.08,1.05,-2.90,-1.44,
2.716,-2.15,0.21,-3.08,1.05,-2.90,-1.44,
2.716,-2.36,0.50,-6.68,1.05,-2.90,-1.44,
2.717,-2.36,0.50,-6.68,1.05,-2.90,-1.44,
2.724,-2.36,0.50,-6.68,1.32,-2.26,-1.41,
2.725,-2.36,0.50,-6.68,1.32,-2.26,-1.41,
2.726,-2.51,0.90,-9.10,1.32,-2.26,-1.41,
2.726,-2.51,0.90,-9.10,1.32,-2.26,-1.41,
2.734,-2.51,0.90,-9.10,1.40,-2.61,-1.26,
2.735,-2.51,0.90,-9.10,1.40,-2.61,-1.26,
2.736,-2.60,1.18,-9.32,1.40,-2.61,-1.26,
2.737,-2.60,1.18,-9.32,1.40,-2.61,-1.26,
2.743,-2.60,1.18,-9.32,1.34,-3.66,-1.10,
2.744,-2.60,1.18,-9.32,1.34,-3.66,-1.10,
2.744,-2.68,1.14,-6.15,1.34,-3.66,-1.10,
2.745,-2.68,1.14,-6.15,1.34,-3.66,-1.10,
2.753,-2.68,1.14,-6.15,1.23,-4.71,-1.02,
2.754,-2.68,1.14,-6.15,1.23,-4.71,-1.02,
2.754,-2.80,0.78,-4.33,1.23,-4.71,-1.02,
2.755,-2.80,0.78,-4.33,1.23,-4.71,-1.02,
2.763,-2.80,0.78,-4.33,1.21,-5.14,-1.10,
2.764,-2.80,0.78,-4.33,1.21,-5.14,-1.10,
2.765,-2.95,0.32,-2.98,1.21,-5.14,-1.10,
2.765,-2.95,0.32,-2.98,1.21,-5.14,-1.10,
2.772,-2.95,0.32,-2.98,1.27,-4.87,-1.28,
2.773,-2.95,0.32,-2.98,1.27,-4.87,-1.28,
2.773,-3.27,-0.01,-3.08,1.27,-4.87,-1.28,
2.774,-3.27,-0.01,-3.08,1.27,-4.87,-1.28,
2.785,-3.27,-0.01,-3.08,1.38,-4.14,-1.44,
2.786,-3.27,-0.01,-3.08,1.38,-4.14,-1.44,
2.787,-3.66,-0.12,-3.39,1.38,-4.14,-1.44,
2.787,-3.66,-0.12,-3.39,1.38,-4.14,-1.44,
2.793,-3.66,-0.12,-3.39,1.46,-3.30,-1.45,
2.794,-3.66,-0.12,-3.39,1.46,-3.30,-1.45,
2.794,-4.01,-0.07,-3.77,1.46,-3.30,-1.45,
2.794,-4.01,-0.07,-3.77,1.46,-3.30,-1.45,
2.8,-4.01,-0.07,-3.77,1.50,-2.62,-1.32,
2.801,-4.01,-0.07,-3.77,1.50,-2.62,-1.32,
2.801,-4.17,0.02,-3.99,1.50,-2.62,-1.32,
2.802,-4.17,0.02,-3.99,1.50,-2.62,-1.32,
2.81,-4.17,0.02,-3.99,1.48,-2.18,-1.12,
2.811,-4.17,0.02,-3.99,1.48,-2.18,-1.12,
2.811,-3.94,0.13,-4.06,1.48,-2.18,-1.12,
2.812,-3.94,0.13,-4.06,1.48,-2.18,-1.12,
2.82,-3.94,0.13,-4.06,1.41,-1.96,-0.92,
2.82,-3.94,0.13,-4.06,1.41,-1.96,-0.92,
2.821,-3.45,0.31,-4.16,1.41,-1.96,-0.92,
2.822,-3.45,0.31,-4.16,1.41,-1.96,-0.92,
2.829,-3.45,0.31,-4.16,1.30,-1.84,-0.78,
2.831,-3.45,0.31,-4.16,1.30,-1.84,-0.78,
2.832,-2.84,0.53,-4.20,1.30,-1.84,-0.78,
2.833,-2.84,0.53,-4.20,1.30,-1.84,-0.78,
2.838,-2.84,0.53,-4.20,1.19,-1.71,-0.72,
2.839,-2.84,0.53,-4.20,1.19,-1.71,-0.72,
2.84,-2.35,0.70,-4.18,1.19,-1.71,-0.72,
2.841,-2.35,0.70,-4.18,1.19,-1.71,-0.72,
2.848,-2.35,0.70,-4.18,1.05,-1.50,-0.72,
2.849,-2.35,0.70,-4.18,1.05,-1.50,-0.72,
2.85,-2.17,0.68,-4.05,1.05,-1.50,-0.72,
2.85,-2.17,0.68,-4.05,1.05,-1.50,-0.72,
2.867,-2.17,0.68,-4.05,0.91,-1.23,-0.76,
2.868,-2.17,0.68,-4.05,0.91,-1.23,-0.76,
2.869,-2.28,0.44,-3.81,0.91,-1.23,-0.76,
2.87,-2.28,0.44,-3.81,0.91,-1.23,-0.76,
2.871,-2.28,0.44,-3.81,0.78,-0.93,-0.81,
2.871,-2.28,0.44,-3.81,0.78,-0.93,-0.81,
2.871,-2.59,0.06,-3.46,0.78,-0.93,-0.81,
2.872,-2.59,0.06,-3.46,0.78,-0.93,-0.81,
2.888,-2.59,0.06,-3.46,0.78,-0.93,-0.81,
2.889,-2.59,0.06,-3.46,0.78,-0.93,-0.81,
2.89,-2.59,0.06,-3.46,0.78,-0.93,-0.81,
2.89,-2.59,0.06,-3.46,0.78,-0.93,-0.81,
2.89,-2.59,0.06,-3.46,0.78,-0.93,-0.81,
2.891,-2.59,0.06,-3.46,0.78,-0.93,-0.81,
2.891,-2.59,0.06,-3.46,0.78,-0.93,-0.81,
2.891,-2.59,0.06,-3.46,0.78,-0.93,-0.81,
2.895,-2.59,0.06,-3.46,0.65,-0.49,-0.67,
2.896,-2.59,0.06,-3.46,0.65,-0.49,-0.67,
2.896,-3.21,-2.15,-2.40,0.65,-0.49,-0.67,
2.897,-3.21,-2.15,-2.40,0.65,-0.49,-0.67,
2.904,-3.21,-2.15,-2.40,0.43,-0.36,0.46,
2.905,-3.21,-2.15,-2.40,0.43,-0.36,0.46,
2.906,-3.11,-2.12,-2.47,0.43,-0.36,0.46,
2.906,-3.11,-2.12,-2.47,0.43,-0.36,0.46,
2.915,-3.11,-2.12,-2.47,0.43,-0.36,0.46,
2.916,-3.11,-2.12,-2.47,0.43,-0.36,0.46,
2.916,-3.11,-2.12,-2.47,0.43,-0.36,0.46,
2.917,-3.11,-2.12,-2.47,0.43,-0.36,0.46,
2.924,-3.11,-2.12,-2.47,0.90,-0.49,1.66,
2.925,-3.11,-2.12,-2.47,0.90,-0.49,1.66,
2.926,-2.77,-1.50,-4.17,0.90,-0.49,1.66,
2.926,-2.77,-1.50,-4.17,0.90,-0.49,1.66,
2.933,-2.77,-1.50,-4.17,1.01,-0.67,1.78,
2.934,-2.77,-1.50,-4.17,1.01,-0.67,1.78,
2.934,-2.71,-1.36,-3.91,1.01,-0.67,1.78,
2.935,-2.71,-1.36,-3.91,1.01,-0.67,1.78,
2.943,-2.71,-1.36,-3.91,0.97,-0.89,1.62,
2.944,-2.71,-1.36,-3.91,0.97,-0.89,1.62,
2.945,-2.62,-1.30,-3.53,0.97,-0.89,1.62,
2.945,-2.62,-1.30,-3.53,0.97,-0.89,1.62,
2.952,-2.62,-1.30,-3.53,0.88,-1.09,1.35,
2.953,-2.62,-1.30,-3.53,0.88,-1.09,1.35,
2.954,-2.72,-1.25,-2.98,0.88,-1.09,1.35,
2.954,-2.72,-1.25,-2.98,0.88,-1.09,1.35,
2.962,-2.72,-1.25,-2.98,0.77,-1.19,1.06,
2.964,-2.72,-1.25,-2.98,0.77,-1.19,1.06,
2.964,-3.00,-1.17,-2.48,0.77,-1.19,1.06,
2.965,-3.00,-1.17,-2.48,0.77,-1.19,1.06,
2.971,-3.00,-1.17,-2.48,0.67,-1.17,0.78,
2.972,-3.00,-1.17,-2.48,0.67,-1.17,0.78,
2.972,-3.17,-1.16,-2.07,0.67,-1.17,0.78,
2.972,-3.17,-1.16,-2.07,0.67,-1.17,0.78,
2.981,-3.17,-1.16,-2.07,0.58,-1.11,0.55,
2.982,-3.17,-1.16,-2.07,0.58,-1.11,0.55,
2.983,-3.22,-1.32,-1.70,0.58,-1.11,0.55,
2.983,-3.22,-1.32,-1.70,0.58,-1.11,0.55,
2.991,-3.22,-1.32,-1.70,0.49,-1.04,0.39,
2.991,-3.22,-1.32,-1.70,0.49,-1.04,0.39,
2.992,-3.07,-1.53,-1.42,0.49,-1.04,0.39,
2.992,-3.07,-1.53,-1.42,0.49,-1.04,0.39,
3.0,-3.07,-1.53,-1.42,0.41,-0.96,0.29,
3.0,-3.07,-1.53,-1.42,0.41,-0.96,0.29,
3.001,-2.53,-1.66,-1.24,0.41,-0.96,0.29,
3.002,-2.53,-1.66,-1.24,0.41,-0.96,0.29,
3.009,-2.53,-1.66,-1.24,0.36,-0.88,0.28,
3.01,-2.53,-1.66,-1.24,0.36,-0.88,0.28,
3.011,-1.94,-1.64,-1.13,0.36,-0.88,0.28,
3.012,-1.94,-1.64,-1.13,0.36,-0.88,0.28,
3.019,-1.94,-1.64,-1.13,0.35,-0.74,0.31,
3.02,-1.94,-1.64,-1.13,0.35,-0.74,0.31,
3.021,-1.46,-1.41,-1.07,0.35,-0.74,0.31,
3.022,-1.46,-1.41,-1.07,0.35,-0.74,0.31,
3.028,-1.46,-1.41,-1.07,0.36,-0.54,0.34,
3.029,-1.46,-1.41,-1.07,0.36,-0.54,0.34,
3.03,-1.05,-1.10,-1.09,0.36,-0.54,0.34,
3.03,-1.05,-1.10,-1.09,0.36,-0.54,0.34,
3.037,-1.05,-1.10,-1.09,0.37,-0.28,0.31,
3.038,-1.05,-1.10,-1.09,0.37,-0.28,0.31,
3.039,-0.87,-0.84,-1.09,0.37,-0.28,0.31,
3.039,-0.87,-0.84,-1.09,0.37,-0.28,0.31,
3.047,-0.87,-0.84,-1.09,0.34,-0.01,0.21,
3.048,-0.87,-0.84,-1.09,0.34,-0.01,0.21,
3.049,-0.77,-0.66,-0.93,0.34,-0.01,0.21,
3.049,-0.77,-0.66,-0.93,0.34,-0.01,0.21,
3.061,-0.77,-0.66,-0.93,0.26,0.20,0.05,
3.062,-0.77,-0.66,-0.93,0.26,0.20,0.05,
3.062,-0.72,-0.54,-0.72,0.26,0.20,0.05,
3.063,-0.72,-0.54,-0.72,0.26,0.20,0.05,
3.067,-0.72,-0.54,-0.72,0.16,0.33,-0.12,
3.068,-0.72,-0.54,-0.72,0.16,0.33,-0.12,
3.068,-0.79,-0.44,-0.50,0.16,0.33,-0.12,
3.069,-0.79,-0.44,-0.50,0.16,0.33,-0.12,
3.076,-0.79,-0.44,-0.50,0.16,0.33,-0.12,
3.076,-0.79,-0.44,-0.50,0.16,0.33,-0.12,
3.077,-0.79,-0.44,-0.50,0.16,0.33,-0.12,
3.077,-0.79,-0.44,-0.50,0.16,0.33,-0.12,
3.085,-0.79,-0.44,-0.50,0.04,0.40,-0.27,
3.086,-0.79,-0.44,-0.50,0.04,0.40,-0.27,
3.087,-1.04,-0.36,-0.24,0.04,0.40,-0.27,
3.087,-1.04,-0.36,-0.24,0.04,0.40,-0.27,
3.095,-1.04,-0.36,-0.24,-0.06,0.40,-0.37,
3.096,-1.04,-0.36,-0.24,-0.06,0.40,-0.37,
3.097,-1.01,-0.32,-0.30,-0.06,0.40,-0.37,
3.097,-1.01,-0.32,-0.30,-0.06,0.40,-0.37,
3.104,-1.01,-0.32,-0.30,-0.16,0.34,-0.43,
3.105,-1.01,-0.32,-0.30,-0.16,0.34,-0.43,
3.105,-0.85,-0.24,-0.44,-0.16,0.34,-0.43,
3.106,-0.85,-0.24,-0.44,-0.16,0.34,-0.43,
3.114,-0.85,-0.24,-0.44,-0.23,0.24,-0.45,
3.115,-0.85,-0.24,-0.44,-0.23,0.24,-0.45,
3.115,-0.68,-0.05,-0.45,-0.23,0.24,-0.45,
3.116,-0.68,-0.05,-0.45,-0.23,0.24,-0.45,
3.124,-0.68,-0.05,-0.45,-0.29,0.11,-0.45,
3.125,-0.68,-0.05,-0.45,-0.29,0.11,-0.45,
3.125,-0.41,0.26,-0.57,-0.29,0.11,-0.45,
3.126,-0.41,0.26,-0.57,-0.29,0.11,-0.45,
3.133,-0.41,0.26,-0.57,-0.34,0.01,-0.46,
3.134,-0.41,0.26,-0.57,-0.34,0.01,-0.46,
3.134,-0.12,0.53,-0.54,-0.34,0.01,-0.46,
3.135,-0.12,0.53,-0.54,-0.34,0.01,-0.46,
3.143,-0.12,0.53,-0.54,-0.39,-0.06,-0.50,
3.143,-0.12,0.53,-0.54,-0.39,-0.06,-0.50,
3.144,0.12,0.80,-0.42,-0.39,-0.06,-0.50,
3.144,0.12,0.80,-0.42,-0.39,-0.06,-0.50,
3.152,0.12,0.80,-0.42,-0.44,-0.07,-0.60,
3.153,0.12,0.80,-0.42,-0.44,-0.07,-0.60,
3.153,0.29,1.01,-0.52,-0.44,-0.07,-0.60,
3.154,0.29,1.01,-0.52,-0.44,-0.07,-0.60,
3.162,0.29,1.01,-0.52,-0.49,-0.03,-0.73,
3.163,0.29,1.01,-0.52,-0.49,-0.03,-0.73,
3.163,0.24,1.12,-0.59,-0.49,-0.03,-0.73,
3.164,0.24,1.12,-0.59,-0.49,-0.03,-0.73,
3.171,0.24,1.12,-0.59,-0.52,0.04,-0.88,
3.172,0.24,1.12,-0.59,-0.52,0.04,-0.88,
3.172,0.08,1.26,-0.57,-0.52,0.04,-0.88,
3.172,0.08,1.26,-0.57,-0.52,0.04,-0.88,
3.181,0.08,1.26,-0.57,-0.53,0.10,-1.01,
3.182,0.08,1.26,-0.57,-0.53,0.10,-1.01,
3.183,-0.12,1.17,-0.48,-0.53,0.10,-1.01,
3.183,-0.12,1.17,-0.48,-0.53,0.10,-1.01,
3.193,-0.12,1.17,-0.48,-0.52,0.12,-1.11,
3.193,-0.12,1.17,-0.48,-0.52,0.12,-1.11,
3.194,-0.34,0.91,-0.29,-0.52,0.12,-1.11,
3.194,-0.34,0.91,-0.29,-0.52,0.12,-1.11,
3.2,-0.34,0.91,-0.29,-0.47,0.09,-1.16,
3.201,-0.34,0.91,-0.29,-0.47,0.09,-1.16,
3.201,-0.57,0.57,-0.08,-0.47,0.09,-1.16,
3.201,-0.57,0.57,-0.08,-0.47,0.09,-1.16,
3.21,-0.57,0.57,-0.08,-0.38,0.03,-1.14,
3.211,-0.57,0.57,-0.08,-0.38,0.03,-1.14,
3.211,-0.90,0.04,0.05,-0.38,0.03,-1.14,
3.211,-0.90,0.04,0.05,-0.38,0.03,-1.14,
3.219,-0.90,0.04,0.05,-0.25,-0.06,-1.04,
3.22,-0.90,0.04,0.05,-0.25,-0.06,-1.04,
3.22,-1.26,-0.38,0.16,-0.25,-0.06,-1.04,
3.22,-1.26,-0.38,0.16,-0.25,-0.06,-1.04,
3.228,-1.26,-0.38,0.16,-0.08,-0.17,-0.82,
3.229,-1.26,-0.38,0.16,-0.08,-0.17,-0.82,
3.229,-1.53,-0.78,0.27,-0.08,-0.17,-0.82,
3.229,-1.53,-0.78,0.27,-0.08,-0.17,-0.82,
3.238,-1.53,-0.78,0.27,0.13,-0.32,-0.50,
3.238,-1.53,-0.78,0.27,0.13,-0.32,-0.50,
3.239,-1.72,-1.11,0.43,0.13,-0.32,-0.50,
3.239,-1.72,-1.11,0.43,0.13,-0.32,-0.50,
3.247,-1.72,-1.11,0.43,0.36,-0.48,-0.11,
3.248,-1.72,-1.11,0.43,0.36,-0.48,-0.11,
3.248,-1.66,-1.24,0.60,0.36,-0.48,-0.11,
3.249,-1.66,-1.24,0.60,0.36,-0.48,-0.11,
3.263,-1.66,-1.24,0.60,0.58,-0.64,0.31,
3.263,-1.66,-1.24,0.60,0.58,-0.64,0.31,
3.263,-1.34,-1.29,0.60,0.58,-0.64,0.31,
3.264,-1.34,-1.29,0.60,0.58,-0.64,0.31,
3.266,-1.34,-1.29,0.60,0.58,-0.64,0.31,
3.267,-1.34,-1.29,0.60,0.58,-0.64,0.31,
3.267,-1.34,-1.29,0.60,0.58,-0.64,0.31,
3.267,-1.34,-1.29,0.60,0.58,-0.64,0.31,
3.278,-1.34,-1.29,0.60,0.77,-0.74,0.72,
3.279,-1.34,-1.29,0.60,0.77,-0.74,0.72,
3.279,-0.54,-1.22,0.31,0.77,-0.74,0.72,
3.279,-0.54,-1.22,0.31,0.77,-0.74,0.72,
3.285,-0.54,-1.22,0.31,0.91,-0.74,1.06,
3.285,-0.54,-1.22,0.31,0.91,-0.74,1.06,
3.286,-0.32,-1.23,0.27,0.91,-0.74,1.06,
3.286,-0.32,-1.23,0.27,0.91,-0.74,1.06,
3.295,-0.32,-1.23,0.27,0.99,-0.61,1.29,
3.295,-0.32,-1.23,0.27,0.99,-0.61,1.29,
3.296,-0.27,-1.19,0.30,0.99,-0.61,1.29,
3.296,-0.27,-1.19,0.30,0.99,-0.61,1.29,
3.304,-0.27,-1.19,0.30,0.99,-0.39,1.41,
3.304,-0.27,-1.19,0.30,0.99,-0.39,1.41,
3.305,-0.45,-1.07,0.34,0.99,-0.39,1.41,
3.305,-0.45,-1.07,0.34,0.99,-0.39,1.41,
3.313,-0.45,-1.07,0.34,0.94,-0.15,1.44,
3.314,-0.45,-1.07,0.34,0.94,-0.15,1.44,
3.314,-0.68,-0.93,0.40,0.94,-0.15,1.44,
3.315,-0.68,-0.93,0.40,0.94,-0.15,1.44,
3.326,-0.68,-0.93,0.40,0.84,0.04,1.43,
3.327,-0.68,-0.93,0.40,0.84,0.04,1.43,
3.328,-0.73,-0.84,0.47,0.84,0.04,1.43,
3.328,-0.73,-0.84,0.47,0.84,0.04,1.43,
3.333,-0.73,-0.84,0.47,0.70,0.14,1.38,
3.333,-0.73,-0.84,0.47,0.70,0.14,1.38,
3.334,-0.73,-0.86,0.60,0.70,0.14,1.38,
3.334,-0.73,-0.86,0.60,0.70,0.14,1.38,
3.342,-0.73,-0.86,0.60,0.54,0.17,1.29,
3.343,-0.73,-0.86,0.60,0.54,0.17,1.29,
3.344,-0.63,-1.05,0.83,0.54,0.17,1.29,
3.344,-0.63,-1.05,0.83,0.54,0.17,1.29,
3.352,-0.63,-1.05,0.83,0.40,0.18,1.19,
3.352,-0.63,-1.05,0.83,0.40,0.18,1.19,
3.353,-0.55,-1.34,1.01,0.40,0.18,1.19,
3.353,-0.55,-1.34,1.01,0.40,0.18,1.19,
3.362,-0.55,-1.34,1.01,0.29,0.21,1.12,
3.362,-0.55,-1.34,1.01,0.29,0.21,1.12,
3.363,-0.48,-1.63,1.11,0.29,0.21,1.12,
3.363,-0.48,-1.63,1.11,0.29,0.21,1.12,
3.371,-0.48,-1.63,1.11,0.22,0.29,1.11,
3.372,-0.48,-1.63,1.11,0.22,0.29,1.11,
3.372,-0.32,-1.85,1.15,0.22,0.29,1.11,
3.373,-0.32,-1.85,1.15,0.22,0.29,1.11,
3.381,-0.32,-1.85,1.15,0.18,0.40,1.21,
3.382,-0.32,-1.85,1.15,0.18,0.40,1.21,
3.382,-0.51,-2.03,1.16,0.18,0.40,1.21,
3.383,-0.51,-2.03,1.16,0.18,0.40,1.21,
3.393,-0.51,-2.03,1.16,0.16,0.53,1.40,
3.394,-0.51,-2.03,1.16,0.16,0.53,1.40,
3.394,-6.36,-3.73,1.55,0.16,0.53,1.40,
3.395,-6.36,-3.73,1.55,0.16,0.53,1.40,
3.399,-6.36,-3.73,1.55,0.14,0.49,1.75,
3.4,-6.36,-3.73,1.55,0.14,0.49,1.75,
3.4,-6.29,-3.87,3.17,0.14,0.49,1.75,
3.4,-6.29,-3.87,3.17,0.14,0.49,1.75,
3.409,-6.29,-3.87,3.17,0.16,0.11,2.46,
3.409,-6.29,-3.87,3.17,0.16,0.11,2.46,
3.41,-3.65,-3.65,3.24,0.16,0.11,2.46,
3.41,-3.65,-3.65,3.24,0.16,0.11,2.46,
3.418,-3.65,-3.65,3.24,0.26,-0.53,3.55,
3.419,-3.65,-3.65,3.24,0.26,-0.53,3.55,
3.42,0.30,-0.51,2.89,0.26,-0.53,3.55,
3.42,0.30,-0.51,2.89,0.26,-0.53,3.55,
3.428,0.30,-0.51,2.89,0.42,-0.90,4.53,
3.429,0.30,-0.51,2.89,0.42,-0.90,4.53,
3.43,7.82,3.32,0.97,0.42,-0.90,4.53,
3.43,7.82,3.32,0.97,0.42,-0.90,4.53,
3.438,7.82,3.32,0.97,0.39,-0.41,4.25,
3.439,7.82,3.32,0.97,0.39,-0.41,4.25,
3.439,8.07,5.04,-1.12,0.39,-0.41,4.25,
3.44,8.07,5.04,-1.12,0.39,-0.41,4.25,
3.447,8.07,5.04,-1.12,-0.13,0.99,2.22,
3.448,8.07,5.04,-1.12,-0.13,0.99,2.22,
3.449,6.22,5.13,-1.31,-0.13,0.99,2.22,
3.45,6.22,5.13,-1.31,-0.13,0.99,2.22,
3.462,6.22,5.13,-1.31,-0.13,0.99,2.22,
3.463,6.22,5.13,-1.31,-0.13,0.99,2.22,
3.463,6.22,5.13,-1.31,-0.13,0.99,2.22,
3.464,6.22,5.13,-1.31,-0.13,0.99,2.22,
3.466,6.22,5.13,-1.31,-1.00,2.56,-0.54,
3.467,6.22,5.13,-1.31,-1.00,2.56,-0.54,
3.468,1.90,2.84,-0.48,-1.00,2.56,-0.54,
3.468,1.90,2.84,-0.48,-1.00,2.56,-0.54,
3.475,1.90,2.84,-0.48,-1.76,3.44,-2.61,
3.476,1.90,2.84,-0.48,-1.76,3.44,-2.61,
3.476,1.62,2.35,0.10,-1.76,3.44,-2.61,
3.477,1.62,2.35,0.10,-1.76,3.44,-2.61,
3.485,1.62,2.35,0.10,-2.16,3.38,-3.49,
3.486,1.62,2.35,0.10,-2.16,3.38,-3.49,
3.486,1.39,2.02,0.48,-2.16,3.38,-3.49,
3.487,1.39,2.02,0.48,-2.16,3.38,-3.49,
3.495,1.39,2.02,0.48,-2.24,2.78,-3.51,
3.496,1.39,2.02,0.48,-2.24,2.78,-3.51,
3.496,1.30,1.93,0.58,-2.24,2.78,-3.51,
3.497,1.30,1.93,0.58,-2.24,2.78,-3.51,
3.505,1.30,1.93,0.58,-2.02,2.08,-3.12,
3.506,1.30,1.93,0.58,-2.02,2.08,-3.12,
3.506,1.41,2.23,0.53,-2.02,2.08,-3.12,
3.507,1.41,2.23,0.53,-2.02,2.08,-3.12,
3.514,1.41,2.23,0.53,-1.73,1.51,-2.63,
3.515,1.41,2.23,0.53,-1.73,1.51,-2.63,
3.516,1.58,2.69,0.53,-1.73,1.51,-2.63,
3.517,1.58,2.69,0.53,-1.73,1.51,-2.63,
3.524,1.58,2.69,0.53,-1.51,1.10,-2.23,
3.525,1.58,2.69,0.53,-1.51,1.10,-2.23,
3.525,1.79,4.33,0.30,-1.51,1.10,-2.23,
3.526,1.79,4.33,0.30,-1.51,1.10,-2.23,
3.533,1.79,4.33,0.30,-1.32,0.82,-2.00,
3.534,1.79,4.33,0.30,-1.32,0.82,-2.00,
3.534,1.89,4.54,0.06,-1.32,0.82,-2.00,
3.535,1.89,4.54,0.06,-1.32,0.82,-2.00,
3.542,1.89,4.54,0.06,-1.09,0.64,-2.01,
3.543,1.89,4.54,0.06,-1.09,0.64,-2.01,
3.544,1.87,4.58,-0.26,-1.09,0.64,-2.01,
3.544,1.87,4.58,-0.26,-1.09,0.64,-2.01,
3.552,1.87,4.58,-0.26,-0.92,0.52,-2.21,
3.553,1.87,4.58,-0.26,-0.92,0.52,-2.21,
3.553,1.68,4.37,-0.59,-0.92,0.52,-2.21,
3.554,1.68,4.37,-0.59,-0.92,0.52,-2.21,
3.561,1.68,4.37,-0.59,-0.86,0.41,-2.44,
3.562,1.68,4.37,-0.59,-0.86,0.41,-2.44,
3.563,1.38,2.84,-0.62,-0.86,0.41,-2.44,
3.563,1.38,2.84,-0.62,-0.86,0.41,-2.44,
3.571,1.38,2.84,-0.62,-0.76,0.27,-2.49,
3.571,1.38,2.84,-0.62,-0.76,0.27,-2.49,
3.572,1.06,2.45,-0.61,-0.76,0.27,-2.49,
3.572,1.06,2.45,-0.61,-0.76,0.27,-2.49,
3.581,1.06,2.45,-0.61,-0.62,0.06,-2.25,
3.582,1.06,2.45,-0.61,-0.62,0.06,-2.25,
3.582,0.72,1.90,-0.51,-0.62,0.06,-2.25,
3.583,0.72,1.90,-0.51,-0.62,0.06,-2.25,
3.601,0.72,1.90,-0.51,-0.46,-0.19,-1.75,
3.601,0.72,1.90,-0.51,-0.46,-0.19,-1.75,
3.602,0.38,1.39,-0.37,-0.46,-0.19,-1.75,
3.602,0.38,1.39,-0.37,-0.46,-0.19,-1.75,
3.602,0.38,1.39,-0.37,-0.28,-0.45,-1.11,
3.603,0.38,1.39,-0.37,-0.28,-0.45,-1.11,
3.603,-0.07,0.90,-0.36,-0.28,-0.45,-1.11,
3.603,-0.07,0.90,-0.36,-0.28,-0.45,-1.11,
3.609,-0.07,0.90,-0.36,-0.11,-0.69,-0.46,
3.61,-0.07,0.90,-0.36,-0.11,-0.69,-0.46,
3.61,-0.35,0.55,-0.27,-0.11,-0.69,-0.46,
3.611,-0.35,0.55,-0.27,-0.11,-0.69,-0.46,
3.619,-0.35,0.55,-0.27,-0.01,-0.89,0.15,
3.62,-0.35,0.55,-0.27,-0.01,-0.89,0.15,
3.62,-0.33,0.38,-0.04,-0.01,-0.89,0.15,
3.621,-0.33,0.38,-0.04,-0.01,-0.89,0.15,
3.628,-0.33,0.38,-0.04,0.03,-1.07,0.70,
3.629,-0.33,0.38,-0.04,0.03,-1.07,0.70,
3.63,0.00,0.18,0.26,0.03,-1.07,0.70,
3.631,0.00,0.18,0.26,0.03,-1.07,0.70,
3.638,0.00,0.18,0.26,0.07,-1.16,1.14,
3.639,0.00,0.18,0.26,0.07,-1.16,1.14,
3.639,0.54,-0.27,0.34,0.07,-1.16,1.14,
3.64,0.54,-0.27,0.34,0.07,-1.16,1.14,
3.648,0.54,-0.27,0.34,0.20,-1.12,1.45,
3.649,0.54,-0.27,0.34,0.20,-1.12,1.45,
3.65,0.95,-1.82,0.63,0.20,-1.12,1.45,
3.65,0.95,-1.82,0.63,0.20,-1.12,1.45,
3.663,0.95,-1.82,0.63,0.43,-0.92,1.68,
3.664,0.95,-1.82,0.63,0.43,-0.92,1.68,
3.665,1.30,-2.37,1.16,0.43,-0.92,1.68,
3.666,1.30,-2.37,1.16,0.43,-0.92,1.68,
3.667,1.30,-2.37,1.16,0.43,-0.92,1.68,
3.668,1.30,-2.37,1.16,0.43,-0.92,1.68,
3.668,1.30,-2.37,1.16,0.43,-0.92,1.68,
3.669,1.30,-2.37,1.16,0.43,-0.92,1.68,
3.675,1.30,-2.37,1.16,0.73,-0.58,1.93,
3.677,1.30,-2.37,1.16,0.73,-0.58,1.93,
3.678,1.50,-3.41,4.93,0.73,-0.58,1.93,
3.679,1.50,-3.41,4.93,0.73,-0.58,1.93,
3.686,1.50,-3.41,4.93,1.14,-0.07,2.21,
3.686,1.50,-3.41,4.93,1.14,-0.07,2.21,
3.687,1.24,-5.23,4.89,1.14,-0.07,2.21,
3.687,1.24,-5.23,4.89,1.14,-0.07,2.21,
3.695,1.24,-5.23,4.89,1.20,0.66,1.92,
3.696,1.24,-5.23,4.89,1.20,0.66,1.92,
3.697,0.83,-6.94,2.72,1.20,0.66,1.92,
3.697,0.83,-6.94,2.72,1.20,0.66,1.92,
3.705,0.83,-6.94,2.72,1.49,0.93,1.14,
3.706,0.83,-6.94,2.72,1.49,0.93,1.14,
3.707,0.55,-7.50,0.20,1.49,0.93,1.14,
3.707,0.55,-7.50,0.20,1.49,0.93,1.14,
3.714,0.55,-7.50,0.20,2.37,0.78,0.43,
3.716,0.55,-7.50,0.20,2.37,0.78,0.43,
3.716,0.45,-6.17,-1.46,2.37,0.78,0.43,
3.717,0.45,-6.17,-1.46,2.37,0.78,0.43,
3.724,0.45,-6.17,-1.46,2.31,0.69,0.59,
3.725,0.45,-6.17,-1.46,2.31,0.69,0.59,
3.725,0.21,-3.74,-1.76,2.31,0.69,0.59,
3.726,0.21,-3.74,-1.76,2.31,0.69,0.59,
3.732,0.21,-3.74,-1.76,1.51,0.65,1.37,
3.733,0.21,-3.74,-1.76,1.51,0.65,1.37,
3.734,-0.39,-1.38,-1.69,1.51,0.65,1.37,
3.735,-0.39,-1.38,-1.69,1.51,0.65,1.37,
3.743,-0.39,-1.38,-1.69,1.01,0.29,1.54,
3.744,-0.39,-1.38,-1.69,1.01,0.29,1.54,
3.744,-1.96,-1.02,-1.29,1.01,0.29,1.54,
3.745,-1.96,-1.02,-1.29,1.01,0.29,1.54,
3.752,-1.96,-1.02,-1.29,0.50,-0.49,1.19,
3.753,-1.96,-1.02,-1.29,0.50,-0.49,1.19,
3.753,-2.23,-0.81,-0.91,0.50,-0.49,1.19,
3.754,-2.23,-0.81,-0.91,0.50,-0.49,1.19,
3.764,-2.23,-0.81,-0.91,-0.18,-1.16,0.58,
3.765,-2.23,-0.81,-0.91,-0.18,-1.16,0.58,
3.765,-2.29,-0.69,-0.67,-0.18,-1.16,0.58,
3.766,-2.29,-0.69,-0.67,-0.18,-1.16,0.58,
3.772,-2.29,-0.69,-0.67,-0.80,-1.72,-0.03,
3.773,-2.29,-0.69,-0.67,-0.80,-1.72,-0.03,
3.773,-2.02,-0.59,-0.49,-0.80,-1.72,-0.03,
3.774,-2.02,-0.59,-0.49,-0.80,-1.72,-0.03,
3.785,-2.02,-0.59,-0.49,-1.26,-2.12,-0.53,
3.786,-2.02,-0.59,-0.49,-1.26,-2.12,-0.53,
3.786,-1.46,-0.28,-0.28,-1.26,-2.12,-0.53,
3.786,-1.46,-0.28,-0.28,-1.26,-2.12,-0.53,
3.804,-1.46,-0.28,-0.28,-1.20,-2.14,-0.95,
3.804,-1.46,-0.28,-0.28,-1.20,-2.14,-0.95,
3.804,-0.93,0.14,-0.22,-1.20,-2.14,-0.95,
3.805,-0.93,0.14,-0.22,-1.20,-2.14,-0.95,
3.805,-0.93,0.14,-0.22,-0.75,-1.92,-1.35,
3.805,-0.93,0.14,-0.22,-0.75,-1.92,-1.35,
3.805,-0.51,0.26,-0.16,-0.75,-1.92,-1.35,
3.806,-0.51,0.26,-0.16,-0.75,-1.92,-1.35,
3.809,-0.51,0.26,-0.16,-0.66,-1.67,-1.78,
3.809,-0.51,0.26,-0.16,-0.66,-1.67,-1.78,
3.809,-0.04,0.33,-0.04,-0.66,-1.67,-1.78,
3.81,-0.04,0.33,-0.04,-0.66,-1.67,-1.78,
3.818,-0.04,0.33,-0.04,-0.85,-1.31,-2.19,
3.819,-0.04,0.33,-0.04,-0.85,-1.31,-2.19,
3.819,0.05,0.02,-0.33,-0.85,-1.31,-2.19,
3.819,0.05,0.02,-0.33,-0.85,-1.31,-2.19,
3.828,0.05,0.02,-0.33,-0.95,-1.13,-2.51,
3.828,0.05,0.02,-0.33,-0.95,-1.13,-2.51,
3.829,0.11,-0.45,-3.81,-0.95,-1.13,-2.51,
3.829,0.11,-0.45,-3.81,-0.95,-1.13,-2.51,
3.838,0.11,-0.45,-3.81,-0.98,-0.96,-2.64,
3.838,0.11,-0.45,-3.81,-0.98,-0.96,-2.64,
3.839,0.12,-0.61,-3.48,-0.98,-0.96,-2.64,
3.84,0.12,-0.61,-3.48,-0.98,-0.96,-2.64,
3.848,0.12,-0.61,-3.48,-0.96,-0.72,-2.51,
3.849,0.12,-0.61,-3.48,-0.96,-0.72,-2.51,
3.849,-0.36,-0.72,-1.23,-0.96,-0.72,-2.51,
3.85,-0.36,-0.72,-1.23,-0.96,-0.72,-2.51,
3.861,-0.36,-0.72,-1.23,-0.96,-0.72,-2.51,
3.862,-0.36,-0.72,-1.23,-0.96,-0.72,-2.51,
3.863,-0.36,-0.72,-1.23,-0.96,-0.72,-2.51,
3.863,-0.36,-0.72,-1.23,-0.96,-0.72,-2.51,
3.866,-0.36,-0.72,-1.23,-0.94,-0.70,-2.17,
3.867,-0.36,-0.72,-1.23,-0.94,-0.70,-2.17,
3.867,-1.03,-0.45,3.46,-0.94,-0.70,-2.17,
3.868,-1.03,-0.45,3.46,-0.94,-0.70,-2.17,
3.888,-1.03,-0.45,3.46,-0.90,-0.69,-1.75,
3.889,-1.03,-0.45,3.46,-0.90,-0.69,-1.75,
3.89,-1.07,-0.39,1.95,-0.90,-0.69,-1.75,
3.89,-1.07,-0.39,1.95,-0.90,-0.69,-1.75,
3.891,-1.07,-0.39,1.95,-0.90,-0.69,-1.75,
3.891,-1.07,-0.39,1.95,-0.90,-0.69,-1.75,
3.892,-1.07,-0.39,1.95,-0.90,-0.69,-1.75,
3.892,-1.07,-0.39,1.95,-0.90,-0.69,-1.75,
3.894,-1.07,-0.39,1.95,-0.77,-0.13,-1.12,
3.895,-1.07,-0.39,1.95,-0.77,-0.13,-1.12,
3.895,-0.33,-0.24,-0.10,-0.77,-0.13,-1.12,
3.896,-0.33,-0.24,-0.10,-0.77,-0.13,-1.12,
3.904,-0.33,-0.24,-0.10,-0.68,0.50,-0.85,
3.904,-0.33,-0.24,-0.10,-0.68,0.50,-0.85,
3.905,-0.17,-0.14,-0.56,-0.68,0.50,-0.85,
3.905,-0.17,-0.14,-0.56,-0.68,0.50,-0.85,
3.914,-0.17,-0.14,-0.56,-0.68,0.50,-0.85,
3.915,-0.17,-0.14,-0.56,-0.68,0.50,-0.85,
3.916,-0.17,-0.14,-0.56,-0.68,0.50,-0.85,
3.916,-0.17,-0.14,-0.56,-0.68,0.50,-0.85,
3.924,-0.17,-0.14,-0.56,-0.61,0.45,-0.70,
3.925,-0.17,-0.14,-0.56,-0.61,0.45,-0.70,
3.926,-0.17,0.62,-1.06,-0.61,0.45,-0.70,
3.926,-0.17,0.62,-1.06,-0.61,0.45,-0.70,
3.932,-0.17,0.62,-1.06,-0.58,0.33,-0.71,
3.933,-0.17,0.62,-1.06,-0.58,0.33,-0.71,
3.933,-0.18,0.95,-0.85,-0.58,0.33,-0.71,
3.934,-0.18,0.95,-0.85,-0.58,0.33,-0.71,
3.942,-0.18,0.95,-0.85,-0.57,0.20,-0.77,
3.943,-0.18,0.95,-0.85,-0.57,0.20,-0.77,
3.943,-0.04,1.41,-0.72,-0.57,0.20,-0.77,
3.944,-0.04,1.41,-0.72,-0.57,0.20,-0.77,
3.952,-0.04,1.41,-0.72,-0.61,0.09,-0.86,
3.953,-0.04,1.41,-0.72,-0.61,0.09,-0.86,
3.954,0.08,1.53,-0.21,-0.61,0.09,-0.86,
3.954,0.08,1.53,-0.21,-0.61,0.09,-0.86,
3.961,0.08,1.53,-0.21,-0.68,0.05,-0.95,
3.962,0.08,1.53,-0.21,-0.68,0.05,-0.95,
3.962,0.41,1.93,0.23,-0.68,0.05,-0.95,
3.963,0.41,1.93,0.23,-0.68,0.05,-0.95,
3.97,0.41,1.93,0.23,-0.77,0.10,-1.03,
3.971,0.41,1.93,0.23,-0.77,0.10,-1.03,
3.971,0.62,2.28,0.50,-0.77,0.10,-1.03,
3.971,0.62,2.28,0.50,-0.77,0.10,-1.03,
3.98,0.62,2.28,0.50,-0.87,0.24,-1.12,
3.981,0.62,2.28,0.50,-0.87,0.24,-1.12,
3.981,0.55,2.65,0.82,-0.87,0.24,-1.12,
3.982,0.55,2.65,0.82,-0.87,0.24,-1.12,
3.994,0.55,2.65,0.82,-0.97,0.46,-1.23,
3.995,0.55,2.65,0.82,-0.97,0.46,-1.23,
3.996,0.38,3.12,1.05,-0.97,0.46,-1.23,
3.996,0.38,3.12,1.05,-0.97,0.46,-1.23,
3.999,0.38,3.12,1.05,-1.07,0.69,-1.37,
3.999,0.38,3.12,1.05,-1.07,0.69,-1.37,
4.0,0.15,3.68,1.36,-1.07,0.69,-1.37,
4.0,0.15,3.68,1.36,-1.07,0.69,-1.37,
4.008,0.15,3.68,1.36,-1.17,0.89,-1.55,
4.009,0.15,3.68,1.36,-1.17,0.89,-1.55,
4.009,0.03,4.22,1.71,-1.17,0.89,-1.55,
4.009,0.03,4.22,1.71,-1.17,0.89,-1.55,
4.018,0.03,4.22,1.71,-1.29,1.04,-1.77,
4.019,0.03,4.22,1.71,-1.29,1.04,-1.77,
4.019,-0.02,4.58,2.19,-1.29,1.04,-1.77,
4.02,-0.02,4.58,2.19,-1.29,1.04,-1.77,
4.027,-0.02,4.58,2.19,-1.41,1.15,-2.05,
4.029,-0.02,4.58,2.19,-1.41,1.15,-2.05,
4.029,-0.25,4.65,2.61,-1.41,1.15,-2.05,
4.03,-0.25,4.65,2.61,-1.41,1.15,-2.05,
4.037,-0.25,4.65,2.61,-1.51,1.27,-2.36,
4.038,-0.25,4.65,2.61,-1.51,1.27,-2.36,
4.039,-0.56,4.38,2.82,-1.51,1.27,-2.36,
4.039,-0.56,4.38,2.82,-1.51,1.27,-2.36,
4.05,-0.56,4.38,2.82,-1.55,1.41,-2.67,
4.051,-0.56,4.38,2.82,-1.55,1.41,-2.67,
4.052,-0.88,2.73,2.98,-1.55,1.41,-2.67,
4.053,-0.88,2.73,2.98,-1.55,1.41,-2.67,
4.057,-0.88,2.73,2.98,-1.55,1.41,-2.67,
4.058,-0.88,2.73,2.98,-1.55,1.41,-2.67,
4.059,-0.88,2.73,2.98,-1.55,1.41,-2.67,
4.059,-0.88,2.73,2.98,-1.55,1.41,-2.67,
4.066,-0.88,2.73,2.98,-1.51,1.52,-2.84,
4.067,-0.88,2.73,2.98,-1.51,1.52,-2.84,
4.067,-0.97,0.27,2.43,-1.51,1.52,-2.84,
4.068,-0.97,0.27,2.43,-1.51,1.52,-2.84,
4.076,-0.97,0.27,2.43,-1.33,1.52,-2.71,
4.076,-0.97,0.27,2.43,-1.33,1.52,-2.71,
4.077,-0.76,-1.39,0.81,-1.33,1.52,-2.71,
4.077,-0.76,-1.39,0.81,-1.33,1.52,-2.71,
4.085,-0.76,-1.39,0.81,-0.94,1.31,-2.06,
4.085,-0.76,-1.39,0.81,-0.94,1.31,-2.06,
4.085,-0.55,-2.95,0.35,-0.94,1.31,-2.06,
4.086,-0.55,-2.95,0.35,-0.94,1.31,-2.06,
4.095,-0.55,-2.95,0.35,-0.32,0.84,-0.83,
4.096,-0.55,-2.95,0.35,-0.32,0.84,-0.83,
4.096,-0.29,-3.33,-1.18,-0.32,0.84,-0.83,
4.096,-0.29,-3.33,-1.18,-0.32,0.84,-0.83,
4.104,-0.29,-3.33,-1.18,0.47,0.19,0.78,
4.105,-0.29,-3.33,-1.18,0.47,0.19,0.78,
4.105,-0.02,-3.42,-1.45,0.47,0.19,0.78,
4.105,-0.02,-3.42,-1.45,0.47,0.19,0.78,
4.114,-0.02,-3.42,-1.45,1.26,-0.46,2.36,
4.115,-0.02,-3.42,-1.45,1.26,-0.46,2.36,
4.116,0.23,-3.02,-1.60,1.26,-0.46,2.36,
4.116,0.23,-3.02,-1.60,1.26,-0.46,2.36,
4.123,0.23,-3.02,-1.60,1.86,-0.97,3.53,
4.124,0.23,-3.02,-1.60,1.86,-0.97,3.53,
4.124,0.43,-1.03,-1.36,1.86,-0.97,3.53,
4.124,0.43,-1.03,-1.36,1.86,-0.97,3.53,
4.132,0.43,-1.03,-1.36,2.16,-1.25,4.07,
4.133,0.43,-1.03,-1.36,2.16,-1.25,4.07,
4.133,0.43,0.58,0.32,2.16,-1.25,4.07,
4.134,0.43,0.58,0.32,2.16,-1.25,4.07,
4.141,0.43,0.58,0.32,2.13,-1.30,3.91,
4.142,0.43,0.58,0.32,2.13,-1.30,3.91,
4.142,0.24,1.14,0.72,2.13,-1.30,3.91,
4.143,0.24,1.14,0.72,2.13,-1.30,3.91,
4.151,0.24,1.14,0.72,1.83,-1.14,3.15,
4.152,0.24,1.14,0.72,1.83,-1.14,3.15,
4.153,-0.17,1.66,2.17,1.83,-1.14,3.15,
4.153,-0.17,1.66,2.17,1.83,-1.14,3.15,
4.16,-0.17,1.66,2.17,1.38,-0.82,2.05,
4.162,-0.17,1.66,2.17,1.38,-0.82,2.05,
4.163,-0.70,1.82,2.41,1.38,-0.82,2.05,
4.163,-0.70,1.82,2.41,1.38,-0.82,2.05,
4.171,-0.70,1.82,2.41,0.92,-0.42,0.89,
4.171,-0.70,1.82,2.41,0.92,-0.42,0.89,
4.172,-1.17,1.48,2.45,0.92,-0.42,0.89,
4.172,-1.17,1.48,2.45,0.92,-0.42,0.89,
4.18,-1.17,1.48,2.45,0.53,-0.03,-0.14,
4.182,-1.17,1.48,2.45,0.53,-0.03,-0.14,
4.182,-1.53,-0.45,2.11,0.53,-0.03,-0.14,
4.183,-1.53,-0.45,2.11,0.53,-0.03,-0.14,
4.202,-1.53,-0.45,2.11,0.26,0.25,-0.88,
4.202,-1.53,-0.45,2.11,0.26,0.25,-0.88,
4.203,-1.67,-1.04,0.59,0.26,0.25,-0.88,
4.203,-1.67,-1.04,0.59,0.26,0.25,-0.88,
4.203,-1.67,-1.04,0.59,0.18,0.32,-1.20,
4.203,-1.67,-1.04,0.59,0.18,0.32,-1.20,
4.204,-1.54,-2.56,0.17,0.18,0.32,-1.20,
4.204,-1.54,-2.56,0.17,0.18,0.32,-1.20,
4.209,-1.54,-2.56,0.17,0.27,0.13,-0.99,
4.209,-1.54,-2.56,0.17,0.27,0.13,-0.99,
4.21,-1.37,-2.85,-0.34,0.27,0.13,-0.99,
4.21,-1.37,-2.85,-0.34,0.27,0.13,-0.99,
4.218,-1.37,-2.85,-0.34,0.51,-0.26,-0.33,
4.219,-1.37,-2.85,-0.34,0.51,-0.26,-0.33,
4.219,-1.18,-3.00,-0.69,0.51,-0.26,-0.33,
4.22,-1.18,-3.00,-0.69,0.51,-0.26,-0.33,
4.227,-1.18,-3.00,-0.69,0.78,-0.67,0.52,
4.229,-1.18,-3.00,-0.69,0.78,-0.67,0.52,
4.229,-1.20,-3.00,-0.80,0.78,-0.67,0.52,
4.23,-1.20,-3.00,-0.80,0.78,-0.67,0.52,
4.238,-1.20,-3.00,-0.80,1.02,-0.99,1.26,
4.239,-1.20,-3.00,-0.80,1.02,-0.99,1.26,
4.239,-1.46,-3.05,-0.80,1.02,-0.99,1.26,
4.24,-1.46,-3.05,-0.80,1.02,-0.99,1.26,
4.248,-1.46,-3.05,-0.80,1.19,-1.18,1.75,
4.25,-1.46,-3.05,-0.80,1.19,-1.18,1.75,
4.251,-1.49,-2.86,-0.57,1.19,-1.18,1.75,
4.252,-1.49,-2.86,-0.57,1.19,-1.18,1.75,
4.257,-1.49,-2.86,-0.57,1.19,-1.18,1.75,
4.258,-1.49,-2.86,-0.57,1.19,-1.18,1.75,
4.259,-1.49,-2.86,-0.57,1.19,-1.18,1.75,
4.259,-1.49,-2.86,-0.57,1.19,-1.18,1.75,
4.265,-1.49,-2.86,-0.57,1.25,-1.28,1.99,
4.266,-1.49,-2.86,-0.57,1.25,-1.28,1.99,
4.266,-1.93,-2.69,-0.12,1.25,-1.28,1.99,
4.267,-1.93,-2.69,-0.12,1.25,-1.28,1.99,
4.278,-1.93,-2.69,-0.12,1.23,-1.30,2.04,
4.279,-1.93,-2.69,-0.12,1.23,-1.30,2.04,
4.279,-1.94,-2.63,0.04,1.23,-1.30,2.04,
4.28,-1.94,-2.63,0.04,1.23,-1.30,2.04,
4.285,-1.94,-2.63,0.04,1.15,-1.29,1.97,
4.286,-1.94,-2.63,0.04,1.15,-1.29,1.97,
4.286,-2.19,-2.86,-0.04,1.15,-1.29,1.97,
4.287,-2.19,-2.86,-0.04,1.15,-1.29,1.97,
4.295,-2.19,-2.86,-0.04,1.04,-1.24,1.84,
4.295,-2.19,-2.86,-0.04,1.04,-1.24,1.84,
4.296,-2.12,-3.26,-0.18,1.04,-1.24,1.84,
4.296,-2.12,-3.26,-0.18,1.04,-1.24,1.84,
4.304,-2.12,-3.26,-0.18,0.95,-1.18,1.71,
4.305,-2.12,-3.26,-0.18,0.95,-1.18,1.71,
4.305,-1.84,-3.64,-0.55,0.95,-1.18,1.71,
4.306,-1.84,-3.64,-0.55,0.95,-1.18,1.71,
4.314,-1.84,-3.64,-0.55,0.89,-1.12,1.67,
4.315,-1.84,-3.64,-0.55,0.89,-1.12,1.67,
4.315,-1.58,-3.89,-0.98,0.89,-1.12,1.67,
4.316,-1.58,-3.89,-0.98,0.89,-1.12,1.67,
4.323,-1.58,-3.89,-0.98,0.88,-1.04,1.71,
4.324,-1.58,-3.89,-0.98,0.88,-1.04,1.71,
4.324,-0.02,-4.07,-1.04,0.88,-1.04,1.71,
4.324,-0.02,-4.07,-1.04,0.88,-1.04,1.71,
4.332,-0.02,-4.07,-1.04,0.91,-0.90,1.78,
4.333,-0.02,-4.07,-1.04,0.91,-0.90,1.78,
4.334,0.51,-3.97,-0.77,0.91,-0.90,1.78,
4.334,0.51,-3.97,-0.77,0.91,-0.90,1.78,
4.341,0.51,-3.97,-0.77,0.96,-0.63,1.78,
4.342,0.51,-3.97,-0.77,0.96,-0.63,1.78,
4.343,2.08,-3.77,1.33,0.96,-0.63,1.78,
4.343,2.08,-3.77,1.33,0.96,-0.63,1.78,
4.352,2.08,-3.77,1.33,1.03,-0.20,1.64,
4.352,2.08,-3.77,1.33,1.03,-0.20,1.64,
4.353,0.11,-3.85,1.53,1.03,-0.20,1.64,
4.354,0.11,-3.85,1.53,1.03,-0.20,1.64,
4.361,0.11,-3.85,1.53,1.13,0.33,1.43,
4.362,0.11,-3.85,1.53,1.13,0.33,1.43,
4.363,-2.58,-3.97,1.57,1.13,0.33,1.43,
4.364,-2.58,-3.97,1.57,1.13,0.33,1.43,
4.37,-2.58,-3.97,1.57,1.24,0.80,1.27,
4.371,-2.58,-3.97,1.57,1.24,0.80,1.27,
4.372,-4.25,-3.97,1.25,1.24,0.80,1.27,
4.372,-4.25,-3.97,1.25,1.24,0.80,1.27,
4.38,-4.25,-3.97,1.25,1.21,0.96,1.30,
4.381,-4.25,-3.97,1.25,1.21,0.96,1.30,
4.382,-5.68,-3.91,-0.56,1.21,0.96,1.30,
4.382,-5.68,-3.91,-0.56,1.21,0.96,1.30,
4.393,-5.68,-3.91,-0.56,1.09,0.62,1.60,
4.393,-5.68,-3.91,-0.56,1.09,0.62,1.60,
4.394,-5.40,-5.77,-0.74,1.09,0.62,1.60,
4.394,-5.40,-5.77,-0.74,1.09,0.62,1.60,
4.399,-5.40,-5.77,-0.74,0.99,-0.15,2.19,
4.399,-5.40,-5.77,-0.74,0.99,-0.15,2.19,
4.4,-4.86,-8.85,-0.82,0.99,-0.15,2.19,
4.4,-4.86,-8.85,-0.82,0.99,-0.15,2.19,
4.408,-4.86,-8.85,-0.82,0.94,-1.03,3.04,
4.408,-4.86,-8.85,-0.82,0.94,-1.03,3.04,
4.409,-2.87,-10.81,-0.87,0.94,-1.03,3.04,
4.409,-2.87,-10.81,-0.87,0.94,-1.03,3.04,
4.418,-2.87,-10.81,-0.87,1.21,-1.57,4.00,
4.419,-2.87,-10.81,-0.87,1.21,-1.57,4.00,
4.42,-1.27,-11.14,-0.75,1.21,-1.57,4.00,
4.42,-1.27,-11.14,-0.75,1.21,-1.57,4.00,
4.428,-1.27,-11.14,-0.75,1.89,-1.56,4.69,
4.429,-1.27,-11.14,-0.75,1.89,-1.56,4.69,
4.429,0.50,-10.96,-0.46,1.89,-1.56,4.69,
4.43,0.50,-10.96,-0.46,1.89,-1.56,4.69,
4.438,0.50,-10.96,-0.46,2.68,-1.39,4.62,
4.439,0.50,-10.96,-0.46,2.68,-1.39,4.62,
4.44,2.21,-7.42,-0.04,2.68,-1.39,4.62,
4.44,2.21,-7.42,-0.04,2.68,-1.39,4.62,
4.447,2.21,-7.42,-0.04,3.20,-0.96,3.92,
4.448,2.21,-7.42,-0.04,3.20,-0.96,3.92,
4.449,2.11,-6.75,0.57,3.20,-0.96,3.92,
4.45,2.11,-6.75,0.57,3.20,-0.96,3.92,
4.457,2.11,-6.75,0.57,3.20,-0.96,3.92,
4.458,2.11,-6.75,0.57,3.20,-0.96,3.92,
4.458,2.11,-6.75,0.57,3.20,-0.96,3.92,
4.459,2.11,-6.75,0.57,3.20,-0.96,3.92,
4.466,2.11,-6.75,0.57,2.99,-0.19,2.96,
4.466,2.11,-6.75,0.57,2.99,-0.19,2.96,
4.467,-1.25,-3.37,1.09,2.99,-0.19,2.96,
4.467,-1.25,-3.37,1.09,2.99,-0.19,2.96,
4.475,-1.25,-3.37,1.09,2.37,0.31,1.87,
4.476,-1.25,-3.37,1.09,2.37,0.31,1.87,
4.476,-1.76,-2.90,0.90,2.37,0.31,1.87,
4.476,-1.76,-2.90,0.90,2.37,0.31,1.87,
4.484,-1.76,-2.90,0.90,1.93,0.50,0.94,
4.485,-1.76,-2.90,0.90,1.93,0.50,0.94,
4.486,-3.22,-2.19,0.53,1.93,0.50,0.94,
4.486,-3.22,-2.19,0.53,1.93,0.50,0.94,
4.495,-3.22,-2.19,0.53,1.40,0.47,0.34,
4.496,-3.22,-2.19,0.53,1.40,0.47,0.34,
4.497,-3.38,-1.38,0.23,1.40,0.47,0.34,
4.497,-3.38,-1.38,0.23,1.40,0.47,0.34,
4.503,-3.38,-1.38,0.23,0.63,0.17,0.05,
4.504,-3.38,-1.38,0.23,0.63,0.17,0.05,
4.504,-3.49,-0.72,0.15,0.63,0.17,0.05,
4.505,-3.49,-0.72,0.15,0.63,0.17,0.05,
4.515,-3.49,-0.72,0.15,-0.14,-0.31,-0.06,
4.516,-3.49,-0.72,0.15,-0.14,-0.31,-0.06,
4.516,-3.42,-0.27,0.12,-0.14,-0.31,-0.06,
4.516,-3.42,-0.27,0.12,-0.14,-0.31,-0.06,
4.524,-3.42,-0.27,0.12,-0.86,-0.83,-0.12,
4.525,-3.42,-0.27,0.12,-0.86,-0.83,-0.12,
4.526,-3.11,-0.08,0.14,-0.86,-0.83,-0.12,
4.526,-3.11,-0.08,0.14,-0.86,-0.83,-0.12,
4.532,-3.11,-0.08,0.14,-1.50,-1.29,-0.21,
4.532,-3.11,-0.08,0.14,-1.50,-1.29,-0.21,
4.533,-2.71,-0.18,0.21,-1.50,-1.29,-0.21,
4.533,-2.71,-0.18,0.21,-1.50,-1.29,-0.21,
4.541,-2.71,-0.18,0.21,-1.98,-1.60,-0.34,
4.542,-2.71,-0.18,0.21,-1.98,-1.60,-0.34,
4.542,-2.22,-0.34,0.16,-1.98,-1.60,-0.34,
4.543,-2.22,-0.34,0.16,-1.98,-1.60,-0.34,
4.551,-2.22,-0.34,0.16,-2.27,-1.72,-0.49,
4.551,-2.22,-0.34,0.16,-2.27,-1.72,-0.49,
4.552,-1.80,-0.50,0.08,-2.27,-1.72,-0.49,
4.552,-1.80,-0.50,0.08,-2.27,-1.72,-0.49,
4.56,-1.80,-0.50,0.08,-2.33,-1.66,-0.61,
4.561,-1.80,-0.50,0.08,-2.33,-1.66,-0.61,
4.562,-1.51,-0.63,-0.00,-2.33,-1.66,-0.61,
4.562,-1.51,-0.63,-0.00,-2.33,-1.66,-0.61,
4.57,-1.51,-0.63,-0.00,-2.21,-1.46,-0.71,
4.571,-1.51,-0.63,-0.00,-2.21,-1.46,-0.71,
4.572,-1.33,-0.68,-0.04,-2.21,-1.46,-0.71,
4.572,-1.33,-0.68,-0.04,-2.21,-1.46,-0.71,
4.58,-1.33,-0.68,-0.04,-1.97,-1.17,-0.77,
4.581,-1.33,-0.68,-0.04,-1.97,-1.17,-0.77,
4.581,-1.26,-0.65,-0.04,-1.97,-1.17,-0.77,
4.582,-1.26,-0.65,-0.04,-1.97,-1.17,-0.77,
4.604,-1.26,-0.65,-0.04,-1.67,-0.88,-0.78,
4.605,-1.26,-0.65,-0.04,-1.67,-0.88,-0.78,
4.605,-1.25,-0.56,-0.02,-1.67,-0.88,-0.78,
4.605,-1.25,-0.56,-0.02,-1.67,-0.88,-0.78,
4.605,-1.25,-0.56,-0.02,-1.37,-0.62,-0.74,
4.606,-1.25,-0.56,-0.02,-1.37,-0.62,-0.74,
4.606,-1.26,-0.40,0.04,-1.37,-0.62,-0.74,
4.606,-1.26,-0.40,0.04,-1.37,-0.62,-0.74,
4.608,-1.26,-0.40,0.04,-1.11,-0.42,-0.67,
4.608,-1.26,-0.40,0.04,-1.11,-0.42,-0.67,
4.609,-1.28,-0.23,0.06,-1.11,-0.42,-0.67,
4.609,-1.28,-0.23,0.06,-1.11,-0.42,-0.67,
4.617,-1.28,-0.23,0.06,-0.90,-0.29,-0.59,
4.618,-1.28,-0.23,0.06,-0.90,-0.29,-0.59,
4.618,-1.26,-0.09,0.06,-0.90,-0.29,-0.59,
4.619,-1.26,-0.09,0.06,-0.90,-0.29,-0.59,
4.627,-1.26,-0.09,0.06,-0.74,-0.21,-0.53,
4.628,-1.26,-0.09,0.06,-0.74,-0.21,-0.53,
4.628,-1.23,0.03,0.09,-0.74,-0.21,-0.53,
4.628,-1.23,0.03,0.09,-0.74,-0.21,-0.53,
4.638,-1.23,0.03,0.09,-0.64,-0.17,-0.48,
4.638,-1.23,0.03,0.09,-0.64,-0.17,-0.48,
4.639,-1.13,0.07,0.09,-0.64,-0.17,-0.48,
4.639,-1.13,0.07,0.09,-0.64,-0.17,-0.48,
4.647,-1.13,0.07,0.09,-0.64,-0.17,-0.48,
4.648,-1.13,0.07,0.09,-0.64,-0.17,-0.48,
4.649,-1.13,0.07,0.09,-0.64,-0.17,-0.48,
4.649,-1.13,0.07,0.09,-0.64,-0.17,-0.48,
4.656,-1.13,0.07,0.09,-0.57,-0.16,-0.44,
4.657,-1.13,0.07,0.09,-0.57,-0.16,-0.44,
4.658,-0.99,0.10,0.19,-0.57,-0.16,-0.44,
4.658,-0.99,0.10,0.19,-0.57,-0.16,-0.44,
4.665,-0.99,0.10,0.19,-0.52,-0.14,-0.40,
4.667,-0.99,0.10,0.19,-0.52,-0.14,-0.40,
4.667,-0.87,0.05,0.26,-0.52,-0.14,-0.40,
4.668,-0.87,0.05,0.26,-0.52,-0.14,-0.40,
4.675,-0.87,0.05,0.26,-0.47,-0.11,-0.36,
4.675,-0.87,0.05,0.26,-0.47,-0.11,-0.36,
4.676,-0.75,0.00,0.30,-0.47,-0.11,-0.36,
4.676,-0.75,0.00,0.30,-0.47,-0.11,-0.36,
4.685,-0.75,0.00,0.30,-0.41,-0.06,-0.31,
4.685,-0.75,0.00,0.30,-0.41,-0.06,-0.31,
4.686,-0.62,-0.07,0.33,-0.41,-0.06,-0.31,
4.687,-0.62,-0.07,0.33,-0.41,-0.06,-0.31,
4.695,-0.62,-0.07,0.33,-0.33,0.00,-0.26,
4.696,-0.62,-0.07,0.33,-0.33,0.00,-0.26,
4.697,-0.47,-0.10,0.35,-0.33,0.00,-0.26,
4.697,-0.47,-0.10,0.35,-0.33,0.00,-0.26,
4.704,-0.47,-0.10,0.35,-0.24,0.08,-0.21,
4.704,-0.47,-0.10,0.35,-0.24,0.08,-0.21,
4.705,-0.36,0.00,0.35,-0.24,0.08,-0.21,
4.705,-0.36,0.00,0.35,-0.24,0.08,-0.21,
4.713,-0.36,0.00,0.35,-0.15,0.16,-0.16,
4.714,-0.36,0.00,0.35,-0.15,0.16,-0.16,
4.714,-0.27,0.14,0.38,-0.15,0.16,-0.16,
4.715,-0.27,0.14,0.38,-0.15,0.16,-0.16,
4.723,-0.27,0.14,0.38,-0.07,0.23,-0.13,
4.724,-0.27,0.14,0.38,-0.07,0.23,-0.13,
4.725,-0.20,0.29,0.36,-0.07,0.23,-0.13,
4.725,-0.20,0.29,0.36,-0.07,0.23,-0.13,
4.732,-0.20,0.29,0.36,-0.02,0.28,-0.13,
4.733,-0.20,0.29,0.36,-0.02,0.28,-0.13,
4.734,-0.15,0.42,0.29,-0.02,0.28,-0.13,
4.734,-0.15,0.42,0.29,-0.02,0.28,-0.13,
4.742,-0.15,0.42,0.29,-0.01,0.32,-0.15,
4.743,-0.15,0.42,0.29,-0.01,0.32,-0.15,
4.744,-0.10,0.47,0.25,-0.01,0.32,-0.15,
4.744,-0.10,0.47,0.25,-0.01,0.32,-0.15,
4.751,-0.10,0.47,0.25,-0.03,0.34,-0.18,
4.752,-0.10,0.47,0.25,-0.03,0.34,-0.18,
4.752,-0.11,0.48,0.26,-0.03,0.34,-0.18,
4.753,-0.11,0.48,0.26,-0.03,0.34,-0.18,
4.763,-0.11,0.48,0.26,-0.08,0.34,-0.19,
4.764,-0.11,0.48,0.26,-0.08,0.34,-0.19,
4.764,-0.14,0.45,0.33,-0.08,0.34,-0.19,
4.765,-0.14,0.45,0.33,-0.08,0.34,-0.19,
4.772,-0.14,0.45,0.33,-0.13,0.32,-0.20,
4.773,-0.14,0.45,0.33,-0.13,0.32,-0.20,
4.773,-0.15,0.40,0.45,-0.13,0.32,-0.20,
4.774,-0.15,0.40,0.45,-0.13,0.32,-0.20,
4.779,-0.15,0.40,0.45,-0.15,0.29,-0.19,
4.78,-0.15,0.40,0.45,-0.15,0.29,-0.19,
4.78,-0.11,0.33,0.54,-0.15,0.29,-0.19,
4.781,-0.11,0.33,0.54,-0.15,0.29,-0.19,
4.793,-0.11,0.33,0.54,-0.14,0.24,-0.17,
4.794,-0.11,0.33,0.54,-0.14,0.24,-0.17,
4.795,-0.04,0.25,0.58,-0.14,0.24,-0.17,
4.795,-0.04,0.25,0.58,-0.14,0.24,-0.17,
4.799,-0.04,0.25,0.58,-0.11,0.21,-0.14,
4.799,-0.04,0.25,0.58,-0.11,0.21,-0.14,
4.8,0.06,0.20,0.57,-0.11,0.21,-0.14,
4.8,0.06,0.20,0.57,-0.11,0.21,-0.14,
4.808,0.06,0.20,0.57,-0.06,0.19,-0.10,
4.809,0.06,0.20,0.57,-0.06,0.19,-0.10,
4.809,0.11,0.19,0.54,-0.06,0.19,-0.10,
4.809,0.11,0.19,0.54,-0.06,0.19,-0.10,
4.818,0.11,0.19,0.54,-0.01,0.19,-0.06,
4.819,0.11,0.19,0.54,-0.01,0.19,-0.06,
4.819,0.09,0.21,0.52,-0.01,0.19,-0.06,
4.82,0.09,0.21,0.52,-0.01,0.19,-0.06,
4.827,0.09,0.21,0.52,0.04,0.19,-0.04,
4.828,0.09,0.21,0.52,0.04,0.19,-0.04,
4.829,0.01,0.29,0.53,0.04,0.19,-0.04,
4.829,0.01,0.29,0.53,0.04,0.19,-0.04,
4.838,0.01,0.29,0.53,0.07,0.18,-0.02,
4.839,0.01,0.29,0.53,0.07,0.18,-0.02,
4.839,-0.07,0.38,0.54,0.07,0.18,-0.02,
4.84,-0.07,0.38,0.54,0.07,0.18,-0.02,
4.847,-0.07,0.38,0.54,0.07,0.18,-0.02,
4.848,-0.07,0.38,0.54,0.07,0.18,-0.02,
4.849,-0.07,0.38,0.54,0.07,0.18,-0.02,
4.85,-0.07,0.38,0.54,0.07,0.18,-0.02,
4.857,-0.07,0.38,0.54,0.07,0.16,-0.00,
4.858,-0.07,0.38,0.54,0.07,0.16,-0.00,
4.858,-0.21,0.46,0.56,0.07,0.16,-0.00,
4.859,-0.21,0.46,0.56,0.07,0.16,-0.00,
4.865,-0.21,0.46,0.56,0.04,0.12,0.03,
4.866,-0.21,0.46,0.56,0.04,0.12,0.03,
4.866,-0.21,0.43,0.56,0.04,0.12,0.03,
4.867,-0.21,0.43,0.56,0.04,0.12,0.03,
4.894,-0.21,0.43,0.56,-0.02,0.07,0.06,
4.895,-0.21,0.43,0.56,-0.02,0.07,0.06,
4.895,-0.24,0.37,0.55,-0.02,0.07,0.06,
4.896,-0.24,0.37,0.55,-0.02,0.07,0.06,
4.896,-0.24,0.37,0.55,-0.10,-0.06,0.10,
4.897,-0.24,0.37,0.55,-0.10,-0.06,0.10,
4.897,-0.27,0.34,0.53,-0.10,-0.06,0.10,
4.898,-0.27,0.34,0.53,-0.10,-0.06,0.10,
4.898,-0.27,0.34,0.53,-0.10,-0.06,0.10,
4.899,-0.27,0.34,0.53,-0.10,-0.06,0.10,
4.899,-0.27,0.34,0.53,-0.10,-0.06,0.10,
4.9,-0.27,0.34,0.53,-0.10,-0.06,0.10,
4.904,-0.27,0.34,0.53,-0.11,-0.18,0.11,
4.905,-0.27,0.34,0.53,-0.11,-0.18,0.11,
4.905,-0.30,0.38,0.46,-0.11,-0.18,0.11,
4.905,-0.30,0.38,0.46,-0.11,-0.18,0.11,
4.914,-0.30,0.38,0.46,-0.11,-0.18,0.11,
4.915,-0.30,0.38,0.46,-0.11,-0.18,0.11,
4.915,-0.30,0.38,0.46,-0.11,-0.18,0.11,
4.916,-0.30,0.38,0.46,-0.11,-0.18,0.11,
4.923,-0.30,0.38,0.46,-0.12,-0.26,0.09,
4.924,-0.30,0.38,0.46,-0.12,-0.26,0.09,
4.924,-0.36,0.40,0.41,-0.12,-0.26,0.09,
4.925,-0.36,0.40,0.41,-0.12,-0.26,0.09,
4.932,-0.36,0.40,0.41,-0.13,-0.28,0.06,
4.933,-0.36,0.40,0.41,-0.13,-0.28,0.06,
4.934,-0.38,0.36,0.39,-0.13,-0.28,0.06,
4.934,-0.38,0.36,0.39,-0.13,-0.28,0.06,
4.941,-0.38,0.36,0.39,-0.14,-0.28,0.04,
4.942,-0.38,0.36,0.39,-0.14,-0.28,0.04,
4.943,-0.41,0.31,0.40,-0.14,-0.28,0.04,
4.943,-0.41,0.31,0.40,-0.14,-0.28,0.04,
4.951,-0.41,0.31,0.40,-0.14,-0.28,0.02,
4.952,-0.41,0.31,0.40,-0.14,-0.28,0.02,
4.953,-0.44,0.28,0.40,-0.14,-0.28,0.02,
4.953,-0.44,0.28,0.40,-0.14,-0.28,0.02,
4.96,-0.44,0.28,0.40,-0.14,-0.27,0.03,
4.962,-0.44,0.28,0.40,-0.14,-0.27,0.03,
4.963,-0.48,0.26,0.41,-0.14,-0.27,0.03,
4.964,-0.48,0.26,0.41,-0.14,-0.27,0.03,
4.969,-0.48,0.26,0.41,-0.12,-0.25,0.05,
4.97,-0.48,0.26,0.41,-0.12,-0.25,0.05,
4.971,-0.50,0.24,0.45,-0.12,-0.25,0.05,
4.971,-0.50,0.24,0.45,-0.12,-0.25,0.05,
4.979,-0.50,0.24,0.45,-0.10,-0.23,0.07,
4.98,-0.50,0.24,0.45,-0.10,-0.23,0.07,
4.981,-0.50,0.21,0.46,-0.10,-0.23,0.07,
4.981,-0.50,0.21,0.46,-0.10,-0.23,0.07,
5.004,-0.50,0.21,0.46,-0.08,-0.21,0.10,
5.005,-0.50,0.21,0.46,-0.08,-0.21,0.10,
5.005,-0.48,0.22,0.51,-0.08,-0.21,0.10,
5.005,-0.48,0.22,0.51,-0.08,-0.21,0.10,
5.009,-0.48,0.22,0.51,-0.05,-0.19,0.11,
5.01,-0.48,0.22,0.51,-0.05,-0.19,0.11,
5.011,-0.46,0.20,0.52,-0.05,-0.19,0.11,
5.011,-0.46,0.20,0.52,-0.05,-0.19,0.11,
5.012,-0.46,0.20,0.52,-0.03,-0.17,0.12,
5.012,-0.46,0.20,0.52,-0.03,-0.17,0.12,
5.013,-0.46,0.19,0.55,-0.03,-0.17,0.12,
5.013,-0.46,0.19,0.55,-0.03,-0.17,0.12,
5.017,-0.46,0.19,0.55,-0.00,-0.14,0.12,
5.018,-0.46,0.19,0.55,-0.00,-0.14,0.12,
5.018,-0.45,0.18,0.58,-0.00,-0.14,0.12,
5.019,-0.45,0.18,0.58,-0.00,-0.14,0.12,
5.027,-0.45,0.18,0.58,-0.00,-0.14,0.12,
5.029,-0.45,0.18,0.58,-0.00,-0.14,0.12,
5.029,-0.45,0.18,0.58,-0.00,-0.14,0.12,
5.03,-0.45,0.18,0.58,-0.00,-0.14,0.12,
5.037,-0.45,0.18,0.58,0.03,-0.06,0.13,
5.038,-0.45,0.18,0.58,0.03,-0.06,0.13,
5.038,-0.54,0.07,0.66,0.03,-0.06,0.13,
5.039,-0.54,0.07,0.66,0.03,-0.06,0.13,
5.046,-0.54,0.07,0.66,0.03,-0.06,0.13,
5.047,-0.54,0.07,0.66,0.03,-0.06,0.13,
5.048,-0.54,0.07,0.66,0.03,-0.06,0.13,
5.048,-0.54,0.07,0.66,0.03,-0.06,0.13,
5.056,-0.54,0.07,0.66,0.05,-0.03,0.15,
5.056,-0.54,0.07,0.66,0.05,-0.03,0.15,
5.057,-0.64,0.02,0.67,0.05,-0.03,0.15,
5.057,-0.64,0.02,0.67,0.05,-0.03,0.15,
5.065,-0.64,0.02,0.67,0.08,-0.01,0.18,
5.066,-0.64,0.02,0.67,0.08,-0.01,0.18,
5.066,-0.67,0.03,0.59,0.08,-0.01,0.18,
5.067,-0.67,0.03,0.59,0.08,-0.01,0.18,
5.074,-0.67,0.03,0.59,0.11,-0.01,0.21,
5.075,-0.67,0.03,0.59,0.11,-0.01,0.21,
5.076,-0.70,0.04,0.51,0.11,-0.01,0.21,
5.077,-0.70,0.04,0.51,0.11,-0.01,0.21,
5.084,-0.70,0.04,0.51,0.12,-0.03,0.24,
5.085,-0.70,0.04,0.51,0.12,-0.03,0.24,
5.085,-0.73,0.04,0.42,0.12,-0.03,0.24,
5.086,-0.73,0.04,0.42,0.12,-0.03,0.24,
5.095,-0.73,0.04,0.42,0.12,-0.06,0.27,
5.096,-0.73,0.04,0.42,0.12,-0.06,0.27,
5.096,-0.75,0.04,0.31,0.12,-0.06,0.27,
5.097,-0.75,0.04,0.31,0.12,-0.06,0.27,
5.103,-0.75,0.04,0.31,0.11,-0.10,0.28,
5.104,-0.75,0.04,0.31,0.11,-0.10,0.28,
5.104,-0.77,0.05,0.25,0.11,-0.10,0.28,
5.105,-0.77,0.05,0.25,0.11,-0.10,0.28,
5.114,-0.77,0.05,0.25,0.08,-0.15,0.28,
5.115,-0.77,0.05,0.25,0.08,-0.15,0.28,
5.115,-0.77,0.07,0.21,0.08,-0.15,0.28,
5.115,-0.77,0.07,0.21,0.08,-0.15,0.28,
5.123,-0.77,0.07,0.21,0.05,-0.19,0.28,
5.124,-0.77,0.07,0.21,0.05,-0.19,0.28,
5.125,-0.75,0.10,0.19,0.05,-0.19,0.28,
5.125,-0.75,0.10,0.19,0.05,-0.19,0.28,
5.133,-0.75,0.10,0.19,0.00,-0.23,0.28,
5.134,-0.75,0.10,0.19,0.00,-0.23,0.28,
5.135,-0.73,0.14,0.18,0.00,-0.23,0.28,
5.136,-0.73,0.14,0.18,0.00,-0.23,0.28,
5.141,-0.73,0.14,0.18,-0.04,-0.25,0.27,
5.143,-0.73,0.14,0.18,-0.04,-0.25,0.27,
5.144,-0.68,0.17,0.12,-0.04,-0.25,0.27,
5.145,-0.68,0.17,0.12,-0.04,-0.25,0.27,
5.151,-0.68,0.17,0.12,-0.08,-0.25,0.26,
5.151,-0.68,0.17,0.12,-0.08,-0.25,0.26,
5.152,-0.64,0.14,-0.02,-0.08,-0.25,0.26,
5.152,-0.64,0.14,-0.02,-0.08,-0.25,0.26,
5.161,-0.64,0.14,-0.02,-0.12,-0.24,0.23,
5.161,-0.64,0.14,-0.02,-0.12,-0.24,0.23,
5.162,-0.55,0.08,-0.15,-0.12,-0.24,0.23,
5.163,-0.55,0.08,-0.15,-0.12,-0.24,0.23,
5.169,-0.55,0.08,-0.15,-0.16,-0.23,0.20,
5.17,-0.55,0.08,-0.15,-0.16,-0.23,0.20,
5.171,-0.49,0.03,-0.21,-0.16,-0.23,0.20,
5.171,-0.49,0.03,-0.21,-0.16,-0.23,0.20,
5.179,-0.49,0.03,-0.21,-0.18,-0.21,0.16,
5.18,-0.49,0.03,-0.21,-0.18,-0.21,0.16,
5.18,-0.52,0.01,-0.17,-0.18,-0.21,0.16,
5.181,-0.52,0.01,-0.17,-0.18,-0.21,0.16,
5.197,-0.52,0.01,-0.17,-0.19,-0.19,0.13,
5.198,-0.52,0.01,-0.17,-0.19,-0.19,0.13,
5.198,-0.59,0.09,0.03,-0.19,-0.19,0.13,
5.199,-0.59,0.09,0.03,-0.19,-0.19,0.13,
5.199,-0.59,0.09,0.03,-0.18,-0.17,0.11,
5.199,-0.59,0.09,0.03,-0.18,-0.17,0.11,
5.199,-0.75,0.18,0.24,-0.18,-0.17,0.11,
5.2,-0.75,0.18,0.24,-0.18,-0.17,0.11,
5.208,-0.75,0.18,0.24,-0.17,-0.15,0.11,
5.209,-0.75,0.18,0.24,-0.17,-0.15,0.11,
5.209,-0.94,0.23,0.30,-0.17,-0.15,0.11,
5.209,-0.94,0.23,0.30,-0.17,-0.15,0.11,
5.217,-0.94,0.23,0.30,-0.16,-0.14,0.13,
5.219,-0.94,0.23,0.30,-0.16,-0.14,0.13,
5.219,-1.07,0.24,0.16,-0.16,-0.14,0.13,
5.22,-1.07,0.24,0.16,-0.16,-0.14,0.13,
5.228,-1.07,0.24,0.16,-0.17,-0.15,0.18,
5.229,-1.07,0.24,0.16,-0.17,-0.15,0.18,
5.23,-1.12,0.18,-0.08,-0.17,-0.15,0.18,
5.23,-1.12,0.18,-0.08,-0.17,-0.15,0.18,
5.237,-1.12,0.18,-0.08,-0.17,-0.15,0.18,
5.237,-1.12,0.18,-0.08,-0.17,-0.15,0.18,
5.238,-1.12,0.18,-0.08,-0.17,-0.15,0.18,
5.238,-1.12,0.18,-0.08,-0.17,-0.15,0.18,
5.245,-1.12,0.18,-0.08,-0.18,-0.19,0.25,
5.246,-1.12,0.18,-0.08,-0.18,-0.19,0.25,
5.247,-0.90,0.09,-0.36,-0.18,-0.19,0.25,
5.247,-0.90,0.09,-0.36,-0.18,-0.19,0.25,
5.256,-0.90,0.09,-0.36,-0.21,-0.24,0.33,
5.256,-0.90,0.09,-0.36,-0.21,-0.24,0.33,
5.257,-0.70,0.07,-0.22,-0.21,-0.24,0.33,
5.257,-0.70,0.07,-0.22,-0.21,-0.24,0.33,
5.265,-0.70,0.07,-0.22,-0.23,-0.28,0.42,
5.266,-0.70,0.07,-0.22,-0.23,-0.28,0.42,
5.266,-0.55,0.05,-0.06,-0.23,-0.28,0.42,
5.267,-0.55,0.05,-0.06,-0.23,-0.28,0.42,
5.274,-0.55,0.05,-0.06,-0.24,-0.26,0.48,
5.275,-0.55,0.05,-0.06,-0.24,-0.26,0.48,
5.275,-0.42,0.05,0.02,-0.24,-0.26,0.48,
5.276,-0.42,0.05,0.02,-0.24,-0.26,0.48,
5.284,-0.42,0.05,0.02,-0.24,-0.19,0.50,
5.284,-0.42,0.05,0.02,-0.24,-0.19,0.50,
5.285,-0.36,0.05,0.04,-0.24,-0.19,0.50,
5.286,-0.36,0.05,0.04,-0.24,-0.19,0.50,
5.295,-0.36,0.05,0.04,-0.22,-0.08,0.51,
5.296,-0.36,0.05,0.04,-0.22,-0.08,0.51,
5.297,-0.31,0.09,0.01,-0.22,-0.08,0.51,
5.297,-0.31,0.09,0.01,-0.22,-0.08,0.51,
5.303,-0.31,0.09,0.01,-0.19,0.05,0.51,
5.303,-0.31,0.09,0.01,-0.19,0.05,0.51,
5.304,-0.20,0.17,-0.02,-0.19,0.05,0.51,
5.304,-0.20,0.17,-0.02,-0.19,0.05,0.51,
5.313,-0.20,0.17,-0.02,-0.18,0.17,0.51,
5.314,-0.20,0.17,-0.02,-0.18,0.17,0.51,
5.314,-0.07,0.26,0.01,-0.18,0.17,0.51,
5.314,-0.07,0.26,0.01,-0.18,0.17,0.51,
5.322,-0.07,0.26,0.01,-0.19,0.27,0.50,
5.323,-0.07,0.26,0.01,-0.19,0.27,0.50,
5.324,0.11,0.40,0.09,-0.19,0.27,0.50,
5.324,0.11,0.40,0.09,-0.19,0.27,0.50,
5.331,0.11,0.40,0.09,-0.22,0.36,0.47,
5.332,0.11,0.40,0.09,-0.22,0.36,0.47,
5.332,0.29,0.55,0.18,-0.22,0.36,0.47,
5.333,0.29,0.55,0.18,-0.22,0.36,0.47,
5.341,0.29,0.55,0.18,-0.26,0.45,0.41,
5.342,0.29,0.55,0.18,-0.26,0.45,0.41,
5.343,0.44,0.74,0.25,-0.26,0.45,0.41,
5.343,0.44,0.74,0.25,-0.26,0.45,0.41,
5.351,0.44,0.74,0.25,-0.31,0.54,0.32,
5.352,0.44,0.74,0.25,-0.31,0.54,0.32,
5.353,0.56,0.98,0.31,-0.31,0.54,0.32,
5.353,0.56,0.98,0.31,-0.31,0.54,0.32,
5.361,0.56,0.98,0.31,-0.37,0.63,0.20,
5.361,0.56,0.98,0.31,-0.37,0.63,0.20,
5.362,0.65,1.20,0.37,-0.37,0.63,0.20,
5.363,0.65,1.20,0.37,-0.37,0.63,0.20,
5.369,0.65,1.20,0.37,-0.46,0.73,0.08,
5.37,0.65,1.20,0.37,-0.46,0.73,0.08,
5.37,0.72,1.41,0.44,-0.46,0.73,0.08,
5.371,0.72,1.41,0.44,-0.46,0.73,0.08,
5.379,0.72,1.41,0.44,-0.57,0.81,-0.03,
5.381,0.72,1.41,0.44,-0.57,0.81,-0.03,
5.381,0.79,1.56,0.51,-0.57,0.81,-0.03,
5.382,0.79,1.56,0.51,-0.57,0.81,-0.03,
5.405,0.79,1.56,0.51,-0.70,0.88,-0.12,
5.406,0.79,1.56,0.51,-0.70,0.88,-0.12,
5.407,0.83,1.61,0.58,-0.70,0.88,-0.12,
5.407,0.83,1.61,0.58,-0.70,0.88,-0.12,
5.408,0.83,1.61,0.58,-0.83,0.93,-0.18,
5.408,0.83,1.61,0.58,-0.83,0.93,-0.18,
5.408,0.84,1.56,0.63,-0.83,0.93,-0.18,
5.408,0.84,1.56,0.63,-0.83,0.93,-0.18,
5.409,0.84,1.56,0.63,-0.93,0.96,-0.23,
5.409,0.84,1.56,0.63,-0.93,0.96,-0.23,
5.409,0.88,1.47,0.71,-0.93,0.96,-0.23,
5.409,0.88,1.47,0.71,-0.93,0.96,-0.23,
5.417,0.88,1.47,0.71,-0.98,0.98,-0.24,
5.418,0.88,1.47,0.71,-0.98,0.98,-0.24,
5.418,0.91,1.36,0.82,-0.98,0.98,-0.24,
5.418,0.91,1.36,0.82,-0.98,0.98,-0.24,
5.427,0.91,1.36,0.82,-0.98,0.98,-0.21,
5.428,0.91,1.36,0.82,-0.98,0.98,-0.21,
5.428,0.95,1.29,0.92,-0.98,0.98,-0.21,
5.429,0.95,1.29,0.92,-0.98,0.98,-0.21,
5.437,0.95,1.29,0.92,-0.98,0.98,-0.21,
5.438,0.95,1.29,0.92,-0.98,0.98,-0.21,
5.439,0.95,1.29,0.92,-0.98,0.98,-0.21,
5.439,0.95,1.29,0.92,-0.98,0.98,-0.21,
5.446,0.95,1.29,0.92,-0.94,0.97,-0.14,
5.448,0.95,1.29,0.92,-0.94,0.97,-0.14,
5.448,1.05,1.38,1.11,-0.94,0.97,-0.14,
5.449,1.05,1.38,1.11,-0.94,0.97,-0.14,
5.456,1.05,1.38,1.11,-0.87,0.97,-0.05,
5.457,1.05,1.38,1.11,-0.87,0.97,-0.05,
5.457,1.08,1.52,1.13,-0.87,0.97,-0.05,
5.457,1.08,1.52,1.13,-0.87,0.97,-0.05,
5.465,1.08,1.52,1.13,-0.79,0.97,0.03,
5.466,1.08,1.52,1.13,-0.79,0.97,0.03,
5.466,1.14,1.70,1.16,-0.79,0.97,0.03,
5.467,1.14,1.70,1.16,-0.79,0.97,0.03,
5.475,1.14,1.70,1.16,-0.74,0.99,0.09,
5.476,1.14,1.70,1.16,-0.74,0.99,0.09,
5.477,1.24,1.87,1.20,-0.74,0.99,0.09,
5.478,1.24,1.87,1.20,-0.74,0.99,0.09,
5.484,1.24,1.87,1.20,-0.72,1.00,0.12,
5.484,1.24,1.87,1.20,-0.72,1.00,0.12,
5.485,1.34,2.01,1.30,-0.72,1.00,0.12,
5.485,1.34,2.01,1.30,-0.72,1.00,0.12,
5.493,1.34,2.01,1.30,-0.74,1.01,0.11,
5.494,1.34,2.01,1.30,-0.74,1.01,0.11,
5.495,1.44,2.10,1.45,-0.74,1.01,0.11,
5.497,1.44,2.10,1.45,-0.74,1.01,0.11,
5.503,1.44,2.10,1.45,-0.78,1.03,0.07,
5.503,1.44,2.10,1.45,-0.78,1.03,0.07,
5.504,1.51,2.14,1.65,-0.78,1.03,0.07,
5.504,1.51,2.14,1.65,-0.78,1.03,0.07,
5.512,1.51,2.14,1.65,-0.83,1.06,0.01,
5.512,1.51,2.14,1.65,-0.83,1.06,0.01,
5.513,1.51,2.12,1.86,-0.83,1.06,0.01,
5.513,1.51,2.12,1.86,-0.83,1.06,0.01,
5.522,1.51,2.12,1.86,-0.87,1.11,-0.06,
5.523,1.51,2.12,1.86,-0.87,1.11,-0.06,
5.523,1.45,2.06,2.03,-0.87,1.11,-0.06,
5.524,1.45,2.06,2.03,-0.87,1.11,-0.06,
5.531,1.45,2.06,2.03,-0.88,1.17,-0.11,
5.532,1.45,2.06,2.03,-0.88,1.17,-0.11,
5.532,1.37,1.98,2.17,-0.88,1.17,-0.11,
5.533,1.37,1.98,2.17,-0.88,1.17,-0.11,
5.54,1.37,1.98,2.17,-0.85,1.22,-0.15,
5.541,1.37,1.98,2.17,-0.85,1.22,-0.15,
5.541,1.29,1.89,2.26,-0.85,1.22,-0.15,
5.542,1.29,1.89,2.26,-0.85,1.22,-0.15,
5.551,1.29,1.89,2.26,-0.80,1.25,-0.15,
5.551,1.29,1.89,2.26,-0.80,1.25,-0.15,
5.552,1.24,1.78,2.31,-0.80,1.25,-0.15,
5.552,1.24,1.78,2.31,-0.80,1.25,-0.15,
5.56,1.24,1.78,2.31,-0.73,1.25,-0.12,
5.561,1.24,1.78,2.31,-0.73,1.25,-0.12,
5.561,1.23,1.67,2.37,-0.73,1.25,-0.12,
5.562,1.23,1.67,2.37,-0.73,1.25,-0.12,
5.569,1.23,1.67,2.37,-0.65,1.24,-0.06,
5.57,1.23,1.67,2.37,-0.65,1.24,-0.06,
5.571,1.23,1.58,2.43,-0.65,1.24,-0.06,
5.571,1.23,1.58,2.43,-0.65,1.24,-0.06,
5.579,1.23,1.58,2.43,-0.57,1.20,0.02,
5.581,1.23,1.58,2.43,-0.57,1.20,0.02,
5.581,1.23,1.50,2.48,-0.57,1.20,0.02,
5.582,1.23,1.50,2.48,-0.57,1.20,0.02,
5.598,1.23,1.50,2.48,-0.48,1.17,0.09,
5.599,1.23,1.50,2.48,-0.48,1.17,0.09,
5.599,1.23,1.43,2.51,-0.48,1.17,0.09,
5.6,1.23,1.43,2.51,-0.48,1.17,0.09,
5.6,1.23,1.43,2.51,-0.39,1.13,0.15,
5.6,1.23,1.43,2.51,-0.39,1.13,0.15,
5.601,1.29,1.36,2.46,-0.39,1.13,0.15,
5.601,1.29,1.36,2.46,-0.39,1.13,0.15,
5.608,1.29,1.36,2.46,-0.29,1.10,0.19,
5.609,1.29,1.36,2.46,-0.29,1.10,0.19,
5.609,1.39,1.27,2.27,-0.29,1.10,0.19,
5.609,1.39,1.27,2.27,-0.29,1.10,0.19,
5.618,1.39,1.27,2.27,-0.29,1.10,0.19,
5.618,1.39,1.27,2.27,-0.29,1.10,0.19,
5.619,1.39,1.27,2.27,-0.29,1.10,0.19,
5.619,1.39,1.27,2.27,-0.29,1.10,0.19,
5.627,1.39,1.27,2.27,-0.14,1.02,0.21,
5.628,1.39,1.27,2.27,-0.14,1.02,0.21,
5.629,1.56,0.99,1.46,-0.14,1.02,0.21,
5.629,1.56,0.99,1.46,-0.14,1.02,0.21,
5.639,1.56,0.99,1.46,-0.14,1.02,0.21,
5.64,1.56,0.99,1.46,-0.14,1.02,0.21,
5.641,1.56,0.99,1.46,-0.14,1.02,0.21,
5.641,1.56,0.99,1.46,-0.14,1.02,0.21,
5.647,1.56,0.99,1.46,-0.09,0.93,0.21,
5.648,1.56,0.99,1.46,-0.09,0.93,0.21,
5.648,1.65,0.45,0.50,-0.09,0.93,0.21,
5.649,1.65,0.45,0.50,-0.09,0.93,0.21,
5.656,1.65,0.45,0.50,-0.05,0.80,0.22,
5.657,1.65,0.45,0.50,-0.05,0.80,0.22,
5.657,1.68,0.16,0.21,-0.05,0.80,0.22,
5.658,1.68,0.16,0.21,-0.05,0.80,0.22,
5.665,1.68,0.16,0.21,-0.01,0.61,0.27,
5.666,1.68,0.16,0.21,-0.01,0.61,0.27,
5.667,1.78,-0.05,0.11,-0.01,0.61,0.27,
5.667,1.78,-0.05,0.11,-0.01,0.61,0.27,
5.674,1.78,-0.05,0.11,0.04,0.40,0.35,
5.676,1.78,-0.05,0.11,0.04,0.40,0.35,
5.676,1.93,-0.16,0.05,0.04,0.40,0.35,
5.678,1.93,-0.16,0.05,0.04,0.40,0.35,
5.683,1.93,-0.16,0.05,0.12,0.21,0.44,
5.684,1.93,-0.16,0.05,0.12,0.21,0.44,
5.685,2.14,-0.17,-0.11,0.12,0.21,0.44,
5.685,2.14,-0.17,-0.11,0.12,0.21,0.44,
5.694,2.14,-0.17,-0.11,0.20,0.09,0.49,
5.695,2.14,-0.17,-0.11,0.20,0.09,0.49,
5.696,2.32,-0.25,-0.44,0.20,0.09,0.49,
5.697,2.32,-0.25,-0.44,0.20,0.09,0.49,
5.702,2.32,-0.25,-0.44,0.26,0.04,0.48,
5.703,2.32,-0.25,-0.44,0.26,0.04,0.48,
5.704,2.40,-0.44,-0.86,0.26,0.04,0.48,
5.704,2.40,-0.44,-0.86,0.26,0.04,0.48,
5.714,2.40,-0.44,-0.86,0.29,0.04,0.44,
5.715,2.40,-0.44,-0.86,0.29,0.04,0.44,
5.715,2.38,-0.68,-1.08,0.29,0.04,0.44,
5.716,2.38,-0.68,-1.08,0.29,0.04,0.44,
5.722,2.38,-0.68,-1.08,0.30,0.05,0.38,
5.723,2.38,-0.68,-1.08,0.30,0.05,0.38,
5.724,2.17,-0.93,-0.98,0.30,0.05,0.38,
5.724,2.17,-0.93,-0.98,0.30,0.05,0.38,
5.732,2.17,-0.93,-0.98,0.30,0.03,0.33,
5.732,2.17,-0.93,-0.98,0.30,0.03,0.33,
5.733,1.80,-1.04,0.58,0.30,0.03,0.33,
5.734,1.80,-1.04,0.58,0.30,0.03,0.33,
5.741,1.80,-1.04,0.58,0.33,0.02,0.32,
5.742,1.80,-1.04,0.58,0.33,0.02,0.32,
5.743,1.28,-0.92,0.80,0.33,0.02,0.32,
5.744,1.28,-0.92,0.80,0.33,0.02,0.32,
5.751,1.28,-0.92,0.80,0.40,0.05,0.31,
5.751,1.28,-0.92,0.80,0.40,0.05,0.31,
5.752,0.66,-0.63,1.12,0.40,0.05,0.31,
5.753,0.66,-0.63,1.12,0.40,0.05,0.31,
5.759,0.66,-0.63,1.12,0.49,0.11,0.32,
5.76,0.66,-0.63,1.12,0.49,0.11,0.32,
5.761,0.04,-0.21,1.41,0.49,0.11,0.32,
5.762,0.04,-0.21,1.41,0.49,0.11,0.32,
5.769,0.04,-0.21,1.41,0.55,0.15,0.31,
5.77,0.04,-0.21,1.41,0.55,0.15,0.31,
5.77,-0.49,0.17,1.47,0.55,0.15,0.31,
5.771,-0.49,0.17,1.47,0.55,0.15,0.31,
5.779,-0.49,0.17,1.47,0.55,0.12,0.27,
5.78,-0.49,0.17,1.47,0.55,0.12,0.27,
5.78,-0.90,0.44,1.44,0.55,0.12,0.27,
5.781,-0.90,0.44,1.44,0.55,0.12,0.27,
5.798,-0.90,0.44,1.44,0.46,0.00,0.18,
5.798,-0.90,0.44,1.44,0.46,0.00,0.18,
5.799,-1.15,0.58,1.36,0.46,0.00,0.18,
5.799,-1.15,0.58,1.36,0.46,0.00,0.18,
5.799,-1.15,0.58,1.36,0.30,-0.18,0.08,
5.8,-1.15,0.58,1.36,0.30,-0.18,0.08,
5.8,-1.26,0.53,1.12,0.30,-0.18,0.08,
5.8,-1.26,0.53,1.12,0.30,-0.18,0.08,
5.807,-1.26,0.53,1.12,0.09,-0.39,-0.02,
5.808,-1.26,0.53,1.12,0.09,-0.39,-0.02,
5.808,-1.23,0.34,0.81,0.09,-0.39,-0.02,
5.809,-1.23,0.34,0.81,0.09,-0.39,-0.02,
5.818,-1.23,0.34,0.81,-0.11,-0.60,-0.10,
5.819,-1.23,0.34,0.81,-0.11,-0.60,-0.10,
5.819,-1.05,0.06,0.44,-0.11,-0.60,-0.10,
5.82,-1.05,0.06,0.44,-0.11,-0.60,-0.10,
5.828,-1.05,0.06,0.44,-0.11,-0.60,-0.10,
5.829,-1.05,0.06,0.44,-0.11,-0.60,-0.10,
5.83,-1.05,0.06,0.44,-0.11,-0.60,-0.10,
5.831,-1.05,0.06,0.44,-0.11,-0.60,-0.10,
5.835,-1.05,0.06,0.44,-0.27,-0.78,-0.13,
5.836,-1.05,0.06,0.44,-0.27,-0.78,-0.13,
5.836,-0.40,-0.57,-0.07,-0.27,-0.78,-0.13,
5.837,-0.40,-0.57,-0.07,-0.27,-0.78,-0.13,
5.845,-0.40,-0.57,-0.07,-0.34,-0.91,-0.12,
5.846,-0.40,-0.57,-0.07,-0.34,-0.91,-0.12,
5.847,-0.10,-0.80,-0.21,-0.34,-0.91,-0.12,
5.847,-0.10,-0.80,-0.21,-0.34,-0.91,-0.12,
5.855,-0.10,-0.80,-0.21,-0.30,-0.94,-0.08,
5.856,-0.10,-0.80,-0.21,-0.30,-0.94,-0.08,
5.857,0.07,-0.95,-0.22,-0.30,-0.94,-0.08,
5.857,0.07,-0.95,-0.22,-0.30,-0.94,-0.08,
5.864,0.07,-0.95,-0.22,-0.17,-0.86,-0.02,
5.865,0.07,-0.95,-0.22,-0.17,-0.86,-0.02,
5.866,0.13,-1.00,-0.19,-0.17,-0.86,-0.02,
5.866,0.13,-1.00,-0.19,-0.17,-0.86,-0.02,
5.887,0.13,-1.00,-0.19,0.02,-0.70,0.03,
5.889,0.13,-1.00,-0.19,0.02,-0.70,0.03,
5.89,0.03,-0.95,-0.16,0.02,-0.70,0.03,
5.891,0.03,-0.95,-0.16,0.02,-0.70,0.03,
5.892,0.03,-0.95,-0.16,0.02,-0.70,0.03,
5.893,0.03,-0.95,-0.16,0.02,-0.70,0.03,
5.894,0.03,-0.95,-0.16,0.02,-0.70,0.03,
5.895,0.03,-0.95,-0.16,0.02,-0.70,0.03,
5.896,0.03,-0.95,-0.16,0.31,-0.36,0.07,
5.897,0.03,-0.95,-0.16,0.31,-0.36,0.07,
5.899,-0.47,-0.59,-0.06,0.31,-0.36,0.07,
5.899,-0.47,-0.59,-0.06,0.31,-0.36,0.07,
5.908,-0.47,-0.59,-0.06,0.39,-0.23,0.06,
5.908,-0.47,-0.59,-0.06,0.39,-0.23,0.06,
5.908,-0.79,-0.32,-0.00,0.39,-0.23,0.06,
5.909,-0.79,-0.32,-0.00,0.39,-0.23,0.06,
5.912,-0.79,-0.32,-0.00,0.39,-0.23,0.06,
5.912,-0.79,-0.32,-0.00,0.39,-0.23,0.06,
5.913,-0.79,-0.32,-0.00,0.39,-0.23,0.06,
5.913,-0.79,-0.32,-0.00,0.39,-0.23,0.06,
5.927,-0.79,-0.32,-0.00,0.23,-0.32,0.02,
5.928,-0.79,-0.32,-0.00,0.23,-0.32,0.02,
5.928,-1.20,0.08,0.15,0.23,-0.32,0.02,
5.928,-1.20,0.08,0.15,0.23,-0.32,0.02,
5.931,-1.20,0.08,0.15,0.13,-0.39,-0.01,
5.931,-1.20,0.08,0.15,0.13,-0.39,-0.01,
5.932,-1.22,0.19,0.19,0.13,-0.39,-0.01,
5.932,-1.22,0.19,0.19,0.13,-0.39,-0.01,
5.94,-1.22,0.19,0.19,0.03,-0.45,-0.05,
5.941,-1.22,0.19,0.19,0.03,-0.45,-0.05,
5.942,-1.14,0.24,0.15,0.03,-0.45,-0.05,
5.942,-1.14,0.24,0.15,0.03,-0.45,-0.05,
5.95,-1.14,0.24,0.15,-0.06,-0.50,-0.10,
5.951,-1.14,0.24,0.15,-0.06,-0.50,-0.10,
5.951,-0.99,0.27,0.05,-0.06,-0.50,-0.10,
5.952,-0.99,0.27,0.05,-0.06,-0.50,-0.10,
5.96,-0.99,0.27,0.05,-0.14,-0.52,-0.14,
5.96,-0.99,0.27,0.05,-0.14,-0.52,-0.14,
5.961,-0.82,0.23,-0.05,-0.14,-0.52,-0.14,
5.962,-0.82,0.23,-0.05,-0.14,-0.52,-0.14,
5.969,-0.82,0.23,-0.05,-0.19,-0.50,-0.18,
5.97,-0.82,0.23,-0.05,-0.19,-0.50,-0.18,
5.971,-0.67,0.17,-0.15,-0.19,-0.50,-0.18,
5.972,-0.67,0.17,-0.15,-0.19,-0.50,-0.18,
5.982,-0.67,0.17,-0.15,-0.23,-0.45,-0.20,
5.983,-0.67,0.17,-0.15,-0.23,-0.45,-0.20,
5.984,-0.57,0.12,-0.15,-0.23,-0.45,-0.20,
5.985,-0.57,0.12,-0.15,-0.23,-0.45,-0.20,
5.999,-0.57,0.12,-0.15,-0.24,-0.37,-0.22,
5.999,-0.57,0.12,-0.15,-0.24,-0.37,-0.22,
6.0,-0.54,0.10,-0.11,-0.24,-0.37,-0.22,
6.0,-0.54,0.10,-0.11,-0.24,-0.37,-0.22,
6.0,-0.54,0.10,-0.11,-0.22,-0.28,-0.23,
6.0,-0.54,0.10,-0.11,-0.22,-0.28,-0.23,
6.001,-0.55,0.09,-0.04,-0.22,-0.28,-0.23,
6.001,-0.55,0.09,-0.04,-0.22,-0.28,-0.23,
6.007,-0.55,0.09,-0.04,-0.17,-0.20,-0.23,
6.008,-0.55,0.09,-0.04,-0.17,-0.20,-0.23,
6.008,-0.58,0.09,0.07,-0.17,-0.20,-0.23,
6.009,-0.58,0.09,0.07,-0.17,-0.20,-0.23,
6.018,-0.58,0.09,0.07,-0.11,-0.13,-0.23,
6.019,-0.58,0.09,0.07,-0.11,-0.13,-0.23,
6.019,-0.61,0.09,0.16,-0.11,-0.13,-0.23,
6.02,-0.61,0.09,0.16,-0.11,-0.13,-0.23,
6.026,-0.61,0.09,0.16,-0.11,-0.13,-0.23,
6.027,-0.61,0.09,0.16,-0.11,-0.13,-0.23,
6.028,-0.61,0.09,0.16,-0.11,-0.13,-0.23,
6.028,-0.61,0.09,0.16,-0.11,-0.13,-0.23,
6.035,-0.61,0.09,0.16,-0.05,-0.07,-0.23,
6.036,-0.61,0.09,0.16,-0.05,-0.07,-0.23,
6.037,-0.59,-0.01,0.28,-0.05,-0.07,-0.23,
6.037,-0.59,-0.01,0.28,-0.05,-0.07,-0.23,
6.045,-0.59,-0.01,0.28,0.01,-0.02,-0.21,
6.046,-0.59,-0.01,0.28,0.01,-0.02,-0.21,
6.047,-0.60,-0.04,0.32,0.01,-0.02,-0.21,
6.047,-0.60,-0.04,0.32,0.01,-0.02,-0.21,
6.056,-0.60,-0.04,0.32,0.07,0.02,-0.18,
6.057,-0.60,-0.04,0.32,0.07,0.02,-0.18,
6.058,-0.64,-0.08,0.34,0.07,0.02,-0.18,
6.058,-0.64,-0.08,0.34,0.07,0.02,-0.18,
6.064,-0.64,-0.08,0.34,0.13,0.05,-0.13,
6.065,-0.64,-0.08,0.34,0.13,0.05,-0.13,
6.066,-0.70,-0.07,0.39,0.13,0.05,-0.13,
6.067,-0.70,-0.07,0.39,0.13,0.05,-0.13,
6.075,-0.70,-0.07,0.39,0.18,0.07,-0.07,
6.076,-0.70,-0.07,0.39,0.18,0.07,-0.07,
6.076,-0.76,-0.03,0.41,0.18,0.07,-0.07,
6.077,-0.76,-0.03,0.41,0.18,0.07,-0.07,
6.083,-0.76,-0.03,0.41,0.22,0.07,-0.01,
6.084,-0.76,-0.03,0.41,0.22,0.07,-0.01,
6.084,-0.78,-0.02,0.39,0.22,0.07,-0.01,
6.085,-0.78,-0.02,0.39,0.22,0.07,-0.01,
6.094,-0.78,-0.02,0.39,0.24,0.05,0.04,
6.096,-0.78,-0.02,0.39,0.24,0.05,0.04,
6.096,-0.75,-0.02,0.35,0.24,0.05,0.04,
6.097,-0.75,-0.02,0.35,0.24,0.05,0.04,
6.102,-0.75,-0.02,0.35,0.25,0.01,0.07,
6.103,-0.75,-0.02,0.35,0.25,0.01,0.07,
6.104,-0.70,-0.05,0.30,0.25,0.01,0.07,
6.105,-0.70,-0.05,0.30,0.25,0.01,0.07,
6.113,-0.70,-0.05,0.30,0.25,-0.03,0.08,
6.114,-0.70,-0.05,0.30,0.25,-0.03,0.08,
6.114,-0.66,-0.10,0.23,0.25,-0.03,0.08,
6.115,-0.66,-0.10,0.23,0.25,-0.03,0.08,
6.122,-0.66,-0.10,0.23,0.25,-0.08,0.08,
6.123,-0.66,-0.10,0.23,0.25,-0.08,0.08,
6.124,-0.59,-0.12,0.17,0.25,-0.08,0.08,
6.125,-0.59,-0.12,0.17,0.25,-0.08,0.08,
6.131,-0.59,-0.12,0.17,0.24,-0.11,0.08,
6.132,-0.59,-0.12,0.17,0.24,-0.11,0.08,
6.133,-0.52,-0.15,0.14,0.24,-0.11,0.08,
6.133,-0.52,-0.15,0.14,0.24,-0.11,0.08,
6.14,-0.52,-0.15,0.14,0.24,-0.14,0.09,
6.141,-0.52,-0.15,0.14,0.24,-0.14,0.09,
6.142,-0.46,-0.17,0.11,0.24,-0.14,0.09,
6.143,-0.46,-0.17,0.11,0.24,-0.14,0.09,
6.15,-0.46,-0.17,0.11,0.24,-0.15,0.09,
6.151,-0.46,-0.17,0.11,0.24,-0.15,0.09,
6.151,-0.39,-0.19,0.10,0.24,-0.15,0.09,
6.152,-0.39,-0.19,0.10,0.24,-0.15,0.09,
6.159,-0.39,-0.19,0.10,0.24,-0.15,0.09,
6.16,-0.39,-0.19,0.10,0.24,-0.15,0.09,
6.161,-0.34,-0.18,0.11,0.24,-0.15,0.09,
6.162,-0.34,-0.18,0.11,0.24,-0.15,0.09,
6.169,-0.34,-0.18,0.11,0.23,-0.14,0.08,
6.169,-0.34,-0.18,0.11,0.23,-0.14,0.08,
6.17,-0.34,-0.15,0.12,0.23,-0.14,0.08,
6.17,-0.34,-0.15,0.12,0.23,-0.14,0.08,
6.179,-0.34,-0.15,0.12,0.22,-0.12,0.07,
6.18,-0.34,-0.15,0.12,0.22,-0.12,0.07,
6.181,-0.34,-0.10,0.13,0.22,-0.12,0.07,
6.181,-0.34,-0.10,0.13,0.22,-0.12,0.07,
6.199,-0.34,-0.10,0.13,0.19,-0.10,0.07,
6.2,-0.34,-0.10,0.13,0.19,-0.10,0.07,
6.2,-0.36,-0.06,0.11,0.19,-0.10,0.07,
6.2,-0.36,-0.06,0.11,0.19,-0.10,0.07,
6.201,-0.36,-0.06,0.11,0.15,-0.08,0.07,
6.201,-0.36,-0.06,0.11,0.15,-0.08,0.07,
6.201,-0.38,-0.03,0.11,0.15,-0.08,0.07,
6.202,-0.38,-0.03,0.11,0.15,-0.08,0.07,
6.208,-0.38,-0.03,0.11,0.11,-0.07,0.06,
6.208,-0.38,-0.03,0.11,0.11,-0.07,0.06,
6.209,-0.39,0.02,0.11,0.11,-0.07,0.06,
6.209,-0.39,0.02,0.11,0.11,-0.07,0.06,
6.218,-0.39,0.02,0.11,0.07,-0.08,0.03,
6.219,-0.39,0.02,0.11,0.07,-0.08,0.03,
6.219,-0.41,0.06,0.13,0.07,-0.08,0.03,
6.22,-0.41,0.06,0.13,0.07,-0.08,0.03,
6.227,-0.41,0.06,0.13,0.07,-0.08,0.03,
6.228,-0.41,0.06,0.13,0.07,-0.08,0.03,
6.229,-0.41,0.06,0.13,0.07,-0.08,0.03,
6.229,-0.41,0.06,0.13,0.07,-0.08,0.03,
6.235,-0.41,0.06,0.13,0.04,-0.10,-0.00,
6.236,-0.41,0.06,0.13,0.04,-0.10,-0.00,
6.236,-0.50,0.15,0.19,0.04,-0.10,-0.00,
6.236,-0.50,0.15,0.19,0.04,-0.10,-0.00,
6.245,-0.50,0.15,0.19,-0.00,-0.12,-0.03,
6.246,-0.50,0.15,0.19,-0.00,-0.12,-0.03,
6.247,-0.52,0.19,0.19,-0.00,-0.12,-0.03,
6.247,-0.52,0.19,0.19,-0.00,-0.12,-0.03,
6.255,-0.52,0.19,0.19,-0.05,-0.15,-0.05,
6.255,-0.52,0.19,0.19,-0.05,-0.15,-0.05,
6.256,-0.51,0.22,0.18,-0.05,-0.15,-0.05,
6.256,-0.51,0.22,0.18,-0.05,-0.15,-0.05,
6.264,-0.51,0.22,0.18,-0.10,-0.17,-0.05,
6.265,-0.51,0.22,0.18,-0.10,-0.17,-0.05,
6.265,-0.45,0.27,0.18,-0.10,-0.17,-0.05,
6.266,-0.45,0.27,0.18,-0.10,-0.17,-0.05,
6.274,-0.45,0.27,0.18,-0.15,-0.18,-0.06,
6.275,-0.45,0.27,0.18,-0.15,-0.18,-0.06,
6.275,-0.39,0.30,0.19,-0.15,-0.18,-0.06,
6.275,-0.39,0.30,0.19,-0.15,-0.18,-0.06,
6.283,-0.39,0.30,0.19,-0.19,-0.19,-0.08,
6.284,-0.39,0.30,0.19,-0.19,-0.19,-0.08,
6.285,-0.35,0.30,0.21,-0.19,-0.19,-0.08,
6.285,-0.35,0.30,0.21,-0.19,-0.19,-0.08,
6.294,-0.35,0.30,0.21,-0.22,-0.18,-0.10,
6.295,-0.35,0.30,0.21,-0.22,-0.18,-0.10,
6.295,-0.31,0.32,0.25,-0.22,-0.18,-0.10,
6.296,-0.31,0.32,0.25,-0.22,-0.18,-0.10,
6.302,-0.31,0.32,0.25,-0.23,-0.15,-0.13,
6.303,-0.31,0.32,0.25,-0.23,-0.15,-0.13,
6.304,-0.29,0.32,0.32,-0.23,-0.15,-0.13,
6.305,-0.29,0.32,0.32,-0.23,-0.15,-0.13,
6.312,-0.29,0.32,0.32,-0.22,-0.12,-0.16,
6.313,-0.29,0.32,0.32,-0.22,-0.12,-0.16,
6.313,-0.26,0.31,0.37,-0.22,-0.12,-0.16,
6.314,-0.26,0.31,0.37,-0.22,-0.12,-0.16,
6.322,-0.26,0.31,0.37,-0.20,-0.08,-0.19,
6.322,-0.26,0.31,0.37,-0.20,-0.08,-0.19,
6.323,-0.23,0.28,0.41,-0.20,-0.08,-0.19,
6.323,-0.23,0.28,0.41,-0.20,-0.08,-0.19,
6.331,-0.23,0.28,0.41,-0.18,-0.03,-0.19,
6.332,-0.23,0.28,0.41,-0.18,-0.03,-0.19,
6.332,-0.22,0.24,0.45,-0.18,-0.03,-0.19,
6.333,-0.22,0.24,0.45,-0.18,-0.03,-0.19,
6.34,-0.22,0.24,0.45,-0.15,0.01,-0.19,
6.341,-0.22,0.24,0.45,-0.15,0.01,-0.19,
6.342,-0.22,0.21,0.47,-0.15,0.01,-0.19,
6.342,-0.22,0.21,0.47,-0.15,0.01,-0.19,
6.35,-0.22,0.21,0.47,-0.11,0.06,-0.17,
6.35,-0.22,0.21,0.47,-0.11,0.06,-0.17,
6.351,-0.20,0.20,0.48,-0.11,0.06,-0.17,
6.352,-0.20,0.20,0.48,-0.11,0.06,-0.17,
6.359,-0.20,0.20,0.48,-0.06,0.09,-0.15,
6.36,-0.20,0.20,0.48,-0.06,0.09,-0.15,
6.361,-0.17,0.21,0.50,-0.06,0.09,-0.15,
6.362,-0.17,0.21,0.50,-0.06,0.09,-0.15,
6.368,-0.17,0.21,0.50,-0.02,0.12,-0.12,
6.369,-0.17,0.21,0.50,-0.02,0.12,-0.12,
6.37,-0.10,0.22,0.49,-0.02,0.12,-0.12,
6.37,-0.10,0.22,0.49,-0.02,0.12,-0.12,
6.379,-0.10,0.22,0.49,0.02,0.14,-0.10,
6.38,-0.10,0.22,0.49,0.02,0.14,-0.10,
6.381,-0.04,0.23,0.48,0.02,0.14,-0.10,
6.381,-0.04,0.23,0.48,0.02,0.14,-0.10,
6.406,-0.04,0.23,0.48,0.04,0.15,-0.08,
6.407,-0.04,0.23,0.48,0.04,0.15,-0.08,
6.407,-0.02,0.25,0.48,0.04,0.15,-0.08,
6.408,-0.02,0.25,0.48,0.04,0.15,-0.08,
6.408,-0.02,0.25,0.48,0.05,0.18,-0.08,
6.408,-0.02,0.25,0.48,0.05,0.18,-0.08,
6.409,-0.02,0.25,0.48,0.05,0.18,-0.08,
6.409,-0.02,0.25,0.48,0.05,0.18,-0.08,
6.409,-0.02,0.25,0.48,0.05,0.20,-0.07,
6.41,-0.02,0.25,0.48,0.05,0.20,-0.07,
6.41,-0.02,0.25,0.49,0.05,0.20,-0.07,
6.41,-0.02,0.25,0.49,0.05,0.20,-0.07,
6.418,-0.02,0.25,0.49,0.04,0.21,-0.06,
6.418,-0.02,0.25,0.49,0.04,0.21,-0.06,
6.419,-0.03,0.26,0.49,0.04,0.21,-0.06,
6.419,-0.03,0.26,0.49,0.04,0.21,-0.06,
6.427,-0.03,0.26,0.49,0.04,0.21,-0.06,
6.428,-0.03,0.26,0.49,0.04,0.21,-0.06,
6.428,-0.03,0.26,0.49,0.04,0.21,-0.06,
6.428,-0.03,0.26,0.49,0.04,0.21,-0.06,
6.435,-0.03,0.26,0.49,0.03,0.21,-0.05,
6.436,-0.03,0.26,0.49,0.03,0.21,-0.05,
6.436,-0.05,0.27,0.47,0.03,0.21,-0.05,
6.437,-0.05,0.27,0.47,0.03,0.21,-0.05,
6.445,-0.05,0.27,0.47,0.03,0.20,-0.07,
6.445,-0.05,0.27,0.47,0.03,0.20,-0.07,
6.446,-0.08,0.26,0.44,0.03,0.20,-0.07,
6.446,-0.08,0.26,0.44,0.03,0.20,-0.07,
6.454,-0.08,0.26,0.44,0.03,0.18,-0.09,
6.455,-0.08,0.26,0.44,0.03,0.18,-0.09,
6.455,-0.12,0.25,0.41,0.03,0.18,-0.09,
6.456,-0.12,0.25,0.41,0.03,0.18,-0.09,
6.464,-0.12,0.25,0.41,0.04,0.14,-0.11,
6.465,-0.12,0.25,0.41,0.04,0.14,-0.11,
6.465,-0.15,0.25,0.41,0.04,0.14,-0.11,
6.467,-0.15,0.25,0.41,0.04,0.14,-0.11,
6.473,-0.15,0.25,0.41,0.03,0.10,-0.11,
6.475,-0.15,0.25,0.41,0.03,0.10,-0.11,
6.476,-0.16,0.27,0.41,0.03,0.10,-0.11,
6.477,-0.16,0.27,0.41,0.03,0.10,-0.11,
6.483,-0.16,0.27,0.41,0.01,0.06,-0.09,
6.485,-0.16,0.27,0.41,0.01,0.06,-0.09,
6.485,-0.16,0.27,0.39,0.01,0.06,-0.09,
6.487,-0.16,0.27,0.39,0.01,0.06,-0.09,
6.499,-0.16,0.27,0.39,-0.01,0.02,-0.07,
6.499,-0.16,0.27,0.39,-0.01,0.02,-0.07,
6.5,-0.18,0.28,0.36,-0.01,0.02,-0.07,
6.501,-0.18,0.28,0.36,-0.01,0.02,-0.07,
6.501,-0.18,0.28,0.36,-0.02,-0.01,-0.05,
6.502,-0.18,0.28,0.36,-0.02,-0.01,-0.05,
6.503,-0.23,0.29,0.31,-0.02,-0.01,-0.05,
6.504,-0.23,0.29,0.31,-0.02,-0.01,-0.05,
6.513,-0.23,0.29,0.31,-0.04,-0.04,-0.04,
6.514,-0.23,0.29,0.31,-0.04,-0.04,-0.04,
6.514,-0.32,0.29,0.28,-0.04,-0.04,-0.04,
6.514,-0.32,0.29,0.28,-0.04,-0.04,-0.04,
6.521,-0.32,0.29,0.28,-0.05,-0.08,-0.03,
6.522,-0.32,0.29,0.28,-0.05,-0.08,-0.03,
6.522,-0.38,0.31,0.28,-0.05,-0.08,-0.03,
6.523,-0.38,0.31,0.28,-0.05,-0.08,-0.03,
6.53,-0.38,0.31,0.28,-0.07,-0.12,-0.02,
6.531,-0.38,0.31,0.28,-0.07,-0.12,-0.02,
6.531,-0.43,0.32,0.29,-0.07,-0.12,-0.02,
6.532,-0.43,0.32,0.29,-0.07,-0.12,-0.02,
6.54,-0.43,0.32,0.29,-0.09,-0.16,-0.01,
6.541,-0.43,0.32,0.29,-0.09,-0.16,-0.01,
6.542,-0.43,0.32,0.31,-0.09,-0.16,-0.01,
6.542,-0.43,0.32,0.31,-0.09,-0.16,-0.01,
6.549,-0.43,0.32,0.31,-0.10,-0.21,0.00,
6.551,-0.43,0.32,0.31,-0.10,-0.21,0.00,
6.552,-0.41,0.29,0.31,-0.10,-0.21,0.00,
6.553,-0.41,0.29,0.31,-0.10,-0.21,0.00,
6.559,-0.41,0.29,0.31,-0.11,-0.24,0.01,
6.56,-0.41,0.29,0.31,-0.11,-0.24,0.01,
6.561,-0.41,0.25,0.30,-0.11,-0.24,0.01,
6.562,-0.41,0.25,0.30,-0.11,-0.24,0.01,
6.568,-0.41,0.25,0.30,-0.11,-0.26,0.02,
6.569,-0.41,0.25,0.30,-0.11,-0.26,0.02,
6.569,-0.39,0.22,0.31,-0.11,-0.26,0.02,
6.57,-0.39,0.22,0.31,-0.11,-0.26,0.02,
6.578,-0.39,0.22,0.31,-0.10,-0.25,0.02,
6.579,-0.39,0.22,0.31,-0.10,-0.25,0.02,
6.58,-0.40,0.19,0.32,-0.10,-0.25,0.02,
6.58,-0.40,0.19,0.32,-0.10,-0.25,0.02,
6.594,-0.40,0.19,0.32,-0.09,-0.24,0.03,
6.595,-0.40,0.19,0.32,-0.09,-0.24,0.03,
6.595,-0.38,0.19,0.31,-0.09,-0.24,0.03,
6.595,-0.38,0.19,0.31,-0.09,-0.24,0.03,
6.597,-0.38,0.19,0.31,-0.06,-0.22,0.03,
6.597,-0.38,0.19,0.31,-0.06,-0.22,0.03,
6.597,-0.36,0.20,0.31,-0.06,-0.22,0.03,
6.598,-0.36,0.20,0.31,-0.06,-0.22,0.03,
6.607,-0.36,0.20,0.31,-0.04,-0.19,0.03,
6.607,-0.36,0.20,0.31,-0.04,-0.19,0.03,
6.608,-0.35,0.19,0.30,-0.04,-0.19,0.03,
6.608,-0.35,0.19,0.30,-0.04,-0.19,0.03,
6.617,-0.35,0.19,0.30,-0.02,-0.16,0.02,
6.618,-0.35,0.19,0.30,-0.02,-0.16,0.02,
6.618,-0.31,0.19,0.29,-0.02,-0.16,0.02,
6.619,-0.31,0.19,0.29,-0.02,-0.16,0.02,
6.626,-0.31,0.19,0.29,-0.02,-0.16,0.02,
6.627,-0.31,0.19,0.29,-0.02,-0.16,0.02,
6.628,-0.31,0.19,0.29,-0.02,-0.16,0.02,
6.628,-0.31,0.19,0.29,-0.02,-0.16,0.02,
6.635,-0.31,0.19,0.29,-0.02,-0.13,0.02,
6.636,-0.31,0.19,0.29,-0.02,-0.13,0.02,
6.636,-0.24,0.19,0.35,-0.02,-0.13,0.02,
6.637,-0.24,0.19,0.35,-0.02,-0.13,0.02,
6.644,-0.24,0.19,0.35,-0.02,-0.10,0.02,
6.645,-0.24,0.19,0.35,-0.02,-0.10,0.02,
6.646,-0.23,0.20,0.40,-0.02,-0.10,0.02,
6.647,-0.23,0.20,0.40,-0.02,-0.10,0.02,
6.655,-0.23,0.20,0.40,-0.02,-0.06,0.01,
6.656,-0.23,0.20,0.40,-0.02,-0.06,0.01,
6.656,-0.24,0.21,0.42,-0.02,-0.06,0.01,
6.657,-0.24,0.21,0.42,-0.02,-0.06,0.01,
6.663,-0.24,0.21,0.42,-0.01,-0.01,0.00,
6.664,-0.24,0.21,0.42,-0.01,-0.01,0.00,
6.665,-0.25,0.18,0.44,-0.01,-0.01,0.00,
6.665,-0.25,0.18,0.44,-0.01,-0.01,0.00,
6.673,-0.25,0.18,0.44,-0.01,0.04,-0.01,
6.674,-0.25,0.18,0.44,-0.01,0.04,-0.01,
6.674,-0.21,0.14,0.44,-0.01,0.04,-0.01,
6.675,-0.21,0.14,0.44,-0.01,0.04,-0.01,
6.683,-0.21,0.14,0.44,-0.00,0.07,-0.02,
6.684,-0.21,0.14,0.44,-0.00,0.07,-0.02,
6.684,-0.15,0.12,0.44,-0.00,0.07,-0.02,
6.685,-0.15,0.12,0.44,-0.00,0.07,-0.02,
6.693,-0.15,0.12,0.44,0.01,0.10,-0.04,
6.694,-0.15,0.12,0.44,0.01,0.10,-0.04,
6.695,-0.09,0.10,0.46,0.01,0.10,-0.04,
6.695,-0.09,0.10,0.46,0.01,0.10,-0.04,
6.702,-0.09,0.10,0.46,0.03,0.12,-0.05,
6.703,-0.09,0.10,0.46,0.03,0.12,-0.05,
6.703,-0.09,0.09,0.45,0.03,0.12,-0.05,
6.704,-0.09,0.09,0.45,0.03,0.12,-0.05,
6.713,-0.09,0.09,0.45,0.05,0.15,-0.06,
6.714,-0.09,0.09,0.45,0.05,0.15,-0.06,
6.715,-0.07,0.11,0.47,0.05,0.15,-0.06,
6.715,-0.07,0.11,0.47,0.05,0.15,-0.06,
6.721,-0.07,0.11,0.47,0.06,0.18,-0.06,
6.722,-0.07,0.11,0.47,0.06,0.18,-0.06,
6.722,-0.07,0.12,0.46,0.06,0.18,-0.06,
6.723,-0.07,0.12,0.46,0.06,0.18,-0.06,
6.73,-0.07,0.12,0.46,0.07,0.20,-0.06,
6.731,-0.07,0.12,0.46,0.07,0.20,-0.06,
6.732,-0.11,0.12,0.44,0.07,0.20,-0.06,
6.732,-0.11,0.12,0.44,0.07,0.20,-0.06,
6.739,-0.11,0.12,0.44,0.07,0.21,-0.06,
6.74,-0.11,0.12,0.44,0.07,0.21,-0.06,
6.741,-0.12,0.13,0.44,0.07,0.21,-0.06,
6.741,-0.12,0.13,0.44,0.07,0.21,-0.06,
6.749,-0.12,0.13,0.44,0.06,0.21,-0.05,
6.75,-0.12,0.13,0.44,0.06,0.21,-0.05,
6.751,-0.16,0.14,0.41,0.06,0.21,-0.05,
6.751,-0.16,0.14,0.41,0.06,0.21,-0.05,
6.759,-0.16,0.14,0.41,0.04,0.20,-0.04,
6.76,-0.16,0.14,0.41,0.04,0.20,-0.04,
6.761,-0.20,0.15,0.38,0.04,0.20,-0.04,
6.762,-0.20,0.15,0.38,0.04,0.20,-0.04,
6.768,-0.20,0.15,0.38,0.03,0.17,-0.03,
6.769,-0.20,0.15,0.38,0.03,0.17,-0.03,
6.769,-0.18,0.18,0.36,0.03,0.17,-0.03,
6.77,-0.18,0.18,0.36,0.03,0.17,-0.03,
6.778,-0.18,0.18,0.36,0.02,0.13,-0.03,
6.78,-0.18,0.18,0.36,0.02,0.13,-0.03,
6.781,-0.18,0.21,0.32,0.02,0.13,-0.03,
6.782,-0.18,0.21,0.32,0.02,0.13,-0.03,
6.794,-0.18,0.21,0.32,0.01,0.09,-0.04,
6.795,-0.18,0.21,0.32,0.01,0.09,-0.04,
6.795,-0.19,0.22,0.29,0.01,0.09,-0.04,
6.796,-0.19,0.22,0.29,0.01,0.09,-0.04,
6.797,-0.19,0.22,0.29,-0.01,0.05,-0.05,
6.798,-0.19,0.22,0.29,-0.01,0.05,-0.05,
6.798,-0.21,0.23,0.28,-0.01,0.05,-0.05,
6.799,-0.21,0.23,0.28,-0.01,0.05,-0.05,
6.807,-0.21,0.23,0.28,-0.03,0.01,-0.06,
6.808,-0.21,0.23,0.28,-0.03,0.01,-0.06,
6.808,-0.23,0.22,0.29,-0.03,0.01,-0.06,
6.809,-0.23,0.22,0.29,-0.03,0.01,-0.06,
6.817,-0.23,0.22,0.29,-0.03,0.01,-0.06,
6.818,-0.23,0.22,0.29,-0.03,0.01,-0.06,
6.818,-0.23,0.22,0.29,-0.03,0.01,-0.06,
6.819,-0.23,0.22,0.29,-0.03,0.01,-0.06,
6.826,-0.23,0.22,0.29,-0.05,-0.03,-0.07,
6.827,-0.23,0.22,0.29,-0.05,-0.03,-0.07,
6.828,-0.26,0.19,0.32,-0.05,-0.03,-0.07,
6.829,-0.26,0.19,0.32,-0.05,-0.03,-0.07,
6.835,-0.26,0.19,0.32,-0.06,-0.06,-0.08,
6.836,-0.26,0.19,0.32,-0.06,-0.06,-0.08,
6.836,-0.28,0.15,0.34,-0.06,-0.06,-0.08,
6.837,-0.28,0.15,0.34,-0.06,-0.06,-0.08,
6.844,-0.28,0.15,0.34,-0.07,-0.08,-0.07,
6.845,-0.28,0.15,0.34,-0.07,-0.08,-0.07,
6.846,-0.31,0.12,0.32,-0.07,-0.08,-0.07,
6.846,-0.31,0.12,0.32,-0.07,-0.08,-0.07,
6.854,-0.31,0.12,0.32,-0.07,-0.09,-0.05,
6.855,-0.31,0.12,0.32,-0.07,-0.09,-0.05,
6.856,-0.32,0.09,0.31,-0.07,-0.09,-0.05,
6.856,-0.32,0.09,0.31,-0.07,-0.09,-0.05,
6.864,-0.32,0.09,0.31,-0.06,-0.10,-0.01,
6.864,-0.32,0.09,0.31,-0.06,-0.10,-0.01,
6.865,-0.30,0.08,0.33,-0.06,-0.10,-0.01,
6.865,-0.30,0.08,0.33,-0.06,-0.10,-0.01,
6.873,-0.30,0.08,0.33,-0.05,-0.11,0.03,
6.874,-0.30,0.08,0.33,-0.05,-0.11,0.03,
6.874,-0.28,0.07,0.35,-0.05,-0.11,0.03,
6.875,-0.28,0.07,0.35,-0.05,-0.11,0.03,
6.895,-0.28,0.07,0.35,-0.04,-0.11,0.07,
6.896,-0.28,0.07,0.35,-0.04,-0.11,0.07,
6.897,-0.28,0.07,0.35,-0.04,-0.11,0.07,
6.897,-0.28,0.07,0.35,-0.04,-0.11,0.07,
6.898,-0.28,0.07,0.35,-0.02,-0.10,0.10,
6.899,-0.28,0.07,0.35,-0.02,-0.10,0.10,
6.899,-0.28,0.07,0.35,-0.02,-0.10,0.10,
6.9,-0.28,0.07,0.35,-0.02,-0.10,0.10,
6.908,-0.28,0.07,0.35,-0.01,-0.09,0.11,
6.909,-0.28,0.07,0.35,-0.01,-0.09,0.11,
6.91,-0.28,0.07,0.36,-0.01,-0.09,0.11,
6.911,-0.28,0.07,0.36,-0.01,-0.09,0.11,
6.911,-0.28,0.07,0.36,-0.00,-0.08,0.11,
6.912,-0.28,0.07,0.36,-0.00,-0.08,0.11,
6.912,-0.28,0.07,0.36,-0.00,-0.08,0.11,
6.913,-0.28,0.07,0.36,-0.00,-0.08,0.11,
6.921,-0.28,0.07,0.36,0.00,-0.06,0.10,
6.922,-0.28,0.07,0.36,0.00,-0.06,0.10,
6.923,-0.27,0.07,0.36,0.00,-0.06,0.10,
6.923,-0.27,0.07,0.36,0.00,-0.06,0.10,
6.93,-0.27,0.07,0.36,0.01,-0.05,0.09,
6.931,-0.27,0.07,0.36,0.01,-0.05,0.09,
6.932,-0.27,0.07,0.36,0.01,-0.05,0.09,
6.932,-0.27,0.07,0.36,0.01,-0.05,0.09,
6.939,-0.27,0.07,0.36,0.01,-0.04,0.08,
6.94,-0.27,0.07,0.36,0.01,-0.04,0.08,
6.94,-0.27,0.07,0.36,0.01,-0.04,0.08,
6.941,-0.27,0.07,0.36,0.01,-0.04,0.08,
6.949,-0.27,0.07,0.36,0.01,-0.04,0.06,
6.949,-0.27,0.07,0.36,0.01,-0.04,0.06,
6.95,-0.27,0.07,0.36,0.01,-0.04,0.06,
6.95,-0.27,0.07,0.36,0.01,-0.04,0.06,
6.958,-0.27,0.07,0.36,0.01,-0.03,0.05,
6.959,-0.27,0.07,0.36,0.01,-0.03,0.05,
6.96,-0.27,0.07,0.36,0.01,-0.03,0.05,
6.96,-0.27,0.07,0.36,0.01,-0.03,0.05,
6.968,-0.27,0.07,0.36,0.01,-0.02,0.04,
6.969,-0.27,0.07,0.36,0.01,-0.02,0.04,
6.969,-0.27,0.07,0.36,0.01,-0.02,0.04,
6.97,-0.27,0.07,0.36,0.01,-0.02,0.04,
6.978,-0.27,0.07,0.36,0.00,-0.02,0.03,
6.978,-0.27,0.07,0.36,0.00,-0.02,0.03,
6.979,-0.27,0.07,0.36,0.00,-0.02,0.03,
6.979,-0.27,0.07,0.36,0.00,-0.02,0.03,
6.992,-0.27,0.07,0.36,0.00,-0.02,0.03,
6.993,-0.27,0.07,0.36,0.00,-0.02,0.03,
6.993,-0.27,0.07,0.36,0.00,-0.02,0.03,
6.994,-0.27,0.07,0.36,0.00,-0.02,0.03,
6.998,-0.27,0.07,0.36,0.00,-0.01,0.02,
6.998,-0.27,0.07,0.36,0.00,-0.01,0.02,
6.999,-0.26,0.07,0.36,0.00,-0.01,0.02,
6.999,-0.26,0.07,0.36,0.00,-0.01,0.02,
7.01,-0.26,0.07,0.36,0.00,-0.01,0.02,
7.011,-0.26,0.07,0.36,0.00,-0.01,0.02,
7.011,-0.26,0.07,0.36,0.00,-0.01,0.02,
7.011,-0.26,0.07,0.36,0.00,-0.01,0.02,
7.015,-0.26,0.07,0.36,0.00,-0.01,0.02,
7.016,-0.26,0.07,0.36,0.00,-0.01,0.02,
7.016,-0.26,0.07,0.36,0.00,-0.01,0.02,
7.017,-0.26,0.07,0.36,0.00,-0.01,0.02,
7.025,-0.26,0.07,0.36,0.00,-0.01,0.02,
7.026,-0.26,0.07,0.36,0.00,-0.01,0.02,
7.027,-0.26,0.07,0.36,0.00,-0.01,0.02,
7.027,-0.26,0.07,0.36,0.00,-0.01,0.02,
7.035,-0.26,0.07,0.36,0.00,-0.01,0.01,
7.036,-0.26,0.07,0.36,0.00,-0.01,0.01,
7.036,-0.26,0.08,0.37,0.00,-0.01,0.01,
7.037,-0.26,0.08,0.37,0.00,-0.01,0.01,
7.044,-0.26,0.08,0.37,0.00,-0.01,0.01,
7.045,-0.26,0.08,0.37,0.00,-0.01,0.01,
7.045,-0.26,0.08,0.37,0.00,-0.01,0.01,
7.046,-0.26,0.08,0.37,0.00,-0.01,0.01,
7.054,-0.26,0.08,0.37,0.00,-0.00,0.01,
7.055,-0.26,0.08,0.37,0.00,-0.00,0.01,
7.056,-0.25,0.08,0.37,0.00,-0.00,0.01,
7.056,-0.25,0.08,0.37,0.00,-0.00,0.01,
7.064,-0.25,0.08,0.37,0.00,-0.00,0.01,
7.065,-0.25,0.08,0.37,0.00,-0.00,0.01,
7.066,-0.25,0.08,0.37,0.00,-0.00,0.01,
7.066,-0.25,0.08,0.37,0.00,-0.00,0.01,
7.073,-0.25,0.08,0.37,0.00,-0.00,0.01,
7.073,-0.25,0.08,0.37,0.00,-0.00,0.01,
7.074,-0.25,0.08,0.37,0.00,-0.00,0.01,
7.074,-0.25,0.08,0.37,0.00,-0.00,0.01,
7.083,-0.25,0.08,0.37,0.00,-0.00,0.00,
7.084,-0.25,0.08,0.37,0.00,-0.00,0.00,
7.084,-0.25,0.08,0.37,0.00,-0.00,0.00,
7.085,-0.25,0.08,0.37,0.00,-0.00,0.00,
7.093,-0.25,0.08,0.37,0.00,-0.00,0.00,
7.095,-0.25,0.08,0.37,0.00,-0.00,0.00,
7.095,-0.25,0.08,0.37,0.00,-0.00,0.00,
7.096,-0.25,0.08,0.37,0.00,-0.00,0.00,
7.101,-0.25,0.08,0.37,-0.00,-0.00,-0.00,
7.102,-0.25,0.08,0.37,-0.00,-0.00,-0.00,
7.102,-0.25,0.09,0.37,-0.00,-0.00,-0.00,
7.103,-0.25,0.09,0.37,-0.00,-0.00,-0.00,
7.111,-0.25,0.09,0.37,0.00,0.00,-0.00,
7.112,-0.25,0.09,0.37,0.00,0.00,-0.00,
7.112,-0.24,0.09,0.37,0.00,0.00,-0.00,
7.112,-0.24,0.09,0.37,0.00,0.00,-0.00,
7.121,-0.24,0.09,0.37,0.00,-0.00,0.00,
7.122,-0.24,0.09,0.37,0.00,-0.00,0.00,
7.122,-0.24,0.09,0.37,0.00,-0.00,0.00,
7.123,-0.24,0.09,0.37,0.00,-0.00,0.00,
