
time,ax,ay,az,wx,wy,wz,
0.001,0.01,0.09,0.30,0.00,0.00,0.00,
0.002,0.01,0.09,0.30,0.00,0.00,0.00,
0.002,0.01,0.09,0.30,0.00,0.00,0.00,
0.002,0.01,0.09,0.30,0.00,0.00,0.00,
0.011,0.01,0.09,0.30,0.00,0.00,-0.00,
0.011,0.01,0.09,0.30,0.00,0.00,-0.00,
0.011,0.01,0.09,0.30,0.00,0.00,-0.00,
0.012,0.01,0.09,0.30,0.00,0.00,-0.00,
0.028,0.01,0.09,0.30,-0.00,0.00,0.00,
0.029,0.01,0.09,0.30,-0.00,0.00,0.00,
0.029,0.01,0.09,0.30,-0.00,0.00,0.00,
0.03,0.01,0.09,0.30,-0.00,0.00,0.00,
0.03,0.01,0.09,0.30,-0.00,-0.00,-0.00,
0.03,0.01,0.09,0.30,-0.00,-0.00,-0.00,
0.031,0.01,0.09,0.30,-0.00,-0.00,-0.00,
0.031,0.01,0.09,0.30,-0.00,-0.00,-0.00,
0.039,0.01,0.09,0.30,-0.00,-0.00,0.00,
0.04,0.01,0.09,0.30,-0.00,-0.00,0.00,
0.04,0.01,0.09,0.30,-0.00,-0.00,0.00,
0.041,0.01,0.09,0.30,-0.00,-0.00,0.00,
0.049,0.01,0.09,0.30,-0.00,0.00,-0.00,
0.05,0.01,0.09,0.30,-0.00,0.00,-0.00,
0.05,0.01,0.09,0.30,-0.00,0.00,-0.00,
0.05,0.01,0.09,0.30,-0.00,0.00,-0.00,
0.058,0.01,0.09,0.30,0.00,-0.00,-0.00,
0.059,0.01,0.09,0.30,0.00,-0.00,-0.00,
0.059,0.01,0.09,0.30,0.00,-0.00,-0.00,
0.06,0.01,0.09,0.30,0.00,-0.00,-0.00,
0.068,0.01,0.09,0.30,0.00,-0.00,0.00,
0.068,0.01,0.09,0.30,0.00,-0.00,0.00,
0.069,0.01,0.09,0.30,0.00,-0.00,0.00,
0.069,0.01,0.09,0.30,0.00,-0.00,0.00,
0.077,0.01,0.09,0.30,-0.00,-0.00,0.00,
0.078,0.01,0.09,0.30,-0.00,-0.00,0.00,
0.079,0.06,-0.03,0.08,-0.00,-0.00,0.00,
0.079,0.06,-0.03,0.08,-0.00,-0.00,0.00,
0.086,0.06,-0.03,0.08,-0.00,-0.00,-0.00,
0.087,0.06,-0.03,0.08,-0.00,-0.00,-0.00,
0.087,0.08,0.00,0.07,-0.00,-0.00,-0.00,
0.087,0.08,0.00,0.07,-0.00,-0.00,-0.00,
0.096,0.08,0.00,0.07,-0.00,0.00,-0.00,
0.096,0.08,0.00,0.07,-0.00,0.00,-0.00,
0.097,0.10,0.03,0.09,-0.00,0.00,-0.00,
0.097,0.10,0.03,0.09,-0.00,0.00,-0.00,
0.105,0.10,0.03,0.09,0.00,-0.00,-0.00,
0.106,0.10,0.03,0.09,0.00,-0.00,-0.00,
0.106,0.14,0.07,0.14,0.00,-0.00,-0.00,
0.107,0.14,0.07,0.14,0.00,-0.00,-0.00,
0.115,0.14,0.07,0.14,-0.00,0.00,0.00,
0.116,0.14,0.07,0.14,-0.00,0.00,0.00,
0.116,0.15,0.08,0.21,-0.00,0.00,0.00,
0.116,0.15,0.08,0.21,-0.00,0.00,0.00,
0.128,0.15,0.08,0.21,0.00,-0.00,-0.00,
0.129,0.15,0.08,0.21,0.00,-0.00,-0.00,
0.13,0.18,0.10,0.27,0.00,-0.00,-0.00,
0.13,0.18,0.10,0.27,0.00,-0.00,-0.00,
0.134,0.18,0.10,0.27,0.00,-0.00,0.00,
0.135,0.18,0.10,0.27,0.00,-0.00,0.00,
0.136,0.18,0.10,0.33,0.00,-0.00,0.00,
0.136,0.18,0.10,0.33,0.00,-0.00,0.00,
0.146,0.18,0.10,0.33,-0.00,0.00,-0.00,
0.147,0.18,0.10,0.33,-0.00,0.00,-0.00,
0.148,0.16,0.07,0.38,-0.00,0.00,-0.00,
0.148,0.16,0.07,0.38,-0.00,0.00,-0.00,
0.153,0.16,0.07,0.38,0.00,0.00,-0.00,
0.154,0.16,0.07,0.38,0.00,0.00,-0.00,
0.154,0.14,0.04,0.41,0.00,0.00,-0.00,
0.154,0.14,0.04,0.41,0.00,0.00,-0.00,
0.162,0.14,0.04,0.41,0.00,-0.00,0.00,
0.163,0.14,0.04,0.41,0.00,-0.00,0.00,
0.163,0.10,0.01,0.40,0.00,-0.00,0.00,
0.164,0.10,0.01,0.40,0.00,-0.00,0.00,
0.172,0.10,0.01,0.40,-0.00,-0.00,0.00,
0.173,0.10,0.01,0.40,-0.00,-0.00,0.00,
0.173,0.06,0.00,0.39,-0.00,-0.00,0.00,
0.174,0.06,0.00,0.39,-0.00,-0.00,0.00,
0.182,0.06,0.00,0.39,-0.04,-0.12,-0.10,
0.183,0.06,0.00,0.39,-0.04,-0.12,-0.10,
0.183,0.04,0.00,0.37,-0.04,-0.12,-0.10,
0.184,0.04,0.00,0.37,-0.04,-0.12,-0.10,
0.191,0.04,0.00,0.37,-0.06,-0.09,-0.10,
0.192,0.04,0.00,0.37,-0.06,-0.09,-0.10,
0.192,0.01,0.01,0.34,-0.06,-0.09,-0.10,
0.193,0.01,0.01,0.34,-0.06,-0.09,-0.10,
0.205,0.01,0.01,0.34,-0.06,-0.09,-0.10,
0.206,0.01,0.01,0.34,-0.06,-0.09,-0.10,
0.206,0.01,0.01,0.34,-0.06,-0.09,-0.10,
0.207,0.01,0.01,0.34,-0.06,-0.09,-0.10,
0.213,0.01,0.01,0.34,-0.08,-0.02,-0.07,
0.213,0.01,0.01,0.34,-0.08,-0.02,-0.07,
0.214,0.01,0.01,0.34,-0.08,-0.02,-0.07,
0.214,0.01,0.01,0.34,-0.08,-0.02,-0.07,
0.22,0.01,0.01,0.34,-0.08,-0.02,-0.07,
0.22,0.01,0.01,0.34,-0.08,-0.02,-0.07,
0.22,0.01,0.01,0.34,-0.08,-0.02,-0.07,
0.221,0.01,0.01,0.34,-0.08,-0.02,-0.07,
0.23,0.01,0.01,0.34,-0.08,0.01,-0.06,
0.23,0.01,0.01,0.34,-0.08,0.01,-0.06,
0.231,0.04,-0.02,0.39,-0.08,0.01,-0.06,
0.231,0.04,-0.02,0.39,-0.08,0.01,-0.06,
0.239,0.04,-0.02,0.39,-0.07,0.03,-0.04,
0.24,0.04,-0.02,0.39,-0.07,0.03,-0.04,
0.24,0.02,0.00,0.44,-0.07,0.03,-0.04,
0.241,0.02,0.00,0.44,-0.07,0.03,-0.04,
0.249,0.02,0.00,0.44,-0.07,0.05,-0.03,
0.249,0.02,0.00,0.44,-0.07,0.05,-0.03,
0.25,0.00,0.01,0.47,-0.07,0.05,-0.03,
0.25,0.00,0.01,0.47,-0.07,0.05,-0.03,
0.26,0.00,0.01,0.47,-0.07,0.05,-0.02,
0.261,0.00,0.01,0.47,-0.07,0.05,-0.02,
0.261,-0.03,0.04,0.47,-0.07,0.05,-0.02,
0.262,-0.03,0.04,0.47,-0.07,0.05,-0.02,
0.268,-0.03,0.04,0.47,-0.07,0.06,-0.03,
0.269,-0.03,0.04,0.47,-0.07,0.06,-0.03,
0.269,-0.05,0.03,0.45,-0.07,0.06,-0.03,
0.27,-0.05,0.03,0.45,-0.07,0.06,-0.03,
0.277,-0.05,0.03,0.45,-0.07,0.06,-0.04,
0.278,-0.05,0.03,0.45,-0.07,0.06,-0.04,
0.278,-0.03,0.01,0.41,-0.07,0.06,-0.04,
0.279,-0.03,0.01,0.41,-0.07,0.06,-0.04,
0.287,-0.03,0.01,0.41,-0.06,0.06,-0.04,
0.287,-0.03,0.01,0.41,-0.06,0.06,-0.04,
0.288,-0.02,-0.02,0.38,-0.06,0.06,-0.04,
0.288,-0.02,-0.02,0.38,-0.06,0.06,-0.04,
0.296,-0.02,-0.02,0.38,-0.05,0.07,-0.05,
0.297,-0.02,-0.02,0.38,-0.05,0.07,-0.05,
0.297,0.01,-0.06,0.36,-0.05,0.07,-0.05,
0.297,0.01,-0.06,0.36,-0.05,0.07,-0.05,
0.305,0.01,-0.06,0.36,-0.05,0.06,-0.06,
0.306,0.01,-0.06,0.36,-0.05,0.06,-0.06,
0.306,0.02,-0.06,0.34,-0.05,0.06,-0.06,
0.307,0.02,-0.06,0.34,-0.05,0.06,-0.06,
0.316,0.02,-0.06,0.34,-0.05,0.06,-0.05,
0.317,0.02,-0.06,0.34,-0.05,0.06,-0.05,
0.317,0.01,-0.05,0.33,-0.05,0.06,-0.05,
0.317,0.01,-0.05,0.33,-0.05,0.06,-0.05,
0.328,0.01,-0.05,0.33,-0.04,0.04,-0.04,
0.329,0.01,-0.05,0.33,-0.04,0.04,-0.04,
0.33,0.02,-0.02,0.30,-0.04,0.04,-0.04,
0.331,0.02,-0.02,0.30,-0.04,0.04,-0.04,
0.335,0.02,-0.02,0.30,-0.04,0.04,-0.03,
0.335,0.02,-0.02,0.30,-0.04,0.04,-0.03,
0.336,-0.01,-0.00,0.28,-0.04,0.04,-0.03,
0.337,-0.01,-0.00,0.28,-0.04,0.04,-0.03,
0.349,-0.01,-0.00,0.28,-0.04,0.03,-0.03,
0.349,-0.01,-0.00,0.28,-0.04,0.03,-0.03,
0.35,-0.00,0.00,0.30,-0.04,0.03,-0.03,
0.351,-0.00,0.00,0.30,-0.04,0.03,-0.03,
0.353,-0.00,0.00,0.30,-0.03,0.02,-0.02,
0.354,-0.00,0.00,0.30,-0.03,0.02,-0.02,
0.355,0.01,-0.01,0.30,-0.03,0.02,-0.02,
0.355,0.01,-0.01,0.30,-0.03,0.02,-0.02,
0.363,0.01,-0.01,0.30,-0.02,0.02,-0.02,
0.364,0.01,-0.01,0.30,-0.02,0.02,-0.02,
0.364,0.01,-0.02,0.35,-0.02,0.02,-0.02,
0.364,0.01,-0.02,0.35,-0.02,0.02,-0.02,
0.372,0.01,-0.02,0.35,-0.02,0.02,-0.01,
0.373,0.01,-0.02,0.35,-0.02,0.02,-0.01,
0.374,0.03,0.00,0.41,-0.02,0.02,-0.01,
0.374,0.03,0.00,0.41,-0.02,0.02,-0.01,
0.383,0.03,0.00,0.41,-0.02,0.01,-0.02,
0.384,0.03,0.00,0.41,-0.02,0.01,-0.02,
0.384,0.04,0.02,0.43,-0.02,0.01,-0.02,
0.385,0.04,0.02,0.43,-0.02,0.01,-0.02,
0.391,0.04,0.02,0.43,-0.02,0.01,-0.02,
0.392,0.04,0.02,0.43,-0.02,0.01,-0.02,
0.393,0.04,0.02,0.43,-0.02,0.01,-0.02,
0.393,0.04,0.02,0.43,-0.02,0.01,-0.02,
0.401,0.04,0.02,0.43,-0.02,-0.00,-0.04,
0.401,0.04,0.02,0.43,-0.02,-0.00,-0.04,
0.402,0.04,0.02,0.42,-0.02,-0.00,-0.04,
0.402,0.04,0.02,0.42,-0.02,-0.00,-0.04,
0.411,0.04,0.02,0.42,-0.02,-0.02,-0.06,
0.412,0.04,0.02,0.42,-0.02,-0.02,-0.06,
0.412,0.04,0.03,0.42,-0.02,-0.02,-0.06,
0.413,0.04,0.03,0.42,-0.02,-0.02,-0.06,
0.432,0.04,0.03,0.42,-0.02,-0.03,-0.08,
0.433,0.04,0.03,0.42,-0.02,-0.03,-0.08,
0.434,0.04,0.03,0.42,-0.02,-0.03,-0.08,
0.434,0.04,0.03,0.42,-0.02,-0.03,-0.08,
0.434,0.04,0.03,0.42,-0.02,-0.05,-0.11,
0.435,0.04,0.03,0.42,-0.02,-0.05,-0.11,
0.435,0.04,0.04,0.42,-0.02,-0.05,-0.11,
0.436,0.04,0.04,0.42,-0.02,-0.05,-0.11,
0.439,0.04,0.04,0.42,-0.02,-0.05,-0.11,
0.44,0.04,0.04,0.42,-0.02,-0.05,-0.11,
0.44,0.04,0.04,0.42,-0.02,-0.05,-0.11,
0.441,0.04,0.04,0.42,-0.02,-0.05,-0.11,
0.448,0.04,0.04,0.42,-0.02,-0.05,-0.10,
0.449,0.04,0.04,0.42,-0.02,-0.05,-0.10,
0.449,0.04,0.05,0.42,-0.02,-0.05,-0.10,
0.449,0.04,0.05,0.42,-0.02,-0.05,-0.10,
0.458,0.04,0.05,0.42,-0.02,-0.05,-0.10,
0.459,0.04,0.05,0.42,-0.02,-0.05,-0.10,
0.459,0.04,0.05,0.42,-0.02,-0.05,-0.10,
0.46,0.04,0.05,0.42,-0.02,-0.05,-0.10,
0.468,0.04,0.05,0.42,-0.01,-0.03,-0.07,
0.469,0.04,0.05,0.42,-0.01,-0.03,-0.07,
0.469,0.04,0.05,0.41,-0.01,-0.03,-0.07,
0.47,0.04,0.05,0.41,-0.01,-0.03,-0.07,
0.477,0.04,0.05,0.41,-0.01,-0.03,-0.06,
0.478,0.04,0.05,0.41,-0.01,-0.03,-0.06,
0.479,0.04,0.06,0.41,-0.01,-0.03,-0.06,
0.479,0.04,0.06,0.41,-0.01,-0.03,-0.06,
0.486,0.04,0.06,0.41,-0.01,-0.02,-0.05,
0.488,0.04,0.06,0.41,-0.01,-0.02,-0.05,
0.488,0.04,0.06,0.41,-0.01,-0.02,-0.05,
0.489,0.04,0.06,0.41,-0.01,-0.02,-0.05,
0.496,0.04,0.06,0.41,-0.01,-0.02,-0.04,
0.497,0.04,0.06,0.41,-0.01,-0.02,-0.04,
0.498,0.04,0.07,0.41,-0.01,-0.02,-0.04,
0.499,0.04,0.07,0.41,-0.01,-0.02,-0.04,
0.505,0.04,0.07,0.41,-0.01,-0.02,-0.03,
0.507,0.04,0.07,0.41,-0.01,-0.02,-0.03,
0.508,0.04,0.07,0.41,-0.01,-0.02,-0.03,
0.509,0.04,0.07,0.41,-0.01,-0.02,-0.03,
0.515,0.04,0.07,0.41,-0.00,-0.01,-0.03,
0.516,0.04,0.07,0.41,-0.00,-0.01,-0.03,
0.517,0.04,0.08,0.41,-0.00,-0.01,-0.03,
0.518,0.04,0.08,0.41,-0.00,-0.01,-0.03,
0.528,0.04,0.08,0.41,-0.00,-0.01,-0.02,
0.529,0.04,0.08,0.41,-0.00,-0.01,-0.02,
0.529,0.04,0.08,0.41,-0.00,-0.01,-0.02,
0.53,0.04,0.08,0.41,-0.00,-0.01,-0.02,
0.534,0.04,0.08,0.41,-0.00,-0.01,-0.02,
0.534,0.04,0.08,0.41,-0.00,-0.01,-0.02,
0.534,0.04,0.08,0.41,-0.00,-0.01,-0.02,
0.535,0.04,0.08,0.41,-0.00,-0.01,-0.02,
0.544,0.04,0.08,0.41,-0.00,-0.01,-0.01,
0.544,0.04,0.08,0.41,-0.00,-0.01,-0.01,
0.545,0.51,0.27,0.26,-0.00,-0.01,-0.01,
0.545,0.51,0.27,0.26,-0.00,-0.01,-0.01,
0.553,0.51,0.27,0.26,0.00,-0.02,-0.01,
0.553,0.51,0.27,0.26,0.00,-0.02,-0.01,
0.554,0.61,0.24,0.54,0.00,-0.02,-0.01,
0.554,0.61,0.24,0.54,0.00,-0.02,-0.01,
0.562,0.61,0.24,0.54,0.02,-0.07,0.01,
0.563,0.61,0.24,0.54,0.02,-0.07,0.01,
0.564,0.77,0.25,0.80,0.02,-0.07,0.01,
0.564,0.77,0.25,0.80,0.02,-0.07,0.01,
0.572,0.77,0.25,0.80,0.04,-0.17,0.03,
0.573,0.77,0.25,0.80,0.04,-0.17,0.03,
0.574,1.03,0.36,1.11,0.04,-0.17,0.03,
0.575,1.03,0.36,1.11,0.04,-0.17,0.03,
0.582,1.03,0.36,1.11,0.05,-0.30,0.06,
0.583,1.03,0.36,1.11,0.05,-0.30,0.06,
0.584,1.51,0.56,1.43,0.05,-0.30,0.06,
0.585,1.51,0.56,1.43,0.05,-0.30,0.06,
0.591,1.51,0.56,1.43,0.05,-0.30,0.06,
0.593,1.51,0.56,1.43,0.05,-0.30,0.06,
0.594,1.51,0.56,1.43,0.05,-0.30,0.06,
0.595,1.51,0.56,1.43,0.05,-0.30,0.06,
0.6,1.51,0.56,1.43,0.05,-0.46,0.04,
0.601,1.51,0.56,1.43,0.05,-0.46,0.04,
0.601,2.61,0.93,2.37,0.05,-0.46,0.04,
0.601,2.61,0.93,2.37,0.05,-0.46,0.04,
0.61,2.61,0.93,2.37,0.05,-0.67,-0.04,
0.611,2.61,0.93,2.37,0.05,-0.67,-0.04,
0.612,3.01,1.02,2.69,0.05,-0.67,-0.04,
0.613,3.01,1.02,2.69,0.05,-0.67,-0.04,
0.619,3.01,1.02,2.69,0.04,-0.98,-0.17,
0.621,3.01,1.02,2.69,0.04,-0.98,-0.17,
0.622,3.17,0.97,2.44,0.04,-0.98,-0.17,
0.623,3.17,0.97,2.44,0.04,-0.98,-0.17,
0.629,3.17,0.97,2.44,0.04,-1.35,-0.32,
0.629,3.17,0.97,2.44,0.04,-1.35,-0.32,
0.63,3.22,0.93,0.40,0.04,-1.35,-0.32,
0.63,3.22,0.93,0.40,0.04,-1.35,-0.32,
0.639,3.22,0.93,0.40,0.03,-1.70,-0.48,
0.64,3.22,0.93,0.40,0.03,-1.70,-0.48,
0.64,3.16,1.04,-0.02,0.03,-1.70,-0.48,
0.64,3.16,1.04,-0.02,0.03,-1.70,-0.48,
0.648,3.16,1.04,-0.02,0.06,-1.97,-0.60,
0.649,3.16,1.04,-0.02,0.06,-1.97,-0.60,
0.65,3.02,1.28,-0.60,0.06,-1.97,-0.60,
0.65,3.02,1.28,-0.60,0.06,-1.97,-0.60,
0.658,3.02,1.28,-0.60,0.16,-2.14,-0.66,
0.66,3.02,1.28,-0.60,0.16,-2.14,-0.66,
0.661,2.74,1.57,-1.00,0.16,-2.14,-0.66,
0.662,2.74,1.57,-1.00,0.16,-2.14,-0.66,
0.667,2.74,1.57,-1.00,0.33,-2.22,-0.66,
0.668,2.74,1.57,-1.00,0.33,-2.22,-0.66,
0.668,2.35,1.75,-1.16,0.33,-2.22,-0.66,
0.668,2.35,1.75,-1.16,0.33,-2.22,-0.66,
0.676,2.35,1.75,-1.16,0.55,-2.18,-0.63,
0.677,2.35,1.75,-1.16,0.55,-2.18,-0.63,
0.678,1.91,1.65,-1.04,0.55,-2.18,-0.63,
0.678,1.91,1.65,-1.04,0.55,-2.18,-0.63,
0.686,1.91,1.65,-1.04,0.79,-2.02,-0.59,
0.688,1.91,1.65,-1.04,0.79,-2.02,-0.59,
0.688,1.66,1.28,-0.50,0.79,-2.02,-0.59,
0.689,1.66,1.28,-0.50,0.79,-2.02,-0.59,
0.695,1.66,1.28,-0.50,0.98,-1.75,-0.53,
0.696,1.66,1.28,-0.50,0.98,-1.75,-0.53,
0.697,1.87,0.76,1.18,0.98,-1.75,-0.53,
0.697,1.87,0.76,1.18,0.98,-1.75,-0.53,
0.705,1.87,0.76,1.18,1.02,-1.40,-0.50,
0.706,1.87,0.76,1.18,1.02,-1.40,-0.50,
0.707,2.19,0.23,1.78,1.02,-1.40,-0.50,
0.707,2.19,0.23,1.78,1.02,-1.40,-0.50,
0.715,2.19,0.23,1.78,0.80,-1.09,-0.60,
0.715,2.19,0.23,1.78,0.80,-1.09,-0.60,
0.716,2.51,-0.26,2.34,0.80,-1.09,-0.60,
0.716,2.51,-0.26,2.34,0.80,-1.09,-0.60,
0.725,2.51,-0.26,2.34,0.31,-0.91,-0.87,
0.725,2.51,-0.26,2.34,0.31,-0.91,-0.87,
0.726,2.77,-0.73,2.54,0.31,-0.91,-0.87,
0.726,2.77,-0.73,2.54,0.31,-0.91,-0.87,
0.735,2.77,-0.73,2.54,-0.34,-0.86,-1.23,
0.736,2.77,-0.73,2.54,-0.34,-0.86,-1.23,
0.736,2.74,-1.18,2.47,-0.34,-0.86,-1.23,
0.736,2.74,-1.18,2.47,-0.34,-0.86,-1.23,
0.743,2.74,-1.18,2.47,-1.00,-0.92,-1.59,
0.744,2.74,-1.18,2.47,-1.00,-0.92,-1.59,
0.744,2.68,-1.63,2.24,-1.00,-0.92,-1.59,
0.744,2.68,-1.63,2.24,-1.00,-0.92,-1.59,
0.753,2.68,-1.63,2.24,-1.58,-1.00,-1.88,
0.753,2.68,-1.63,2.24,-1.58,-1.00,-1.88,
0.754,2.66,-2.08,1.96,-1.58,-1.00,-1.88,
0.754,2.66,-2.08,1.96,-1.58,-1.00,-1.88,
0.762,2.66,-2.08,1.96,-2.04,-1.06,-2.05,
0.763,2.66,-2.08,1.96,-2.04,-1.06,-2.05,
0.763,2.50,-2.51,1.65,-2.04,-1.06,-2.05,
0.764,2.50,-2.51,1.65,-2.04,-1.06,-2.05,
0.772,2.50,-2.51,1.65,-2.41,-1.08,-2.13,
0.773,2.50,-2.51,1.65,-2.41,-1.08,-2.13,
0.774,2.11,-2.96,1.25,-2.41,-1.08,-2.13,
0.775,2.11,-2.96,1.25,-2.41,-1.08,-2.13,
0.782,2.11,-2.96,1.25,-2.68,-1.06,-2.14,
0.784,2.11,-2.96,1.25,-2.68,-1.06,-2.14,
0.784,1.48,-3.43,0.68,-2.68,-1.06,-2.14,
0.785,1.48,-3.43,0.68,-2.68,-1.06,-2.14,
0.791,1.48,-3.43,0.68,-2.68,-1.06,-2.14,
0.791,1.48,-3.43,0.68,-2.68,-1.06,-2.14,
0.792,1.48,-3.43,0.68,-2.68,-1.06,-2.14,
0.793,1.48,-3.43,0.68,-2.68,-1.06,-2.14,
0.805,1.48,-3.43,0.68,-2.90,-0.98,-2.09,
0.806,1.48,-3.43,0.68,-2.90,-0.98,-2.09,
0.806,0.38,-4.13,-0.55,-2.90,-0.98,-2.09,
0.807,0.38,-4.13,-0.55,-2.90,-0.98,-2.09,
0.81,0.38,-4.13,-0.55,-3.06,-0.82,-1.95,
0.811,0.38,-4.13,-0.55,-3.06,-0.82,-1.95,
0.811,0.26,-4.14,-0.97,-3.06,-0.82,-1.95,
0.812,0.26,-4.14,-0.97,-3.06,-0.82,-1.95,
0.819,0.26,-4.14,-0.97,-3.18,-0.56,-1.67,
0.82,0.26,-4.14,-0.97,-3.18,-0.56,-1.67,
0.821,0.61,-3.87,-1.19,-3.18,-0.56,-1.67,
0.821,0.61,-3.87,-1.19,-3.18,-0.56,-1.67,
0.829,0.61,-3.87,-1.19,-3.27,-0.26,-1.34,
0.83,0.61,-3.87,-1.19,-3.27,-0.26,-1.34,
0.831,2.01,-3.43,-1.30,-3.27,-0.26,-1.34,
0.831,2.01,-3.43,-1.30,-3.27,-0.26,-1.34,
0.839,2.01,-3.43,-1.30,-3.26,-0.05,-1.08,
0.841,2.01,-3.43,-1.30,-3.26,-0.05,-1.08,
0.841,2.42,-2.93,-1.41,-3.26,-0.05,-1.08,
0.843,2.42,-2.93,-1.41,-3.26,-0.05,-1.08,
0.848,2.42,-2.93,-1.41,-3.10,-0.09,-0.87,
0.849,2.42,-2.93,-1.41,-3.10,-0.09,-0.87,
0.849,2.93,-2.52,-1.54,-3.10,-0.09,-0.87,
0.85,2.93,-2.52,-1.54,-3.10,-0.09,-0.87,
0.858,2.93,-2.52,-1.54,-2.78,-0.39,-0.75,
0.859,2.93,-2.52,-1.54,-2.78,-0.39,-0.75,
0.86,3.41,-2.18,-1.67,-2.78,-0.39,-0.75,
0.86,3.41,-2.18,-1.67,-2.78,-0.39,-0.75,
0.867,3.41,-2.18,-1.67,-2.32,-0.89,-0.67,
0.868,3.41,-2.18,-1.67,-2.32,-0.89,-0.67,
0.869,3.82,-1.86,-1.79,-2.32,-0.89,-0.67,
0.869,3.82,-1.86,-1.79,-2.32,-0.89,-0.67,
0.876,3.82,-1.86,-1.79,-1.77,-1.44,-0.60,
0.878,3.82,-1.86,-1.79,-1.77,-1.44,-0.60,
0.878,4.14,-1.58,-1.81,-1.77,-1.44,-0.60,
0.879,4.14,-1.58,-1.81,-1.77,-1.44,-0.60,
0.886,4.14,-1.58,-1.81,-1.20,-1.98,-0.54,
0.887,4.14,-1.58,-1.81,-1.20,-1.98,-0.54,
0.888,4.42,-1.24,-1.73,-1.20,-1.98,-0.54,
0.888,4.42,-1.24,-1.73,-1.20,-1.98,-0.54,
0.896,4.42,-1.24,-1.73,-0.65,-2.46,-0.48,
0.896,4.42,-1.24,-1.73,-0.65,-2.46,-0.48,
0.897,4.68,-0.94,-1.61,-0.65,-2.46,-0.48,
0.898,4.68,-0.94,-1.61,-0.65,-2.46,-0.48,
0.905,4.68,-0.94,-1.61,-0.13,-2.85,-0.40,
0.906,4.68,-0.94,-1.61,-0.13,-2.85,-0.40,
0.907,4.87,-0.72,-1.49,-0.13,-2.85,-0.40,
0.908,4.87,-0.72,-1.49,-0.13,-2.85,-0.40,
0.915,4.87,-0.72,-1.49,0.35,-3.10,-0.31,
0.916,4.87,-0.72,-1.49,0.35,-3.10,-0.31,
0.916,4.99,-0.60,-1.53,0.35,-3.10,-0.31,
0.917,4.99,-0.60,-1.53,0.35,-3.10,-0.31,
0.924,4.99,-0.60,-1.53,0.77,-3.23,-0.19,
0.925,4.99,-0.60,-1.53,0.77,-3.23,-0.19,
0.926,5.02,-0.61,-1.75,0.77,-3.23,-0.19,
0.927,5.02,-0.61,-1.75,0.77,-3.23,-0.19,
0.935,5.02,-0.61,-1.75,1.10,-3.26,-0.07,
0.936,5.02,-0.61,-1.75,1.10,-3.26,-0.07,
0.937,4.92,-0.74,-2.15,1.10,-3.26,-0.07,
0.937,4.92,-0.74,-2.15,1.10,-3.26,-0.07,
0.943,4.92,-0.74,-2.15,1.32,-3.21,0.03,
0.944,4.92,-0.74,-2.15,1.32,-3.21,0.03,
0.944,4.78,-0.98,-2.64,1.32,-3.21,0.03,
0.945,4.78,-0.98,-2.64,1.32,-3.21,0.03,
0.953,4.78,-0.98,-2.64,1.41,-3.13,0.10,
0.954,4.78,-0.98,-2.64,1.41,-3.13,0.10,
0.954,4.58,-1.27,-3.13,1.41,-3.13,0.10,
0.955,4.58,-1.27,-3.13,1.41,-3.13,0.10,
0.962,4.58,-1.27,-3.13,1.36,-3.06,0.14,
0.963,4.58,-1.27,-3.13,1.36,-3.06,0.14,
0.964,4.33,-1.55,-3.51,1.36,-3.06,0.14,
0.964,4.33,-1.55,-3.51,1.36,-3.06,0.14,
0.974,4.33,-1.55,-3.51,1.19,-3.00,0.15,
0.975,4.33,-1.55,-3.51,1.19,-3.00,0.15,
0.976,4.06,-1.77,-3.74,1.19,-3.00,0.15,
0.976,4.06,-1.77,-3.74,1.19,-3.00,0.15,
0.982,4.06,-1.77,-3.74,0.92,-2.95,0.16,
0.983,4.06,-1.77,-3.74,0.92,-2.95,0.16,
0.984,3.76,-1.88,-3.86,0.92,-2.95,0.16,
0.984,3.76,-1.88,-3.86,0.92,-2.95,0.16,
0.991,3.76,-1.88,-3.86,0.92,-2.95,0.16,
0.992,3.76,-1.88,-3.86,0.92,-2.95,0.16,
0.993,3.76,-1.88,-3.86,0.92,-2.95,0.16,
0.994,3.76,-1.88,-3.86,0.92,-2.95,0.16,
1.005,3.76,-1.88,-3.86,0.61,-2.89,0.18,
1.006,3.76,-1.88,-3.86,0.61,-2.89,0.18,
1.007,3.39,-1.94,-3.80,0.61,-2.89,0.18,
1.007,3.39,-1.94,-3.80,0.61,-2.89,0.18,
1.012,3.39,-1.94,-3.80,0.28,-2.78,0.20,
1.013,3.39,-1.94,-3.80,0.28,-2.78,0.20,
1.013,3.20,-1.91,-3.70,0.28,-2.78,0.20,
1.014,3.20,-1.91,-3.70,0.28,-2.78,0.20,
1.019,3.20,-1.91,-3.70,-0.00,-2.61,0.25,
1.02,3.20,-1.91,-3.70,-0.00,-2.61,0.25,
1.021,3.05,-1.92,-3.60,-0.00,-2.61,0.25,
1.022,3.05,-1.92,-3.60,-0.00,-2.61,0.25,
1.029,3.05,-1.92,-3.60,-0.22,-2.38,0.31,
1.03,3.05,-1.92,-3.60,-0.22,-2.38,0.31,
1.031,2.97,-1.96,-3.42,-0.22,-2.38,0.31,
1.032,2.97,-1.96,-3.42,-0.22,-2.38,0.31,
1.039,2.97,-1.96,-3.42,-0.37,-2.11,0.39,
1.041,2.97,-1.96,-3.42,-0.37,-2.11,0.39,
1.042,2.98,-1.95,-3.28,-0.37,-2.11,0.39,
1.043,2.98,-1.95,-3.28,-0.37,-2.11,0.39,
1.048,2.98,-1.95,-3.28,-0.47,-1.83,0.46,
1.049,2.98,-1.95,-3.28,-0.47,-1.83,0.46,
1.049,3.04,-1.84,-3.14,-0.47,-1.83,0.46,
1.05,3.04,-1.84,-3.14,-0.47,-1.83,0.46,
1.058,3.04,-1.84,-3.14,-0.53,-1.57,0.53,
1.059,3.04,-1.84,-3.14,-0.53,-1.57,0.53,
1.059,3.06,-1.64,-2.97,-0.53,-1.57,0.53,
1.06,3.06,-1.64,-2.97,-0.53,-1.57,0.53,
1.068,3.06,-1.64,-2.97,-0.56,-1.35,0.59,
1.069,3.06,-1.64,-2.97,-0.56,-1.35,0.59,
1.069,3.03,-1.41,-2.93,-0.56,-1.35,0.59,
1.07,3.03,-1.41,-2.93,-0.56,-1.35,0.59,
1.076,3.03,-1.41,-2.93,-0.54,-1.17,0.61,
1.077,3.03,-1.41,-2.93,-0.54,-1.17,0.61,
1.078,2.91,-1.15,-3.00,-0.54,-1.17,0.61,
1.078,2.91,-1.15,-3.00,-0.54,-1.17,0.61,
1.086,2.91,-1.15,-3.00,-0.45,-1.03,0.60,
1.087,2.91,-1.15,-3.00,-0.45,-1.03,0.60,
1.088,2.77,-0.90,-3.16,-0.45,-1.03,0.60,
1.088,2.77,-0.90,-3.16,-0.45,-1.03,0.60,
1.096,2.77,-0.90,-3.16,-0.32,-0.93,0.55,
1.096,2.77,-0.90,-3.16,-0.32,-0.93,0.55,
1.097,2.68,-0.64,-3.37,-0.32,-0.93,0.55,
1.098,2.68,-0.64,-3.37,-0.32,-0.93,0.55,
1.105,2.68,-0.64,-3.37,-0.14,-0.87,0.48,
1.106,2.68,-0.64,-3.37,-0.14,-0.87,0.48,
1.107,2.68,-0.30,-3.57,-0.14,-0.87,0.48,
1.107,2.68,-0.30,-3.57,-0.14,-0.87,0.48,
1.115,2.68,-0.30,-3.57,0.05,-0.88,0.38,
1.115,2.68,-0.30,-3.57,0.05,-0.88,0.38,
1.116,2.74,0.02,-3.68,0.05,-0.88,0.38,
1.117,2.74,0.02,-3.68,0.05,-0.88,0.38,
1.124,2.74,0.02,-3.68,0.26,-0.95,0.25,
1.127,2.74,0.02,-3.68,0.26,-0.95,0.25,
1.128,2.81,0.25,-3.70,0.26,-0.95,0.25,
1.128,2.81,0.25,-3.70,0.26,-0.95,0.25,
1.135,2.81,0.25,-3.70,0.47,-1.06,0.11,
1.135,2.81,0.25,-3.70,0.47,-1.06,0.11,
1.136,2.85,0.38,-3.71,0.47,-1.06,0.11,
1.136,2.85,0.38,-3.71,0.47,-1.06,0.11,
1.143,2.85,0.38,-3.71,0.68,-1.21,-0.03,
1.144,2.85,0.38,-3.71,0.68,-1.21,-0.03,
1.144,2.83,0.34,-3.73,0.68,-1.21,-0.03,
1.145,2.83,0.34,-3.73,0.68,-1.21,-0.03,
1.152,2.83,0.34,-3.73,0.87,-1.35,-0.12,
1.153,2.83,0.34,-3.73,0.87,-1.35,-0.12,
1.154,2.83,0.18,-3.82,0.87,-1.35,-0.12,
1.154,2.83,0.18,-3.82,0.87,-1.35,-0.12,
1.163,2.83,0.18,-3.82,1.01,-1.48,-0.16,
1.163,2.83,0.18,-3.82,1.01,-1.48,-0.16,
1.164,2.90,0.01,-4.02,1.01,-1.48,-0.16,
1.165,2.90,0.01,-4.02,1.01,-1.48,-0.16,
1.172,2.90,0.01,-4.02,1.08,-1.58,-0.12,
1.173,2.90,0.01,-4.02,1.08,-1.58,-0.12,
1.174,3.18,-0.15,-4.34,1.08,-1.58,-0.12,
1.175,3.18,-0.15,-4.34,1.08,-1.58,-0.12,
1.182,3.18,-0.15,-4.34,1.09,-1.70,-0.02,
1.183,3.18,-0.15,-4.34,1.09,-1.70,-0.02,
1.184,4.76,-0.35,-4.80,1.09,-1.70,-0.02,
1.184,4.76,-0.35,-4.80,1.09,-1.70,-0.02,
1.191,4.76,-0.35,-4.80,1.09,-1.70,-0.02,
1.192,4.76,-0.35,-4.80,1.09,-1.70,-0.02,
1.193,4.76,-0.35,-4.80,1.09,-1.70,-0.02,
1.193,4.76,-0.35,-4.80,1.09,-1.70,-0.02,
1.204,4.76,-0.35,-4.80,0.91,-2.28,0.31,
1.205,4.76,-0.35,-4.80,0.91,-2.28,0.31,
1.206,5.34,-1.06,-6.49,0.91,-2.28,0.31,
1.206,5.34,-1.06,-6.49,0.91,-2.28,0.31,
1.21,5.34,-1.06,-6.49,0.91,-2.28,0.31,
1.211,5.34,-1.06,-6.49,0.91,-2.28,0.31,
1.211,5.34,-1.06,-6.49,0.91,-2.28,0.31,
1.212,5.34,-1.06,-6.49,0.91,-2.28,0.31,
1.219,5.34,-1.06,-6.49,0.68,-2.87,0.52,
1.22,5.34,-1.06,-6.49,0.68,-2.87,0.52,
1.221,5.38,-1.68,-7.10,0.68,-2.87,0.52,
1.221,5.38,-1.68,-7.10,0.68,-2.87,0.52,
1.229,5.38,-1.68,-7.10,0.38,-3.53,0.74,
1.23,5.38,-1.68,-7.10,0.38,-3.53,0.74,
1.231,4.80,-1.75,-7.16,0.38,-3.53,0.74,
1.231,4.80,-1.75,-7.16,0.38,-3.53,0.74,
1.239,4.80,-1.75,-7.16,0.07,-4.09,0.96,
1.24,4.80,-1.75,-7.16,0.07,-4.09,0.96,
1.241,4.11,-1.67,-6.98,0.07,-4.09,0.96,
1.241,4.11,-1.67,-6.98,0.07,-4.09,0.96,
1.248,4.11,-1.67,-6.98,-0.18,-4.40,1.15,
1.249,4.11,-1.67,-6.98,-0.18,-4.40,1.15,
1.25,3.58,-1.55,-6.59,-0.18,-4.40,1.15,
1.25,3.58,-1.55,-6.59,-0.18,-4.40,1.15,
1.258,3.58,-1.55,-6.59,-0.34,-4.46,1.30,
1.26,3.58,-1.55,-6.59,-0.34,-4.46,1.30,
1.261,3.27,-1.44,-6.06,-0.34,-4.46,1.30,
1.262,3.27,-1.44,-6.06,-0.34,-4.46,1.30,
1.268,3.27,-1.44,-6.06,-0.39,-4.29,1.37,
1.269,3.27,-1.44,-6.06,-0.39,-4.29,1.37,
1.27,3.15,-1.28,-5.50,-0.39,-4.29,1.37,
1.27,3.15,-1.28,-5.50,-0.39,-4.29,1.37,
1.276,3.15,-1.28,-5.50,-0.33,-3.93,1.36,
1.277,3.15,-1.28,-5.50,-0.33,-3.93,1.36,
1.278,3.12,-1.08,-4.97,-0.33,-3.93,1.36,
1.278,3.12,-1.08,-4.97,-0.33,-3.93,1.36,
1.286,3.12,-1.08,-4.97,-0.18,-3.42,1.29,
1.287,3.12,-1.08,-4.97,-0.18,-3.42,1.29,
1.288,3.13,-0.91,-4.55,-0.18,-3.42,1.29,
1.288,3.13,-0.91,-4.55,-0.18,-3.42,1.29,
1.296,3.13,-0.91,-4.55,0.02,-2.83,1.17,
1.297,3.13,-0.91,-4.55,0.02,-2.83,1.17,
1.297,3.10,-0.73,-4.30,0.02,-2.83,1.17,
1.298,3.10,-0.73,-4.30,0.02,-2.83,1.17,
1.305,3.10,-0.73,-4.30,0.26,-2.23,1.01,
1.305,3.10,-0.73,-4.30,0.26,-2.23,1.01,
1.306,2.97,-0.58,-4.34,0.26,-2.23,1.01,
1.307,2.97,-0.58,-4.34,0.26,-2.23,1.01,
1.315,2.97,-0.58,-4.34,0.50,-1.69,0.83,
1.316,2.97,-0.58,-4.34,0.50,-1.69,0.83,
1.317,2.73,-0.47,-4.71,0.50,-1.69,0.83,
1.317,2.73,-0.47,-4.71,0.50,-1.69,0.83,
1.325,2.73,-0.47,-4.71,0.72,-1.26,0.65,
1.327,2.73,-0.47,-4.71,0.72,-1.26,0.65,
1.327,2.35,-0.37,-6.23,0.72,-1.26,0.65,
1.328,2.35,-0.37,-6.23,0.72,-1.26,0.65,
1.337,2.35,-0.37,-6.23,0.89,-1.02,0.48,
1.338,2.35,-0.37,-6.23,0.89,-1.02,0.48,
1.339,1.84,-0.30,-7.87,0.89,-1.02,0.48,
1.339,1.84,-0.30,-7.87,0.89,-1.02,0.48,
1.343,1.84,-0.30,-7.87,0.99,-1.07,0.31,
1.344,1.84,-0.30,-7.87,0.99,-1.07,0.31,
1.344,1.35,-0.28,-8.11,0.99,-1.07,0.31,
1.345,1.35,-0.28,-8.11,0.99,-1.07,0.31,
1.352,1.35,-0.28,-8.11,1.01,-1.47,0.16,
1.353,1.35,-0.28,-8.11,1.01,-1.47,0.16,
1.354,0.95,-0.30,-9.49,1.01,-1.47,0.16,
1.354,0.95,-0.30,-9.49,1.01,-1.47,0.16,
1.365,0.95,-0.30,-9.49,0.95,-2.14,0.03,
1.366,0.95,-0.30,-9.49,0.95,-2.14,0.03,
1.367,0.72,-0.35,-9.80,0.95,-2.14,0.03,
1.367,0.72,-0.35,-9.80,0.95,-2.14,0.03,
1.372,0.72,-0.35,-9.80,0.83,-2.95,-0.07,
1.374,0.72,-0.35,-9.80,0.83,-2.95,-0.07,
1.374,0.69,-0.37,-10.09,0.83,-2.95,-0.07,
1.375,0.69,-0.37,-10.09,0.83,-2.95,-0.07,
1.382,0.69,-0.37,-10.09,0.70,-3.75,-0.14,
1.382,0.69,-0.37,-10.09,0.70,-3.75,-0.14,
1.383,0.74,-0.31,-10.25,0.70,-3.75,-0.14,
1.384,0.74,-0.31,-10.25,0.70,-3.75,-0.14,
1.391,0.74,-0.31,-10.25,0.70,-3.75,-0.14,
1.392,0.74,-0.31,-10.25,0.70,-3.75,-0.14,
1.392,0.74,-0.31,-10.25,0.70,-3.75,-0.14,
1.393,0.74,-0.31,-10.25,0.70,-3.75,-0.14,
1.401,0.74,-0.31,-10.25,0.57,-4.44,-0.17,
1.402,0.74,-0.31,-10.25,0.57,-4.44,-0.17,
1.402,0.77,-0.08,-10.27,0.57,-4.44,-0.17,
1.402,0.77,-0.08,-10.27,0.57,-4.44,-0.17,
1.41,0.77,-0.08,-10.27,0.47,-4.93,-0.19,
1.411,0.77,-0.08,-10.27,0.47,-4.93,-0.19,
1.411,0.44,-0.04,-10.32,0.47,-4.93,-0.19,
1.412,0.44,-0.04,-10.32,0.47,-4.93,-0.19,
1.432,0.44,-0.04,-10.32,0.44,-5.19,-0.24,
1.433,0.44,-0.04,-10.32,0.44,-5.19,-0.24,
1.434,-0.01,-0.12,-10.51,0.44,-5.19,-0.24,
1.434,-0.01,-0.12,-10.51,0.44,-5.19,-0.24,
1.441,-0.01,-0.12,-10.51,0.54,-5.21,-0.38,
1.442,-0.01,-0.12,-10.51,0.54,-5.21,-0.38,
1.443,-0.55,-0.25,-10.65,0.54,-5.21,-0.38,
1.443,-0.55,-0.25,-10.65,0.54,-5.21,-0.38,
1.444,-0.55,-0.25,-10.65,0.54,-5.21,-0.38,
1.445,-0.55,-0.25,-10.65,0.54,-5.21,-0.38,
1.445,-0.55,-0.25,-10.65,0.54,-5.21,-0.38,
1.446,-0.55,-0.25,-10.65,0.54,-5.21,-0.38,
1.452,-0.55,-0.25,-10.65,0.81,-5.55,-0.46,
1.453,-0.55,-0.25,-10.65,0.81,-5.55,-0.46,
1.454,-1.69,-0.91,-15.51,0.81,-5.55,-0.46,
1.456,-1.69,-0.91,-15.51,0.81,-5.55,-0.46,
1.457,-1.69,-0.91,-15.51,0.81,-5.55,-0.46,
1.458,-1.69,-0.91,-15.51,0.81,-5.55,-0.46,
1.459,-1.69,-0.91,-15.51,0.81,-5.55,-0.46,
1.459,-1.69,-0.91,-15.51,0.81,-5.55,-0.46,
1.468,-1.69,-0.91,-15.51,0.54,-7.12,0.14,
1.468,-1.69,-0.91,-15.51,0.54,-7.12,0.14,
1.469,-2.32,-1.26,-14.72,0.54,-7.12,0.14,
1.469,-2.32,-1.26,-14.72,0.54,-7.12,0.14,
1.476,-2.32,-1.26,-14.72,0.28,-7.66,0.58,
1.477,-2.32,-1.26,-14.72,0.28,-7.66,0.58,
1.477,-2.26,-1.16,-9.36,0.28,-7.66,0.58,
1.478,-2.26,-1.16,-9.36,0.28,-7.66,0.58,
1.486,-2.26,-1.16,-9.36,0.20,-7.45,0.78,
1.487,-2.26,-1.16,-9.36,0.20,-7.45,0.78,
1.488,-1.90,-0.92,-6.44,0.20,-7.45,0.78,
1.488,-1.90,-0.92,-6.44,0.20,-7.45,0.78,
1.495,-1.90,-0.92,-6.44,0.33,-6.67,0.71,
1.497,-1.90,-0.92,-6.44,0.33,-6.67,0.71,
1.498,-1.82,-0.83,-4.16,0.33,-6.67,0.71,
1.498,-1.82,-0.83,-4.16,0.33,-6.67,0.71,
1.505,-1.82,-0.83,-4.16,0.67,-5.34,0.42,
1.506,-1.82,-0.83,-4.16,0.67,-5.34,0.42,
1.507,-2.13,-0.86,-3.46,0.67,-5.34,0.42,
1.507,-2.13,-0.86,-3.46,0.67,-5.34,0.42,
1.514,-2.13,-0.86,-3.46,1.13,-3.62,-0.04,
1.515,-2.13,-0.86,-3.46,1.13,-3.62,-0.04,
1.516,-2.78,-0.98,-3.02,1.13,-3.62,-0.04,
1.516,-2.78,-0.98,-3.02,1.13,-3.62,-0.04,
1.524,-2.78,-0.98,-3.02,1.57,-1.81,-0.43,
1.525,-2.78,-0.98,-3.02,1.57,-1.81,-0.43,
1.526,-4.38,-1.13,-2.90,1.57,-1.81,-0.43,
1.527,-4.38,-1.13,-2.90,1.57,-1.81,-0.43,
1.536,-4.38,-1.13,-2.90,1.88,-0.25,-0.64,
1.537,-4.38,-1.13,-2.90,1.88,-0.25,-0.64,
1.538,-4.74,-1.25,-3.10,1.88,-0.25,-0.64,
1.538,-4.74,-1.25,-3.10,1.88,-0.25,-0.64,
1.543,-4.74,-1.25,-3.10,2.02,0.83,-0.63,
1.543,-4.74,-1.25,-3.10,2.02,0.83,-0.63,
1.544,-4.99,-1.32,-4.46,2.02,0.83,-0.63,
1.544,-4.99,-1.32,-4.46,2.02,0.83,-0.63,
1.552,-4.99,-1.32,-4.46,1.91,1.37,-0.46,
1.554,-4.99,-1.32,-4.46,1.91,1.37,-0.46,
1.554,-4.88,-1.25,-8.39,1.91,1.37,-0.46,
1.555,-4.88,-1.25,-8.39,1.91,1.37,-0.46,
1.562,-4.88,-1.25,-8.39,1.63,1.23,-0.21,
1.563,-4.88,-1.25,-8.39,1.63,1.23,-0.21,
1.563,-4.61,-0.95,-9.88,1.63,1.23,-0.21,
1.564,-4.61,-0.95,-9.88,1.63,1.23,-0.21,
1.572,-4.61,-0.95,-9.88,1.39,0.30,0.05,
1.573,-4.61,-0.95,-9.88,1.39,0.30,0.05,
1.574,-4.09,-0.53,-11.13,1.39,0.30,0.05,
1.574,-4.09,-0.53,-11.13,1.39,0.30,0.05,
1.581,-4.09,-0.53,-11.13,1.39,0.30,0.05,
1.582,-4.09,-0.53,-11.13,1.39,0.30,0.05,
1.583,-4.09,-0.53,-11.13,1.39,0.30,0.05,
1.583,-4.09,-0.53,-11.13,1.39,0.30,0.05,
1.591,-4.09,-0.53,-11.13,1.17,-1.19,0.28,
1.592,-4.09,-0.53,-11.13,1.17,-1.19,0.28,
1.593,-2.96,0.28,-8.53,1.17,-1.19,0.28,
1.593,-2.96,0.28,-8.53,1.17,-1.19,0.28,
1.601,-2.96,0.28,-8.53,0.73,-2.58,0.40,
1.602,-2.96,0.28,-8.53,0.73,-2.58,0.40,
1.603,-2.36,0.51,-7.71,0.73,-2.58,0.40,
1.603,-2.36,0.51,-7.71,0.73,-2.58,0.40,
1.609,-2.36,0.51,-7.71,0.15,-3.29,0.30,
1.61,-2.36,0.51,-7.71,0.15,-3.29,0.30,
1.611,-1.77,0.81,-5.33,0.15,-3.29,0.30,
1.611,-1.77,0.81,-5.33,0.15,-3.29,0.30,
1.62,-1.77,0.81,-5.33,-0.21,-3.25,-0.03,
1.62,-1.77,0.81,-5.33,-0.21,-3.25,-0.03,
1.621,-1.16,1.16,-4.50,-0.21,-3.25,-0.03,
1.621,-1.16,1.16,-4.50,-0.21,-3.25,-0.03,
1.629,-1.16,1.16,-4.50,-0.37,-2.64,-0.50,
1.63,-1.16,1.16,-4.50,-0.37,-2.64,-0.50,
1.631,-0.67,1.46,-3.62,-0.37,-2.64,-0.50,
1.631,-0.67,1.46,-3.62,-0.37,-2.64,-0.50,
1.64,-0.67,1.46,-3.62,-0.39,-1.73,-1.00,
1.641,-0.67,1.46,-3.62,-0.39,-1.73,-1.00,
1.642,-0.51,1.57,-1.72,-0.39,-1.73,-1.00,
1.642,-0.51,1.57,-1.72,-0.39,-1.73,-1.00,
1.648,-0.51,1.57,-1.72,-0.33,-0.69,-1.47,
1.648,-0.51,1.57,-1.72,-0.33,-0.69,-1.47,
1.649,-0.54,1.30,-1.11,-0.33,-0.69,-1.47,
1.649,-0.54,1.30,-1.11,-0.33,-0.69,-1.47,
1.657,-0.54,1.30,-1.11,-0.22,0.35,-1.84,
1.658,-0.54,1.30,-1.11,-0.22,0.35,-1.84,
1.659,-0.56,-0.39,-1.09,-0.22,0.35,-1.84,
1.66,-0.56,-0.39,-1.09,-0.22,0.35,-1.84,
1.668,-0.56,-0.39,-1.09,-0.09,1.26,-2.00,
1.669,-0.56,-0.39,-1.09,-0.09,1.26,-2.00,
1.669,-0.65,-0.69,-2.81,-0.09,1.26,-2.00,
1.67,-0.65,-0.69,-2.81,-0.09,1.26,-2.00,
1.676,-0.65,-0.69,-2.81,0.07,1.91,-1.85,
1.677,-0.65,-0.69,-2.81,0.07,1.91,-1.85,
1.677,-0.85,-1.12,-6.86,0.07,1.91,-1.85,
1.678,-0.85,-1.12,-6.86,0.07,1.91,-1.85,
1.686,-0.85,-1.12,-6.86,0.24,2.03,-1.38,
1.687,-0.85,-1.12,-6.86,0.24,2.03,-1.38,
1.687,-1.17,-1.40,-8.13,0.24,2.03,-1.38,
1.688,-1.17,-1.40,-8.13,0.24,2.03,-1.38,
1.695,-1.17,-1.40,-8.13,0.31,1.43,-0.83,
1.697,-1.17,-1.40,-8.13,0.31,1.43,-0.83,
1.698,-1.56,-1.38,-8.03,0.31,1.43,-0.83,
1.699,-1.56,-1.38,-8.03,0.31,1.43,-0.83,
1.705,-1.56,-1.38,-8.03,0.32,0.28,-0.27,
1.706,-1.56,-1.38,-8.03,0.32,0.28,-0.27,
1.706,-1.86,-1.20,-7.39,0.32,0.28,-0.27,
1.707,-1.86,-1.20,-7.39,0.32,0.28,-0.27,
1.714,-1.86,-1.20,-7.39,0.35,-0.95,0.27,
1.715,-1.86,-1.20,-7.39,0.35,-0.95,0.27,
1.716,-1.87,-0.91,-5.27,0.35,-0.95,0.27,
1.716,-1.87,-0.91,-5.27,0.35,-0.95,0.27,
1.723,-1.87,-0.91,-5.27,0.37,-1.86,0.60,
1.724,-1.87,-0.91,-5.27,0.37,-1.86,0.60,
1.725,-1.76,-0.65,-3.28,0.37,-1.86,0.60,
1.725,-1.76,-0.65,-3.28,0.37,-1.86,0.60,
1.734,-1.76,-0.65,-3.28,0.30,-2.29,0.70,
1.734,-1.76,-0.65,-3.28,0.30,-2.29,0.70,
1.735,-1.79,-0.55,-2.79,0.30,-2.29,0.70,
1.735,-1.79,-0.55,-2.79,0.30,-2.29,0.70,
1.743,-1.79,-0.55,-2.79,0.29,-2.29,0.60,
1.743,-1.79,-0.55,-2.79,0.29,-2.29,0.60,
1.744,-1.89,-0.51,-2.18,0.29,-2.29,0.60,
1.744,-1.89,-0.51,-2.18,0.29,-2.29,0.60,
1.752,-1.89,-0.51,-2.18,0.44,-2.00,0.38,
1.753,-1.89,-0.51,-2.18,0.44,-2.00,0.38,
1.754,-2.12,-0.57,-1.51,0.44,-2.00,0.38,
1.754,-2.12,-0.57,-1.51,0.44,-2.00,0.38,
1.762,-2.12,-0.57,-1.51,0.56,-1.62,0.16,
1.763,-2.12,-0.57,-1.51,0.56,-1.62,0.16,
1.763,-2.38,-0.68,-0.88,0.56,-1.62,0.16,
1.764,-2.38,-0.68,-0.88,0.56,-1.62,0.16,
1.772,-2.38,-0.68,-0.88,0.66,-1.26,-0.01,
1.773,-2.38,-0.68,-0.88,0.66,-1.26,-0.01,
1.774,-2.56,-0.75,-0.47,0.66,-1.26,-0.01,
1.775,-2.56,-0.75,-0.47,0.66,-1.26,-0.01,
1.781,-2.56,-0.75,-0.47,0.66,-1.26,-0.01,
1.782,-2.56,-0.75,-0.47,0.66,-1.26,-0.01,
1.783,-2.56,-0.75,-0.47,0.66,-1.26,-0.01,
1.784,-2.56,-0.75,-0.47,0.66,-1.26,-0.01,
1.791,-2.56,-0.75,-0.47,0.73,-0.96,-0.09,
1.792,-2.56,-0.75,-0.47,0.73,-0.96,-0.09,
1.793,-2.16,-0.99,-0.24,0.73,-0.96,-0.09,
1.794,-2.16,-0.99,-0.24,0.73,-0.96,-0.09,
1.8,-2.16,-0.99,-0.24,0.77,-0.70,-0.09,
1.801,-2.16,-0.99,-0.24,0.77,-0.70,-0.09,
1.801,-1.91,-0.90,-0.23,0.77,-0.70,-0.09,
1.802,-1.91,-0.90,-0.23,0.77,-0.70,-0.09,
1.809,-1.91,-0.90,-0.23,0.81,-0.46,-0.04,
1.81,-1.91,-0.90,-0.23,0.81,-0.46,-0.04,
1.811,-1.90,-0.58,-0.37,0.81,-0.46,-0.04,
1.812,-1.90,-0.58,-0.37,0.81,-0.46,-0.04,
1.819,-1.90,-0.58,-0.37,0.85,-0.26,0.01,
1.82,-1.90,-0.58,-0.37,0.85,-0.26,0.01,
1.821,-1.87,-0.31,-0.68,0.85,-0.26,0.01,
1.821,-1.87,-0.31,-0.68,0.85,-0.26,0.01,
1.829,-1.87,-0.31,-0.68,0.87,-0.13,-0.00,
1.829,-1.87,-0.31,-0.68,0.87,-0.13,-0.00,
1.83,-1.86,-0.10,-1.07,0.87,-0.13,-0.00,
1.831,-1.86,-0.10,-1.07,0.87,-0.13,-0.00,
1.841,-1.86,-0.10,-1.07,0.86,-0.10,-0.10,
1.842,-1.86,-0.10,-1.07,0.86,-0.10,-0.10,
1.842,-1.64,0.04,-1.43,0.86,-0.10,-0.10,
1.843,-1.64,0.04,-1.43,0.86,-0.10,-0.10,
1.848,-1.64,0.04,-1.43,0.78,-0.18,-0.27,
1.849,-1.64,0.04,-1.43,0.78,-0.18,-0.27,
1.849,-1.08,-0.18,-1.57,0.78,-0.18,-0.27,
1.849,-1.08,-0.18,-1.57,0.78,-0.18,-0.27,
1.857,-1.08,-0.18,-1.57,0.67,-0.33,-0.25,
1.858,-1.08,-0.18,-1.57,0.67,-0.33,-0.25,
1.859,-0.57,-0.48,-1.42,0.67,-0.33,-0.25,
1.859,-0.57,-0.48,-1.42,0.67,-0.33,-0.25,
1.867,-0.57,-0.48,-1.42,0.57,-0.47,-0.21,
1.868,-0.57,-0.48,-1.42,0.57,-0.47,-0.21,
1.868,-0.13,-0.78,-1.11,0.57,-0.47,-0.21,
1.868,-0.13,-0.78,-1.11,0.57,-0.47,-0.21,
1.876,-0.13,-0.78,-1.11,0.52,-0.50,-0.31,
1.877,-0.13,-0.78,-1.11,0.52,-0.50,-0.31,
1.878,0.33,-1.24,-0.84,0.52,-0.50,-0.31,
1.878,0.33,-1.24,-0.84,0.52,-0.50,-0.31,
1.885,0.33,-1.24,-0.84,0.54,-0.40,-0.31,
1.886,0.33,-1.24,-0.84,0.54,-0.40,-0.31,
1.887,0.66,-1.69,-0.62,0.54,-0.40,-0.31,
1.888,0.66,-1.69,-0.62,0.54,-0.40,-0.31,
1.895,0.66,-1.69,-0.62,0.61,-0.17,-0.21,
1.896,0.66,-1.69,-0.62,0.61,-0.17,-0.21,
1.897,0.70,-1.99,-0.49,0.61,-0.17,-0.21,
1.897,0.70,-1.99,-0.49,0.61,-0.17,-0.21,
1.907,0.70,-1.99,-0.49,0.72,0.11,-0.02,
1.909,0.70,-1.99,-0.49,0.72,0.11,-0.02,
1.91,0.57,-2.14,-0.44,0.72,0.11,-0.02,
1.911,0.57,-2.14,-0.44,0.72,0.11,-0.02,
1.914,0.57,-2.14,-0.44,0.84,0.39,0.22,
1.916,0.57,-2.14,-0.44,0.84,0.39,0.22,
1.916,0.27,-2.26,-0.30,0.84,0.39,0.22,
1.917,0.27,-2.26,-0.30,0.84,0.39,0.22,
1.924,0.27,-2.26,-0.30,0.92,0.59,0.49,
1.925,0.27,-2.26,-0.30,0.92,0.59,0.49,
1.925,-0.14,-2.25,0.01,0.92,0.59,0.49,
1.925,-0.14,-2.25,0.01,0.92,0.59,0.49,
1.937,-0.14,-2.25,0.01,0.96,0.70,0.74,
1.938,-0.14,-2.25,0.01,0.96,0.70,0.74,
1.938,-1.95,-2.09,0.51,0.96,0.70,0.74,
1.938,-1.95,-2.09,0.51,0.96,0.70,0.74,
1.943,-1.95,-2.09,0.51,0.94,0.71,0.97,
1.943,-1.95,-2.09,0.51,0.94,0.71,0.97,
1.944,-1.29,-1.97,0.84,0.94,0.71,0.97,
1.944,-1.29,-1.97,0.84,0.94,0.71,0.97,
1.953,-1.29,-1.97,0.84,0.88,0.64,1.17,
1.953,-1.29,-1.97,0.84,0.88,0.64,1.17,
1.954,-1.08,-1.65,1.18,0.88,0.64,1.17,
1.954,-1.08,-1.65,1.18,0.88,0.64,1.17,
1.962,-1.08,-1.65,1.18,0.79,0.54,1.32,
1.963,-1.08,-1.65,1.18,0.79,0.54,1.32,
1.963,-1.14,-1.26,1.22,0.79,0.54,1.32,
1.964,-1.14,-1.26,1.22,0.79,0.54,1.32,
1.972,-1.14,-1.26,1.22,0.68,0.47,1.39,
1.973,-1.14,-1.26,1.22,0.68,0.47,1.39,
1.973,-0.72,-0.86,0.84,0.68,0.47,1.39,
1.974,-0.72,-0.86,0.84,0.68,0.47,1.39,
1.981,-0.72,-0.86,0.84,0.68,0.47,1.39,
1.982,-0.72,-0.86,0.84,0.68,0.47,1.39,
1.983,-0.72,-0.86,0.84,0.68,0.47,1.39,
1.983,-0.72,-0.86,0.84,0.68,0.47,1.39,
1.991,-0.72,-0.86,0.84,0.55,0.44,1.33,
1.992,-0.72,-0.86,0.84,0.55,0.44,1.33,
1.993,-1.17,0.06,0.05,0.55,0.44,1.33,
1.993,-1.17,0.06,0.05,0.55,0.44,1.33,
2.001,-1.17,0.06,0.05,0.36,0.38,1.12,
2.002,-1.17,0.06,0.05,0.36,0.38,1.12,
2.003,-0.81,0.45,-0.30,0.36,0.38,1.12,
2.003,-0.81,0.45,-0.30,0.36,0.38,1.12,
2.01,-0.81,0.45,-0.30,0.10,0.25,0.76,
2.011,-0.81,0.45,-0.30,0.10,0.25,0.76,
2.011,-0.20,0.88,-0.43,0.10,0.25,0.76,
2.012,-0.20,0.88,-0.43,0.10,0.25,0.76,
2.02,-0.20,0.88,-0.43,-0.05,0.18,0.31,
2.021,-0.20,0.88,-0.43,-0.05,0.18,0.31,
2.022,0.28,1.12,-0.51,-0.05,0.18,0.31,
2.023,0.28,1.12,-0.51,-0.05,0.18,0.31,
2.028,0.28,1.12,-0.51,-0.23,0.10,-0.20,
2.029,0.28,1.12,-0.51,-0.23,0.10,-0.20,
2.03,0.54,1.30,-0.51,-0.23,0.10,-0.20,
2.03,0.54,1.30,-0.51,-0.23,0.10,-0.20,
2.04,0.54,1.30,-0.51,-0.57,-0.05,-0.69,
2.041,0.54,1.30,-0.51,-0.57,-0.05,-0.69,
2.042,0.50,1.44,-0.48,-0.57,-0.05,-0.69,
2.042,0.50,1.44,-0.48,-0.57,-0.05,-0.69,
2.048,0.50,1.44,-0.48,-0.81,-0.08,-1.09,
2.048,0.50,1.44,-0.48,-0.81,-0.08,-1.09,
2.049,-0.08,1.50,-0.45,-0.81,-0.08,-1.09,
2.049,-0.08,1.50,-0.45,-0.81,-0.08,-1.09,
2.057,-0.08,1.50,-0.45,-0.96,-0.06,-1.38,
2.058,-0.08,1.50,-0.45,-0.96,-0.06,-1.38,
2.059,-0.64,1.67,-0.28,-0.96,-0.06,-1.38,
2.059,-0.64,1.67,-0.28,-0.96,-0.06,-1.38,
2.067,-0.64,1.67,-0.28,-1.05,-0.07,-1.54,
2.068,-0.64,1.67,-0.28,-1.05,-0.07,-1.54,
2.068,-1.27,1.99,-0.03,-1.05,-0.07,-1.54,
2.069,-1.27,1.99,-0.03,-1.05,-0.07,-1.54,
2.076,-1.27,1.99,-0.03,-1.10,-0.16,-1.60,
2.077,-1.27,1.99,-0.03,-1.10,-0.16,-1.60,
2.078,-1.69,2.36,0.21,-1.10,-0.16,-1.60,
2.078,-1.69,2.36,0.21,-1.10,-0.16,-1.60,
2.086,-1.69,2.36,0.21,-1.15,-0.32,-1.62,
2.087,-1.69,2.36,0.21,-1.15,-0.32,-1.62,
2.088,-1.91,2.73,0.36,-1.15,-0.32,-1.62,
2.088,-1.91,2.73,0.36,-1.15,-0.32,-1.62,
2.095,-1.91,2.73,0.36,-1.22,-0.52,-1.65,
2.096,-1.91,2.73,0.36,-1.22,-0.52,-1.65,
2.097,-1.93,3.10,0.32,-1.22,-0.52,-1.65,
2.097,-1.93,3.10,0.32,-1.22,-0.52,-1.65,
2.105,-1.93,3.10,0.32,-1.32,-0.73,-1.71,
2.106,-1.93,3.10,0.32,-1.32,-0.73,-1.71,
2.107,-1.82,3.40,0.07,-1.32,-0.73,-1.71,
2.108,-1.82,3.40,0.07,-1.32,-0.73,-1.71,
2.115,-1.82,3.40,0.07,-1.43,-0.89,-1.82,
2.116,-1.82,3.40,0.07,-1.43,-0.89,-1.82,
2.117,-1.67,3.65,-0.13,-1.43,-0.89,-1.82,
2.117,-1.67,3.65,-0.13,-1.43,-0.89,-1.82,
2.125,-1.67,3.65,-0.13,-1.56,-1.01,-1.94,
2.127,-1.67,3.65,-0.13,-1.56,-1.01,-1.94,
2.129,-1.35,3.93,-0.21,-1.56,-1.01,-1.94,
2.131,-1.35,3.93,-0.21,-1.56,-1.01,-1.94,
2.135,-1.35,3.93,-0.21,-1.67,-1.07,-2.05,
2.136,-1.35,3.93,-0.21,-1.67,-1.07,-2.05,
2.136,-0.95,4.29,-0.14,-1.67,-1.07,-2.05,
2.137,-0.95,4.29,-0.14,-1.67,-1.07,-2.05,
2.143,-0.95,4.29,-0.14,-1.71,-1.06,-2.14,
2.143,-0.51,4.30,0.19,-1.71,-1.06,-2.14,
2.144,-0.51,4.30,0.19,-1.71,-1.06,-2.14,
2.145,-0.51,4.30,0.19,-1.71,-1.06,-2.14,
2.152,-0.51,4.30,0.19,-1.70,-0.93,-2.21,
2.153,-0.51,4.30,0.19,-1.70,-0.93,-2.21,
2.153,-0.14,3.95,0.47,-1.70,-0.93,-2.21,
2.153,-0.14,3.95,0.47,-1.70,-0.93,-2.21,
2.163,-0.14,3.95,0.47,-1.70,-0.67,-2.22,
2.164,-0.14,3.95,0.47,-1.70,-0.67,-2.22,
2.164,0.03,1.91,0.65,-1.70,-0.67,-2.22,
2.165,0.03,1.91,0.65,-1.70,-0.67,-2.22,
2.172,0.03,1.91,0.65,-1.63,-0.33,-2.07,
2.174,0.03,1.91,0.65,-1.63,-0.33,-2.07,
2.175,0.09,1.63,0.92,-1.63,-0.33,-2.07,
2.175,0.09,1.63,0.92,-1.63,-0.33,-2.07,
2.181,0.09,1.63,0.92,-1.63,-0.33,-2.07,
2.182,0.09,1.63,0.92,-1.63,-0.33,-2.07,
2.182,0.09,1.63,0.92,-1.63,-0.33,-2.07,
2.183,0.09,1.63,0.92,-1.63,-0.33,-2.07,
2.19,0.09,1.63,0.92,-1.45,0.01,-1.63,
2.191,0.09,1.63,0.92,-1.45,0.01,-1.63,
2.192,0.93,1.96,0.59,-1.45,0.01,-1.63,
2.192,0.93,1.96,0.59,-1.45,0.01,-1.63,
2.2,0.93,1.96,0.59,-1.18,0.31,-0.96,
2.201,0.93,1.96,0.59,-1.18,0.31,-0.96,
2.201,1.45,1.65,0.16,-1.18,0.31,-0.96,
2.201,1.45,1.65,0.16,-1.18,0.31,-0.96,
2.21,1.45,1.65,0.16,-0.88,0.57,-0.24,
2.211,1.45,1.65,0.16,-0.88,0.57,-0.24,
2.211,2.05,-1.49,0.53,-0.88,0.57,-0.24,
2.212,2.05,-1.49,0.53,-0.88,0.57,-0.24,
2.219,2.05,-1.49,0.53,-0.58,0.83,0.44,
2.22,2.05,-1.49,0.53,-0.58,0.83,0.44,
2.22,2.51,-4.95,2.18,-0.58,0.83,0.44,
2.221,2.51,-4.95,2.18,-0.58,0.83,0.44,
2.229,2.51,-4.95,2.18,-0.22,1.12,1.31,
2.23,2.51,-4.95,2.18,-0.22,1.12,1.31,
2.23,2.72,-7.15,3.88,-0.22,1.12,1.31,
2.231,2.72,-7.15,3.88,-0.22,1.12,1.31,
2.24,2.72,-7.15,3.88,0.34,1.53,2.56,
2.241,2.72,-7.15,3.88,0.34,1.53,2.56,
2.241,3.27,-7.48,4.34,0.34,1.53,2.56,
2.242,3.27,-7.48,4.34,0.34,1.53,2.56,
2.247,3.27,-7.48,4.34,0.36,2.00,4.05,
2.248,3.27,-7.48,4.34,0.36,2.00,4.05,
2.248,4.84,-7.17,2.92,0.36,2.00,4.05,
2.249,4.84,-7.17,2.92,0.36,2.00,4.05,
2.257,4.84,-7.17,2.92,0.59,2.60,5.32,
2.258,4.84,-7.17,2.92,0.59,2.60,5.32,
2.259,5.01,-4.80,2.81,0.59,2.60,5.32,
2.259,5.01,-4.80,2.81,0.59,2.60,5.32,
2.267,5.01,-4.80,2.81,1.15,2.61,5.93,
2.268,5.01,-4.80,2.81,1.15,2.61,5.93,
2.269,4.89,-2.47,2.40,1.15,2.61,5.93,
2.269,4.89,-2.47,2.40,1.15,2.61,5.93,
2.276,4.89,-2.47,2.40,1.13,2.39,5.58,
2.277,4.89,-2.47,2.40,1.13,2.39,5.58,
2.278,2.82,-0.07,0.79,1.13,2.39,5.58,
2.279,2.82,-0.07,0.79,1.13,2.39,5.58,
2.286,2.82,-0.07,0.79,1.00,2.50,4.58,
2.288,2.82,-0.07,0.79,1.00,2.50,4.58,
2.289,1.20,0.36,0.37,1.00,2.50,4.58,
2.29,1.20,0.36,0.37,1.00,2.50,4.58,
2.295,1.20,0.36,0.37,0.61,2.20,3.38,
2.297,1.20,0.36,0.37,0.61,2.20,3.38,
2.298,0.74,0.67,0.11,0.61,2.20,3.38,
2.298,0.74,0.67,0.11,0.61,2.20,3.38,
2.305,0.74,0.67,0.11,0.05,1.54,2.09,
2.306,0.74,0.67,0.11,0.05,1.54,2.09,
2.307,-1.03,0.86,0.06,0.05,1.54,2.09,
2.308,-1.03,0.86,0.06,0.05,1.54,2.09,
2.314,-1.03,0.86,0.06,-0.51,0.66,0.97,
2.315,-1.03,0.86,0.06,-0.51,0.66,0.97,
2.315,-1.26,0.86,0.37,-0.51,0.66,0.97,
2.316,-1.26,0.86,0.37,-0.51,0.66,0.97,
2.325,-1.26,0.86,0.37,-0.98,-0.25,0.09,
2.327,-1.26,0.86,0.37,-0.98,-0.25,0.09,
2.327,-1.73,0.80,0.80,-0.98,-0.25,0.09,
2.327,-1.73,0.80,0.80,-0.98,-0.25,0.09,
2.334,-1.73,0.80,0.80,-1.33,-1.05,-0.53,
2.334,-1.73,0.80,0.80,-1.33,-1.05,-0.53,
2.335,-2.01,0.81,0.96,-1.33,-1.05,-0.53,
2.335,-2.01,0.81,0.96,-1.33,-1.05,-0.53,
2.343,-2.01,0.81,0.96,-1.57,-1.67,-0.96,
2.343,-2.01,0.81,0.96,-1.57,-1.67,-0.96,
2.344,-1.86,0.86,0.95,-1.57,-1.67,-0.96,
2.345,-1.86,0.86,0.95,-1.57,-1.67,-0.96,
2.352,-1.86,0.86,0.95,-1.70,-2.09,-1.25,
2.353,-1.86,0.86,0.95,-1.70,-2.09,-1.25,
2.353,-1.39,0.81,0.85,-1.70,-2.09,-1.25,
2.354,-1.39,0.81,0.85,-1.70,-2.09,-1.25,
2.363,-1.39,0.81,0.85,-1.75,-2.32,-1.46,
2.364,-1.39,0.81,0.85,-1.75,-2.32,-1.46,
2.364,-0.80,0.70,0.76,-1.75,-2.32,-1.46,
2.365,-0.80,0.70,0.76,-1.75,-2.32,-1.46,
2.373,-0.80,0.70,0.76,-1.72,-2.37,-1.61,
2.375,-0.80,0.70,0.76,-1.72,-2.37,-1.61,
2.375,-0.30,0.48,0.79,-1.72,-2.37,-1.61,
2.376,-0.30,0.48,0.79,-1.72,-2.37,-1.61,
2.385,-0.30,0.48,0.79,-1.72,-2.37,-1.61,
2.387,-0.30,0.48,0.79,-1.72,-2.37,-1.61,
2.388,-0.30,0.48,0.79,-1.72,-2.37,-1.61,
2.389,-0.30,0.48,0.79,-1.72,-2.37,-1.61,
2.39,-0.30,0.48,0.79,-1.64,-2.25,-1.69,
2.392,-0.30,0.48,0.79,-1.64,-2.25,-1.69,
2.392,0.28,0.10,0.78,-1.64,-2.25,-1.69,
2.393,0.28,0.10,0.78,-1.64,-2.25,-1.69,
2.4,0.28,0.10,0.78,-1.49,-1.95,-1.69,
2.401,0.28,0.10,0.78,-1.49,-1.95,-1.69,
2.401,0.34,-0.04,0.65,-1.49,-1.95,-1.69,
2.402,0.34,-0.04,0.65,-1.49,-1.95,-1.69,
2.409,0.34,-0.04,0.65,-1.30,-1.54,-1.59,
2.41,0.34,-0.04,0.65,-1.30,-1.54,-1.59,
2.41,0.35,-0.09,0.48,-1.30,-1.54,-1.59,
2.411,0.35,-0.09,0.48,-1.30,-1.54,-1.59,
2.432,0.35,-0.09,0.48,-1.07,-1.12,-1.41,
2.433,0.35,-0.09,0.48,-1.07,-1.12,-1.41,
2.434,0.26,-0.11,0.41,-1.07,-1.12,-1.41,
2.435,0.26,-0.11,0.41,-1.07,-1.12,-1.41,
2.435,0.26,-0.11,0.41,-1.07,-1.12,-1.41,
2.436,0.26,-0.11,0.41,-1.07,-1.12,-1.41,
2.437,0.26,-0.11,0.41,-1.07,-1.12,-1.41,
2.438,0.26,-0.11,0.41,-1.07,-1.12,-1.41,
2.439,0.26,-0.11,0.41,-0.65,-0.51,-1.04,
2.44,0.26,-0.11,0.41,-0.65,-0.51,-1.04,
2.441,-0.16,0.04,0.70,-0.65,-0.51,-1.04,
2.442,-0.16,0.04,0.70,-0.65,-0.51,-1.04,
2.45,-0.16,0.04,0.70,-0.42,-0.22,-0.87,
2.451,-0.16,0.04,0.70,-0.42,-0.22,-0.87,
2.451,-0.53,0.14,0.84,-0.42,-0.22,-0.87,
2.451,-0.53,0.14,0.84,-0.42,-0.22,-0.87,
2.457,-0.53,0.14,0.84,-0.42,-0.22,-0.87,
2.457,-0.53,0.14,0.84,-0.42,-0.22,-0.87,
2.458,-0.53,0.14,0.84,-0.42,-0.22,-0.87,
2.458,-0.53,0.14,0.84,-0.42,-0.22,-0.87,
2.466,-0.53,0.14,0.84,-0.37,-0.14,-0.85,
2.467,-0.53,0.14,0.84,-0.37,-0.14,-0.85,
2.467,-1.17,0.38,0.89,-0.37,-0.14,-0.85,
2.467,-1.17,0.38,0.89,-0.37,-0.14,-0.85,
2.476,-1.17,0.38,0.89,-0.36,-0.16,-0.87,
2.477,-1.17,0.38,0.89,-0.36,-0.16,-0.87,
2.477,-1.05,0.49,-2.20,-0.36,-0.16,-0.87,
2.477,-1.05,0.49,-2.20,-0.36,-0.16,-0.87,
2.485,-1.05,0.49,-2.20,-0.36,-0.29,-0.87,
2.486,-1.05,0.49,-2.20,-0.36,-0.29,-0.87,
2.486,-0.66,0.59,-2.26,-0.36,-0.29,-0.87,
2.487,-0.66,0.59,-2.26,-0.36,-0.29,-0.87,
2.495,-0.66,0.59,-2.26,-0.38,-0.59,-0.85,
2.496,-0.66,0.59,-2.26,-0.38,-0.59,-0.85,
2.497,-0.51,0.95,-2.41,-0.38,-0.59,-0.85,
2.497,-0.51,0.95,-2.41,-0.38,-0.59,-0.85,
2.505,-0.51,0.95,-2.41,-0.40,-1.01,-0.80,
2.506,-0.51,0.95,-2.41,-0.40,-1.01,-0.80,
2.506,-0.21,3.04,-2.49,-0.40,-1.01,-0.80,
2.507,-0.21,3.04,-2.49,-0.40,-1.01,-0.80,
2.514,-0.21,3.04,-2.49,-0.46,-1.37,-0.82,
2.515,-0.21,3.04,-2.49,-0.46,-1.37,-0.82,
2.515,0.03,4.64,0.79,-0.46,-1.37,-0.82,
2.516,0.03,4.64,0.79,-0.46,-1.37,-0.82,
2.524,0.03,4.64,0.79,-0.59,-1.45,-1.09,
2.525,0.03,4.64,0.79,-0.59,-1.45,-1.09,
2.526,0.15,4.79,1.07,-0.59,-1.45,-1.09,
2.527,0.15,4.79,1.07,-0.59,-1.45,-1.09,
2.533,0.15,4.79,1.07,-0.83,-1.13,-1.71,
2.534,0.15,4.79,1.07,-0.83,-1.13,-1.71,
2.535,0.48,4.97,1.50,-0.83,-1.13,-1.71,
2.535,0.48,4.97,1.50,-0.83,-1.13,-1.71,
2.543,0.48,4.97,1.50,-1.12,-0.48,-2.50,
2.543,0.48,4.97,1.50,-1.12,-0.48,-2.50,
2.544,0.58,4.81,2.10,-1.12,-0.48,-2.50,
2.544,0.58,4.81,2.10,-1.12,-0.48,-2.50,
2.552,0.58,4.81,2.10,-1.37,0.33,-3.20,
2.553,0.58,4.81,2.10,-1.37,0.33,-3.20,
2.553,0.42,4.54,2.52,-1.37,0.33,-3.20,
2.554,0.42,4.54,2.52,-1.37,0.33,-3.20,
2.562,0.42,4.54,2.52,-1.54,1.10,-3.59,
2.563,0.42,4.54,2.52,-1.54,1.10,-3.59,
2.564,0.16,4.37,2.58,-1.54,1.10,-3.59,
2.565,0.16,4.37,2.58,-1.54,1.10,-3.59,
2.572,0.16,4.37,2.58,-1.62,1.72,-3.70,
2.574,0.16,4.37,2.58,-1.62,1.72,-3.70,
2.575,-0.09,3.90,2.57,-1.62,1.72,-3.70,
2.576,-0.09,3.90,2.57,-1.62,1.72,-3.70,
2.581,-0.09,3.90,2.57,-1.62,1.72,-3.70,
2.582,-0.09,3.90,2.57,-1.62,1.72,-3.70,
2.582,-0.09,3.90,2.57,-1.62,1.72,-3.70,
2.583,-0.09,3.90,2.57,-1.62,1.72,-3.70,
2.59,-0.09,3.90,2.57,-1.62,2.16,-3.60,
2.591,-0.09,3.90,2.57,-1.62,2.16,-3.60,
2.591,-0.84,1.42,1.83,-1.62,2.16,-3.60,
2.592,-0.84,1.42,1.83,-1.62,2.16,-3.60,
2.6,-0.84,1.42,1.83,-1.51,2.35,-3.30,
2.601,-0.84,1.42,1.83,-1.51,2.35,-3.30,
2.601,-1.19,-0.05,1.29,-1.51,2.35,-3.30,
2.601,-1.19,-0.05,1.29,-1.51,2.35,-3.30,
2.609,-1.19,-0.05,1.29,-1.26,2.22,-2.71,
2.61,-1.19,-0.05,1.29,-1.26,2.22,-2.71,
2.611,-1.44,-0.61,0.74,-1.26,2.22,-2.71,
2.611,-1.44,-0.61,0.74,-1.26,2.22,-2.71,
2.62,-1.44,-0.61,0.74,-0.94,1.77,-1.80,
2.622,-1.44,-0.61,0.74,-0.94,1.77,-1.80,
2.623,-1.45,-2.29,0.28,-0.94,1.77,-1.80,
2.624,-1.45,-2.29,0.28,-0.94,1.77,-1.80,
2.628,-1.45,-2.29,0.28,-0.65,1.12,-0.64,
2.629,-1.45,-2.29,0.28,-0.65,1.12,-0.64,
2.629,-1.23,-4.35,-0.05,-0.65,1.12,-0.64,
2.63,-1.23,-4.35,-0.05,-0.65,1.12,-0.64,
2.638,-1.23,-4.35,-0.05,-0.36,0.45,0.69,
2.638,-1.23,-4.35,-0.05,-0.36,0.45,0.69,
2.639,-0.92,-4.78,-0.30,-0.36,0.45,0.69,
2.639,-0.92,-4.78,-0.30,-0.36,0.45,0.69,
2.647,-0.92,-4.78,-0.30,0.21,-0.21,2.15,
2.648,-0.92,-4.78,-0.30,0.21,-0.21,2.15,
2.648,-0.54,-5.19,-0.63,0.21,-0.21,2.15,
2.648,-0.54,-5.19,-0.63,0.21,-0.21,2.15,
2.657,-0.54,-5.19,-0.63,1.04,-0.73,3.59,
2.658,-0.54,-5.19,-0.63,1.04,-0.73,3.59,
2.658,-0.24,-5.21,-0.86,1.04,-0.73,3.59,
2.659,-0.24,-5.21,-0.86,1.04,-0.73,3.59,
2.666,-0.24,-5.21,-0.86,1.78,-1.00,4.73,
2.667,-0.24,-5.21,-0.86,1.78,-1.00,4.73,
2.667,-0.06,-3.70,-0.94,1.78,-1.00,4.73,
2.668,-0.06,-3.70,-0.94,1.78,-1.00,4.73,
2.676,-0.06,-3.70,-0.94,2.30,-1.06,5.29,
2.677,-0.06,-3.70,-0.94,2.30,-1.06,5.29,
2.677,0.04,-1.81,-0.83,2.30,-1.06,5.29,
2.678,0.04,-1.81,-0.83,2.30,-1.06,5.29,
2.685,0.04,-1.81,-0.83,2.50,-1.02,5.20,
2.687,0.04,-1.81,-0.83,2.50,-1.02,5.20,
2.687,-0.00,-0.03,-0.52,2.50,-1.02,5.20,
2.688,-0.00,-0.03,-0.52,2.50,-1.02,5.20,
2.695,-0.00,-0.03,-0.52,2.33,-0.93,4.50,
2.696,-0.00,-0.03,-0.52,2.33,-0.93,4.50,
2.697,-0.27,0.39,-0.12,2.33,-0.93,4.50,
2.699,-0.27,0.39,-0.12,2.33,-0.93,4.50,
2.705,-0.27,0.39,-0.12,1.87,-0.82,3.35,
2.707,-0.27,0.39,-0.12,1.87,-0.82,3.35,
2.708,-0.78,2.07,0.29,1.87,-0.82,3.35,
2.709,-0.78,2.07,0.29,1.87,-0.82,3.35,
2.714,-0.78,2.07,0.29,1.27,-0.70,1.98,
2.715,-0.78,2.07,0.29,1.27,-0.70,1.98,
2.715,-2.30,2.19,0.55,1.27,-0.70,1.98,
2.715,-2.30,2.19,0.55,1.27,-0.70,1.98,
2.723,-2.30,2.19,0.55,0.64,-0.61,0.60,
2.724,-2.30,2.19,0.55,0.64,-0.61,0.60,
2.725,-2.75,1.86,0.48,0.64,-0.61,0.60,
2.725,-2.75,1.86,0.48,0.64,-0.61,0.60,
2.733,-2.75,1.86,0.48,0.07,-0.61,-0.64,
2.734,-2.75,1.86,0.48,0.07,-0.61,-0.64,
2.734,-3.15,0.04,0.17,0.07,-0.61,-0.64,
2.735,-3.15,0.04,0.17,0.07,-0.61,-0.64,
2.743,-3.15,0.04,0.17,-0.36,-0.76,-1.58,
2.744,-3.15,0.04,0.17,-0.36,-0.76,-1.58,
2.744,-3.33,-1.76,-0.35,-0.36,-0.76,-1.58,
2.745,-3.33,-1.76,-0.35,-0.36,-0.76,-1.58,
2.752,-3.33,-1.76,-0.35,-0.55,-1.05,-1.99,
2.753,-3.33,-1.76,-0.35,-0.55,-1.05,-1.99,
2.754,-3.23,-3.47,-0.83,-0.55,-1.05,-1.99,
2.754,-3.23,-3.47,-0.83,-0.55,-1.05,-1.99,
2.762,-3.23,-3.47,-0.83,-0.46,-1.43,-1.71,
2.763,-3.23,-3.47,-0.83,-0.46,-1.43,-1.71,
2.764,-2.90,-3.84,-0.92,-0.46,-1.43,-1.71,
2.765,-2.90,-3.84,-0.92,-0.46,-1.43,-1.71,
2.771,-2.90,-3.84,-0.92,-0.46,-1.43,-1.71,
2.773,-2.90,-3.84,-0.92,-0.46,-1.43,-1.71,
2.774,-2.90,-3.84,-0.92,-0.46,-1.43,-1.71,
2.774,-2.90,-3.84,-0.92,-0.46,-1.43,-1.71,
2.781,-2.90,-3.84,-0.92,-0.12,-1.83,-0.76,
2.782,-2.90,-3.84,-0.92,-0.12,-1.83,-0.76,
2.783,-1.83,-4.29,-0.32,-0.12,-1.83,-0.76,
2.783,-1.83,-4.29,-0.32,-0.12,-1.83,-0.76,
2.79,-1.83,-4.29,-0.32,0.35,-2.06,0.49,
2.791,-1.83,-4.29,-0.32,0.35,-2.06,0.49,
2.792,-1.28,-2.59,0.04,0.35,-2.06,0.49,
2.792,-1.28,-2.59,0.04,0.35,-2.06,0.49,
2.8,-1.28,-2.59,0.04,0.79,-1.98,1.54,
2.801,-1.28,-2.59,0.04,0.79,-1.98,1.54,
2.802,-0.88,-2.11,0.32,0.79,-1.98,1.54,
2.803,-0.88,-2.11,0.32,0.79,-1.98,1.54,
2.809,-0.88,-2.11,0.32,1.07,-1.58,2.04,
2.81,-0.88,-2.11,0.32,1.07,-1.58,2.04,
2.811,-0.66,-0.09,0.33,1.07,-1.58,2.04,
2.811,-0.66,-0.09,0.33,1.07,-1.58,2.04,
2.818,-0.66,-0.09,0.33,1.12,-1.01,1.90,
2.819,-0.66,-0.09,0.33,1.12,-1.01,1.90,
2.82,-0.73,0.28,0.26,1.12,-1.01,1.90,
2.821,-0.73,0.28,0.26,1.12,-1.01,1.90,
2.828,-0.73,0.28,0.26,0.93,-0.45,1.29,
2.829,-0.73,0.28,0.26,0.93,-0.45,1.29,
2.83,-1.06,-0.03,0.17,0.93,-0.45,1.29,
2.83,-1.06,-0.03,0.17,0.93,-0.45,1.29,
2.838,-1.06,-0.03,0.17,0.61,-0.01,0.44,
2.839,-1.06,-0.03,0.17,0.61,-0.01,0.44,
2.84,-1.50,-2.08,0.04,0.61,-0.01,0.44,
2.84,-1.50,-2.08,0.04,0.61,-0.01,0.44,
2.847,-1.50,-2.08,0.04,0.31,0.24,-0.29,
2.848,-1.50,-2.08,0.04,0.31,0.24,-0.29,
2.848,-1.85,-5.42,0.02,0.31,0.24,-0.29,
2.849,-1.85,-5.42,0.02,0.31,0.24,-0.29,
2.857,-1.85,-5.42,0.02,0.22,0.30,-0.51,
2.858,-1.85,-5.42,0.02,0.22,0.30,-0.51,
2.859,-1.92,-6.95,0.10,0.22,0.30,-0.51,
2.86,-1.92,-6.95,0.10,0.22,0.30,-0.51,
2.866,-1.92,-6.95,0.10,0.47,0.23,0.07,
2.868,-1.92,-6.95,0.10,0.47,0.23,0.07,
2.868,-1.70,-7.26,0.08,0.47,0.23,0.07,
2.869,-1.70,-7.26,0.08,0.47,0.23,0.07,
2.876,-1.70,-7.26,0.08,1.04,0.14,1.27,
2.877,-1.70,-7.26,0.08,1.04,0.14,1.27,
2.877,-1.25,-9.03,0.08,1.04,0.14,1.27,
2.877,-1.25,-9.03,0.08,1.04,0.14,1.27,
2.885,-1.25,-9.03,0.08,1.76,0.13,2.64,
2.886,-1.25,-9.03,0.08,1.76,0.13,2.64,
2.886,-0.92,-9.33,0.31,1.76,0.13,2.64,
2.887,-0.92,-9.33,0.31,1.76,0.13,2.64,
2.895,-0.92,-9.33,0.31,2.47,0.23,3.76,
2.896,-0.92,-9.33,0.31,2.47,0.23,3.76,
2.896,-0.55,-10.69,0.50,2.47,0.23,3.76,
2.897,-0.55,-10.69,0.50,2.47,0.23,3.76,
2.905,-0.55,-10.69,0.50,3.09,0.43,4.47,
2.906,-0.55,-10.69,0.50,3.09,0.43,4.47,
2.907,1.26,-10.74,0.62,3.09,0.43,4.47,
2.908,1.26,-10.74,0.62,3.09,0.43,4.47,
2.914,1.26,-10.74,0.62,3.58,0.69,4.81,
2.915,1.26,-10.74,0.62,3.58,0.69,4.81,
2.915,1.51,-10.17,0.50,3.58,0.69,4.81,
2.916,1.51,-10.17,0.50,3.58,0.69,4.81,
2.924,1.51,-10.17,0.50,3.87,1.00,4.76,
2.925,1.51,-10.17,0.50,3.87,1.00,4.76,
2.926,1.84,-8.04,0.09,3.87,1.00,4.76,
2.929,1.84,-8.04,0.09,3.87,1.00,4.76,
2.933,1.84,-8.04,0.09,3.89,1.30,4.36,
2.934,1.84,-8.04,0.09,3.89,1.30,4.36,
2.935,1.88,-6.16,-0.38,3.89,1.30,4.36,
2.935,1.88,-6.16,-0.38,3.89,1.30,4.36,
2.942,1.88,-6.16,-0.38,3.41,1.50,3.68,
2.943,1.88,-6.16,-0.38,3.41,1.50,3.68,
2.944,1.45,-5.79,-0.77,3.41,1.50,3.68,
2.944,1.45,-5.79,-0.77,3.41,1.50,3.68,
2.952,1.45,-5.79,-0.77,2.65,1.54,2.84,
2.953,1.45,-5.79,-0.77,2.65,1.54,2.84,
2.953,0.88,-5.44,-0.90,2.65,1.54,2.84,
2.954,0.88,-5.44,-0.90,2.65,1.54,2.84,
2.962,0.88,-5.44,-0.90,2.03,1.43,2.01,
2.963,0.88,-5.44,-0.90,2.03,1.43,2.01,
2.963,0.41,-5.23,-0.90,2.03,1.43,2.01,
2.964,0.41,-5.23,-0.90,2.03,1.43,2.01,
2.971,0.41,-5.23,-0.90,2.03,1.43,2.01,
2.972,0.41,-5.23,-0.90,2.03,1.43,2.01,
2.973,0.41,-5.23,-0.90,2.03,1.43,2.01,
2.973,0.41,-5.23,-0.90,2.03,1.43,2.01,
2.98,0.41,-5.23,-0.90,1.39,1.20,1.33,
2.981,0.41,-5.23,-0.90,1.39,1.20,1.33,
2.982,-0.38,-4.60,-0.51,1.39,1.20,1.33,
2.982,-0.38,-4.60,-0.51,1.39,1.20,1.33,
2.99,-0.38,-4.60,-0.51,0.73,0.92,0.87,
2.991,-0.38,-4.60,-0.51,0.73,0.92,0.87,
2.992,-0.85,-4.02,-0.31,0.73,0.92,0.87,
2.992,-0.85,-4.02,-0.31,0.73,0.92,0.87,
3.0,-0.85,-4.02,-0.31,0.21,0.62,0.62,
3.001,-0.85,-4.02,-0.31,0.21,0.62,0.62,
3.002,-1.29,-3.39,-0.30,0.21,0.62,0.62,
3.002,-1.29,-3.39,-0.30,0.21,0.62,0.62,
3.009,-1.29,-3.39,-0.30,-0.21,0.33,0.49,
3.01,-1.29,-3.39,-0.30,-0.21,0.33,0.49,
3.011,-1.66,-2.82,-0.36,-0.21,0.33,0.49,
3.011,-1.66,-2.82,-0.36,-0.21,0.33,0.49,
3.018,-1.66,-2.82,-0.36,-0.56,0.05,0.41,
3.019,-1.66,-2.82,-0.36,-0.56,0.05,0.41,
3.02,-1.95,-2.35,-0.38,-0.56,0.05,0.41,
3.02,-1.95,-2.35,-0.38,-0.56,0.05,0.41,
3.028,-1.95,-2.35,-0.38,-0.85,-0.24,0.34,
3.029,-1.95,-2.35,-0.38,-0.85,-0.24,0.34,
3.03,-2.17,-2.00,-0.22,-0.85,-0.24,0.34,
3.03,-2.17,-2.00,-0.22,-0.85,-0.24,0.34,
3.038,-2.17,-2.00,-0.22,-1.10,-0.52,0.28,
3.039,-2.17,-2.00,-0.22,-1.10,-0.52,0.28,
3.04,-2.33,-1.76,0.22,-1.10,-0.52,0.28,
3.041,-2.33,-1.76,0.22,-1.10,-0.52,0.28,
3.047,-2.33,-1.76,0.22,-1.30,-0.77,0.24,
3.048,-2.33,-1.76,0.22,-1.30,-0.77,0.24,
3.049,-2.55,-1.58,0.59,-1.30,-0.77,0.24,
3.049,-2.55,-1.58,0.59,-1.30,-0.77,0.24,
3.056,-2.55,-1.58,0.59,-1.42,-0.96,0.23,
3.057,-2.55,-1.58,0.59,-1.42,-0.96,0.23,
3.058,-2.78,-1.23,0.66,-1.42,-0.96,0.23,
3.058,-2.78,-1.23,0.66,-1.42,-0.96,0.23,
3.066,-2.78,-1.23,0.66,-1.45,-1.06,0.24,
3.067,-2.78,-1.23,0.66,-1.45,-1.06,0.24,
3.068,-3.03,-0.68,0.41,-1.45,-1.06,0.24,
3.068,-3.03,-0.68,0.41,-1.45,-1.06,0.24,
3.076,-3.03,-0.68,0.41,-1.44,-1.12,0.30,
3.077,-3.03,-0.68,0.41,-1.44,-1.12,0.30,
3.077,-3.29,0.01,-0.07,-1.44,-1.12,0.30,
3.078,-3.29,0.01,-0.07,-1.44,-1.12,0.30,
3.085,-3.29,0.01,-0.07,-1.46,-1.19,0.37,
3.086,-3.29,0.01,-0.07,-1.46,-1.19,0.37,
3.087,-3.44,1.87,-0.40,-1.46,-1.19,0.37,
3.088,-3.44,1.87,-0.40,-1.46,-1.19,0.37,
3.095,-3.44,1.87,-0.40,-1.60,-1.30,0.39,
3.096,-3.44,1.87,-0.40,-1.60,-1.30,0.39,
3.096,-3.44,2.18,-0.33,-1.60,-1.30,0.39,
3.097,-3.44,2.18,-0.33,-1.60,-1.30,0.39,
3.104,-3.44,2.18,-0.33,-1.91,-1.48,0.30,
3.105,-3.44,2.18,-0.33,-1.91,-1.48,0.30,
3.106,-3.23,2.41,-0.06,-1.91,-1.48,0.30,
3.106,-3.23,2.41,-0.06,-1.91,-1.48,0.30,
3.114,-3.23,2.41,-0.06,-2.34,-1.66,0.08,
3.115,-3.23,2.41,-0.06,-2.34,-1.66,0.08,
3.115,-2.76,2.57,0.12,-2.34,-1.66,0.08,
3.116,-2.76,2.57,0.12,-2.34,-1.66,0.08,
3.124,-2.76,2.57,0.12,-2.74,-1.76,-0.20,
3.125,-2.76,2.57,0.12,-2.74,-1.76,-0.20,
3.126,-2.14,2.62,0.21,-2.74,-1.76,-0.20,
3.127,-2.14,2.62,0.21,-2.74,-1.76,-0.20,
3.133,-2.14,2.62,0.21,-2.97,-1.70,-0.47,
3.133,-2.14,2.62,0.21,-2.97,-1.70,-0.47,
3.134,-1.45,2.53,0.20,-2.97,-1.70,-0.47,
3.134,-1.45,2.53,0.20,-2.97,-1.70,-0.47,
3.142,-1.45,2.53,0.20,-2.99,-1.45,-0.71,
3.143,-1.45,2.53,0.20,-2.99,-1.45,-0.71,
3.144,-0.76,2.45,0.20,-2.99,-1.45,-0.71,
3.144,-0.76,2.45,0.20,-2.99,-1.45,-0.71,
3.152,-0.76,2.45,0.20,-2.82,-1.02,-0.92,
3.153,-0.76,2.45,0.20,-2.82,-1.02,-0.92,
3.153,-0.15,2.34,0.30,-2.82,-1.02,-0.92,
3.154,-0.15,2.34,0.30,-2.82,-1.02,-0.92,
3.162,-0.15,2.34,0.30,-2.53,-0.47,-1.08,
3.163,-0.15,2.34,0.30,-2.53,-0.47,-1.08,
3.164,0.35,2.20,0.40,-2.53,-0.47,-1.08,
3.164,0.35,2.20,0.40,-2.53,-0.47,-1.08,
3.171,0.35,2.20,0.40,-2.53,-0.47,-1.08,
3.172,0.35,2.20,0.40,-2.53,-0.47,-1.08,
3.172,0.35,2.20,0.40,-2.53,-0.47,-1.08,
3.173,0.35,2.20,0.40,-2.53,-0.47,-1.08,
3.18,0.35,2.20,0.40,-2.15,0.15,-1.16,
3.181,0.35,2.20,0.40,-2.15,0.15,-1.16,
3.182,1.16,1.91,0.31,-2.15,0.15,-1.16,
3.182,1.16,1.91,0.31,-2.15,0.15,-1.16,
3.19,1.16,1.91,0.31,-1.75,0.76,-1.15,
3.191,1.16,1.91,0.31,-1.75,0.76,-1.15,
3.192,1.50,1.86,0.24,-1.75,0.76,-1.15,
3.193,1.50,1.86,0.24,-1.75,0.76,-1.15,
3.2,1.50,1.86,0.24,-1.34,1.34,-1.05,
3.201,1.50,1.86,0.24,-1.34,1.34,-1.05,
3.202,1.77,1.83,0.21,-1.34,1.34,-1.05,
3.203,1.77,1.83,0.21,-1.34,1.34,-1.05,
3.209,1.77,1.83,0.21,-0.98,1.83,-0.90,
3.21,1.77,1.83,0.21,-0.98,1.83,-0.90,
3.211,1.96,1.85,0.24,-0.98,1.83,-0.90,
3.211,1.96,1.85,0.24,-0.98,1.83,-0.90,
3.219,1.96,1.85,0.24,-0.69,2.19,-0.72,
3.22,1.96,1.85,0.24,-0.69,2.19,-0.72,
3.22,2.05,1.90,0.34,-0.69,2.19,-0.72,
3.221,2.05,1.90,0.34,-0.69,2.19,-0.72,
3.228,2.05,1.90,0.34,-0.49,2.41,-0.53,
3.229,2.05,1.90,0.34,-0.49,2.41,-0.53,
3.23,2.11,1.98,0.44,-0.49,2.41,-0.53,
3.23,2.11,1.98,0.44,-0.49,2.41,-0.53,
3.238,2.11,1.98,0.44,-0.37,2.50,-0.37,
3.239,2.11,1.98,0.44,-0.37,2.50,-0.37,
3.24,2.13,2.05,0.53,-0.37,2.50,-0.37,
3.241,2.13,2.05,0.53,-0.37,2.50,-0.37,
3.247,2.13,2.05,0.53,-0.30,2.50,-0.25,
3.247,2.13,2.05,0.53,-0.30,2.50,-0.25,
3.248,2.13,2.13,0.60,-0.30,2.50,-0.25,
3.248,2.13,2.13,0.60,-0.30,2.50,-0.25,
3.256,2.13,2.13,0.60,-0.26,2.43,-0.18,
3.257,2.13,2.13,0.60,-0.26,2.43,-0.18,
3.258,2.09,2.15,0.69,-0.26,2.43,-0.18,
3.258,2.09,2.15,0.69,-0.26,2.43,-0.18,
3.266,2.09,2.15,0.69,-0.25,2.31,-0.15,
3.267,2.09,2.15,0.69,-0.25,2.31,-0.15,
3.268,1.96,2.13,0.81,-0.25,2.31,-0.15,
3.268,1.96,2.13,0.81,-0.25,2.31,-0.15,
3.276,1.96,2.13,0.81,-0.26,2.16,-0.13,
3.277,1.96,2.13,0.81,-0.26,2.16,-0.13,
3.277,1.81,2.09,0.93,-0.26,2.16,-0.13,
3.278,1.81,2.09,0.93,-0.26,2.16,-0.13,
3.285,1.81,2.09,0.93,-0.27,1.98,-0.11,
3.286,1.81,2.09,0.93,-0.27,1.98,-0.11,
3.286,1.64,1.99,1.08,-0.27,1.98,-0.11,
3.287,1.64,1.99,1.08,-0.27,1.98,-0.11,
3.295,1.64,1.99,1.08,-0.28,1.79,-0.07,
3.295,1.64,1.99,1.08,-0.28,1.79,-0.07,
3.296,1.48,1.87,1.24,-0.28,1.79,-0.07,
3.296,1.48,1.87,1.24,-0.28,1.79,-0.07,
3.304,1.48,1.87,1.24,-0.28,1.60,-0.03,
3.306,1.48,1.87,1.24,-0.28,1.60,-0.03,
3.307,1.38,1.73,1.33,-0.28,1.60,-0.03,
3.308,1.38,1.73,1.33,-0.28,1.60,-0.03,
3.314,1.38,1.73,1.33,-0.26,1.41,0.03,
3.314,1.38,1.73,1.33,-0.26,1.41,0.03,
3.314,1.30,1.59,1.38,-0.26,1.41,0.03,
3.315,1.30,1.59,1.38,-0.26,1.41,0.03,
3.324,1.30,1.59,1.38,-0.24,1.23,0.10,
3.324,1.30,1.59,1.38,-0.24,1.23,0.10,
3.325,1.21,1.45,1.33,-0.24,1.23,0.10,
3.325,1.21,1.45,1.33,-0.24,1.23,0.10,
3.335,1.21,1.45,1.33,-0.20,1.07,0.17,
3.338,1.21,1.45,1.33,-0.20,1.07,0.17,
3.339,1.15,1.31,1.13,-0.20,1.07,0.17,
3.339,1.15,1.31,1.13,-0.20,1.07,0.17,
3.342,1.15,1.31,1.13,-0.16,0.92,0.23,
3.343,1.15,1.31,1.13,-0.16,0.92,0.23,
3.344,1.12,1.14,0.93,-0.16,0.92,0.23,
3.345,1.12,1.14,0.93,-0.16,0.92,0.23,
3.352,1.12,1.14,0.93,-0.12,0.76,0.27,
3.352,1.12,1.14,0.93,-0.12,0.76,0.27,
3.353,1.10,0.93,0.73,-0.12,0.76,0.27,
3.353,1.10,0.93,0.73,-0.12,0.76,0.27,
3.362,1.10,0.93,0.73,-0.07,0.59,0.31,
3.362,1.10,0.93,0.73,-0.07,0.59,0.31,
3.363,1.09,0.68,0.44,-0.07,0.59,0.31,
3.363,1.09,0.68,0.44,-0.07,0.59,0.31,
3.371,1.09,0.68,0.44,-0.07,0.59,0.31,
3.373,1.09,0.68,0.44,-0.07,0.59,0.31,
3.374,1.09,0.68,0.44,-0.07,0.59,0.31,
3.374,1.09,0.68,0.44,-0.07,0.59,0.31,
3.38,1.09,0.68,0.44,-0.04,0.40,0.35,
3.381,1.09,0.68,0.44,-0.04,0.40,0.35,
3.381,1.21,0.26,0.04,-0.04,0.40,0.35,
3.382,1.21,0.26,0.04,-0.04,0.40,0.35,
3.39,1.21,0.26,0.04,-0.01,0.21,0.41,
3.39,1.21,0.26,0.04,-0.01,0.21,0.41,
3.391,1.18,0.09,-0.00,-0.01,0.21,0.41,
3.391,1.18,0.09,-0.00,-0.01,0.21,0.41,
3.399,1.18,0.09,-0.00,0.03,0.03,0.49,
3.4,1.18,0.09,-0.00,0.03,0.03,0.49,
3.4,1.10,-0.03,-0.00,0.03,0.03,0.49,
3.401,1.10,-0.03,-0.00,0.03,0.03,0.49,
3.409,1.10,-0.03,-0.00,0.07,-0.13,0.56,
3.409,1.10,-0.03,-0.00,0.07,-0.13,0.56,
3.41,0.94,-0.13,0.19,0.07,-0.13,0.56,
3.41,0.94,-0.13,0.19,0.07,-0.13,0.56,
3.431,0.94,-0.13,0.19,0.11,-0.25,0.62,
3.432,0.94,-0.13,0.19,0.11,-0.25,0.62,
3.433,0.72,-0.17,0.31,0.11,-0.25,0.62,
3.434,0.72,-0.17,0.31,0.11,-0.25,0.62,
3.434,0.72,-0.17,0.31,0.18,-0.34,0.66,
3.435,0.72,-0.17,0.31,0.18,-0.34,0.66,
3.436,0.43,-0.27,0.39,0.18,-0.34,0.66,
3.436,0.43,-0.27,0.39,0.18,-0.34,0.66,
3.444,0.43,-0.27,0.39,0.18,-0.34,0.66,
3.445,0.43,-0.27,0.39,0.18,-0.34,0.66,
3.445,0.43,-0.27,0.39,0.18,-0.34,0.66,
3.445,0.43,-0.27,0.39,0.18,-0.34,0.66,
3.447,0.43,-0.27,0.39,0.25,-0.37,0.60,
3.448,0.43,-0.27,0.39,0.25,-0.37,0.60,
3.448,0.07,-0.18,0.62,0.25,-0.37,0.60,
3.448,0.07,-0.18,0.62,0.25,-0.37,0.60,
3.457,0.07,-0.18,0.62,0.25,-0.37,0.60,
3.457,0.07,-0.18,0.62,0.25,-0.37,0.60,
3.458,0.07,-0.18,0.62,0.25,-0.37,0.60,
3.458,0.07,-0.18,0.62,0.25,-0.37,0.60,
3.466,0.07,-0.18,0.62,0.24,-0.37,0.44,
3.467,0.07,-0.18,0.62,0.24,-0.37,0.44,
3.467,-0.11,-0.13,0.32,0.24,-0.37,0.44,
3.468,-0.11,-0.13,0.32,0.24,-0.37,0.44,
3.475,-0.11,-0.13,0.32,0.18,-0.37,0.34,
3.476,-0.11,-0.13,0.32,0.18,-0.37,0.34,
3.477,-0.16,-0.19,0.10,0.18,-0.37,0.34,
3.478,-0.16,-0.19,0.10,0.18,-0.37,0.34,
3.485,-0.16,-0.19,0.10,0.11,-0.38,0.26,
3.486,-0.16,-0.19,0.10,0.11,-0.38,0.26,
3.487,-0.21,-0.27,-0.10,0.11,-0.38,0.26,
3.487,-0.21,-0.27,-0.10,0.11,-0.38,0.26,
3.495,-0.21,-0.27,-0.10,0.04,-0.40,0.20,
3.496,-0.21,-0.27,-0.10,0.04,-0.40,0.20,
3.496,-0.30,-0.35,-0.25,0.04,-0.40,0.20,
3.497,-0.30,-0.35,-0.25,0.04,-0.40,0.20,
3.504,-0.30,-0.35,-0.25,-0.02,-0.44,0.14,
3.505,-0.30,-0.35,-0.25,-0.02,-0.44,0.14,
3.506,-0.38,-0.45,-0.32,-0.02,-0.44,0.14,
3.506,-0.38,-0.45,-0.32,-0.02,-0.44,0.14,
3.514,-0.38,-0.45,-0.32,-0.06,-0.49,0.10,
3.515,-0.38,-0.45,-0.32,-0.06,-0.49,0.10,
3.516,-0.49,-0.51,-0.29,-0.06,-0.49,0.10,
3.516,-0.49,-0.51,-0.29,-0.06,-0.49,0.10,
3.526,-0.49,-0.51,-0.29,-0.06,-0.55,0.08,
3.527,-0.49,-0.51,-0.29,-0.06,-0.55,0.08,
3.527,-0.65,-0.52,-0.22,-0.06,-0.55,0.08,
3.527,-0.65,-0.52,-0.22,-0.06,-0.55,0.08,
3.535,-0.65,-0.52,-0.22,-0.04,-0.58,0.06,
3.536,-0.65,-0.52,-0.22,-0.04,-0.58,0.06,
3.536,-0.79,-0.51,-0.14,-0.04,-0.58,0.06,
3.536,-0.79,-0.51,-0.14,-0.04,-0.58,0.06,
3.542,-0.79,-0.51,-0.14,0.00,-0.60,0.06,
3.543,-0.79,-0.51,-0.14,0.00,-0.60,0.06,
3.543,-0.92,-0.48,-0.08,0.00,-0.60,0.06,
3.543,-0.92,-0.48,-0.08,0.00,-0.60,0.06,
3.551,-0.92,-0.48,-0.08,0.05,-0.61,0.06,
3.552,-0.92,-0.48,-0.08,0.05,-0.61,0.06,
3.553,-0.96,-0.45,-0.05,0.05,-0.61,0.06,
3.553,-0.96,-0.45,-0.05,0.05,-0.61,0.06,
3.562,-0.96,-0.45,-0.05,0.08,-0.59,0.06,
3.563,-0.96,-0.45,-0.05,0.08,-0.59,0.06,
3.564,-0.94,-0.44,-0.09,0.08,-0.59,0.06,
3.564,-0.94,-0.44,-0.09,0.08,-0.59,0.06,
3.572,-0.94,-0.44,-0.09,0.08,-0.59,0.06,
3.573,-0.94,-0.44,-0.09,0.08,-0.59,0.06,
3.574,-0.94,-0.44,-0.09,0.08,-0.59,0.06,
3.574,-0.94,-0.44,-0.09,0.08,-0.59,0.06,
3.58,-0.94,-0.44,-0.09,0.12,-0.56,0.06,
3.581,-0.94,-0.44,-0.09,0.12,-0.56,0.06,
3.581,-0.99,-0.33,-0.26,0.12,-0.56,0.06,
3.582,-0.99,-0.33,-0.26,0.12,-0.56,0.06,
3.59,-0.99,-0.33,-0.26,0.14,-0.53,0.04,
3.59,-0.99,-0.33,-0.26,0.14,-0.53,0.04,
3.591,-1.10,-0.22,-0.39,0.14,-0.53,0.04,
3.591,-1.10,-0.22,-0.39,0.14,-0.53,0.04,
3.599,-1.10,-0.22,-0.39,0.14,-0.50,0.01,
3.6,-1.10,-0.22,-0.39,0.14,-0.50,0.01,
3.601,-1.20,-0.13,-0.49,0.14,-0.50,0.01,
3.601,-1.20,-0.13,-0.49,0.14,-0.50,0.01,
3.609,-1.20,-0.13,-0.49,0.12,-0.50,-0.02,
3.61,-1.20,-0.13,-0.49,0.12,-0.50,-0.02,
3.61,-1.25,-0.07,-0.52,0.12,-0.50,-0.02,
3.611,-1.25,-0.07,-0.52,0.12,-0.50,-0.02,
3.618,-1.25,-0.07,-0.52,0.07,-0.52,-0.05,
3.619,-1.25,-0.07,-0.52,0.07,-0.52,-0.05,
3.62,-1.25,-0.07,-0.53,0.07,-0.52,-0.05,
3.62,-1.25,-0.07,-0.53,0.07,-0.52,-0.05,
3.628,-1.25,-0.07,-0.53,0.00,-0.55,-0.08,
3.629,-1.25,-0.07,-0.53,0.00,-0.55,-0.08,
3.629,-1.18,-0.08,-0.49,0.00,-0.55,-0.08,
3.63,-1.18,-0.08,-0.49,0.00,-0.55,-0.08,
3.638,-1.18,-0.08,-0.49,-0.05,-0.58,-0.10,
3.639,-1.18,-0.08,-0.49,-0.05,-0.58,-0.10,
3.64,-1.10,-0.08,-0.47,-0.05,-0.58,-0.10,
3.64,-1.10,-0.08,-0.47,-0.05,-0.58,-0.10,
3.647,-1.10,-0.08,-0.47,-0.08,-0.58,-0.11,
3.647,-1.10,-0.08,-0.47,-0.08,-0.58,-0.11,
3.648,-1.03,-0.09,-0.45,-0.08,-0.58,-0.11,
3.648,-1.03,-0.09,-0.45,-0.08,-0.58,-0.11,
3.656,-1.03,-0.09,-0.45,-0.09,-0.55,-0.12,
3.657,-1.03,-0.09,-0.45,-0.09,-0.55,-0.12,
3.657,-0.97,-0.10,-0.42,-0.09,-0.55,-0.12,
3.658,-0.97,-0.10,-0.42,-0.09,-0.55,-0.12,
3.665,-0.97,-0.10,-0.42,-0.08,-0.50,-0.12,
3.666,-0.97,-0.10,-0.42,-0.08,-0.50,-0.12,
3.666,-0.97,-0.09,-0.43,-0.08,-0.50,-0.12,
3.667,-0.97,-0.09,-0.43,-0.08,-0.50,-0.12,
3.675,-0.97,-0.09,-0.43,-0.06,-0.44,-0.11,
3.676,-0.97,-0.09,-0.43,-0.06,-0.44,-0.11,
3.677,-0.98,-0.12,-0.42,-0.06,-0.44,-0.11,
3.677,-0.98,-0.12,-0.42,-0.06,-0.44,-0.11,
3.685,-0.98,-0.12,-0.42,-0.04,-0.37,-0.10,
3.687,-0.98,-0.12,-0.42,-0.04,-0.37,-0.10,
3.688,-1.00,-0.09,-0.43,-0.04,-0.37,-0.10,
3.689,-1.00,-0.09,-0.43,-0.04,-0.37,-0.10,
3.695,-1.00,-0.09,-0.43,-0.02,-0.32,-0.07,
3.695,-1.00,-0.09,-0.43,-0.02,-0.32,-0.07,
3.696,-0.99,-0.07,-0.42,-0.02,-0.32,-0.07,
3.696,-0.99,-0.07,-0.42,-0.02,-0.32,-0.07,
3.704,-0.99,-0.07,-0.42,-0.02,-0.28,-0.03,
3.705,-0.99,-0.07,-0.42,-0.02,-0.28,-0.03,
3.705,-0.95,-0.06,-0.39,-0.02,-0.28,-0.03,
3.706,-0.95,-0.06,-0.39,-0.02,-0.28,-0.03,
3.714,-0.95,-0.06,-0.39,-0.02,-0.25,0.00,
3.715,-0.95,-0.06,-0.39,-0.02,-0.25,0.00,
3.715,-0.90,-0.04,-0.35,-0.02,-0.25,0.00,
3.716,-0.90,-0.04,-0.35,-0.02,-0.25,0.00,
3.723,-0.90,-0.04,-0.35,-0.00,-0.24,0.02,
3.724,-0.90,-0.04,-0.35,-0.00,-0.24,0.02,
3.725,-0.83,-0.02,-0.29,-0.00,-0.24,0.02,
3.726,-0.83,-0.02,-0.29,-0.00,-0.24,0.02,
3.733,-0.83,-0.02,-0.29,0.02,-0.23,0.00,
3.734,-0.83,-0.02,-0.29,0.02,-0.23,0.00,
3.735,-0.77,-0.01,-0.24,0.02,-0.23,0.00,
3.735,-0.77,-0.01,-0.24,0.02,-0.23,0.00,
3.742,-0.77,-0.01,-0.24,0.05,-0.21,-0.02,
3.743,-0.77,-0.01,-0.24,0.05,-0.21,-0.02,
3.743,-0.69,0.01,-0.22,0.05,-0.21,-0.02,
3.744,-0.69,0.01,-0.22,0.05,-0.21,-0.02,
3.752,-0.69,0.01,-0.22,0.08,-0.18,-0.05,
3.753,-0.69,0.01,-0.22,0.08,-0.18,-0.05,
3.754,-0.64,0.04,-0.22,0.08,-0.18,-0.05,
3.754,-0.64,0.04,-0.22,0.08,-0.18,-0.05,
3.762,-0.64,0.04,-0.22,0.09,-0.14,-0.07,
3.763,-0.64,0.04,-0.22,0.09,-0.14,-0.07,
3.763,-0.63,0.04,-0.21,0.09,-0.14,-0.07,
3.764,-0.63,0.04,-0.21,0.09,-0.14,-0.07,
3.771,-0.63,0.04,-0.21,0.09,-0.14,-0.07,
3.772,-0.63,0.04,-0.21,0.09,-0.14,-0.07,
3.773,-0.63,0.04,-0.21,0.09,-0.14,-0.07,
3.773,-0.63,0.04,-0.21,0.09,-0.14,-0.07,
3.78,-0.63,0.04,-0.21,0.10,-0.10,-0.08,
3.781,-0.63,0.04,-0.21,0.10,-0.10,-0.08,
3.782,-0.69,0.06,-0.15,0.10,-0.10,-0.08,
3.782,-0.69,0.06,-0.15,0.10,-0.10,-0.08,
3.79,-0.69,0.06,-0.15,0.10,-0.07,-0.09,
3.791,-0.69,0.06,-0.15,0.10,-0.07,-0.09,
3.792,-0.70,0.08,-0.09,0.10,-0.07,-0.09,
3.792,-0.70,0.08,-0.09,0.10,-0.07,-0.09,
3.799,-0.70,0.08,-0.09,0.08,-0.06,-0.08,
3.801,-0.70,0.08,-0.09,0.08,-0.06,-0.08,
3.801,-0.70,0.10,-0.05,0.08,-0.06,-0.08,
3.802,-0.70,0.10,-0.05,0.08,-0.06,-0.08,
3.81,-0.70,0.10,-0.05,0.07,-0.05,-0.07,
3.811,-0.70,0.10,-0.05,0.07,-0.05,-0.07,
3.812,-0.68,0.11,-0.03,0.07,-0.05,-0.07,
3.813,-0.68,0.11,-0.03,0.07,-0.05,-0.07,
3.819,-0.68,0.11,-0.03,0.05,-0.06,-0.04,
3.82,-0.68,0.11,-0.03,0.05,-0.06,-0.04,
3.821,-0.62,0.10,-0.00,0.05,-0.06,-0.04,
3.822,-0.62,0.10,-0.00,0.05,-0.06,-0.04,
3.828,-0.62,0.10,-0.00,0.03,-0.06,-0.02,
3.829,-0.62,0.10,-0.00,0.03,-0.06,-0.02,
3.83,-0.59,0.10,0.02,0.03,-0.06,-0.02,
3.831,-0.59,0.10,0.02,0.03,-0.06,-0.02,
3.841,-0.59,0.10,0.02,0.01,-0.06,-0.00,
3.842,-0.59,0.10,0.02,0.01,-0.06,-0.00,
3.842,-0.52,0.10,0.05,0.01,-0.06,-0.00,
3.843,-0.52,0.10,0.05,0.01,-0.06,-0.00,
3.847,-0.52,0.10,0.05,0.02,-0.05,-0.01,
3.848,-0.52,0.10,0.05,0.02,-0.05,-0.01,
3.848,-0.47,0.12,0.05,0.02,-0.05,-0.01,
3.848,-0.47,0.12,0.05,0.02,-0.05,-0.01,
3.857,-0.47,0.12,0.05,0.03,-0.05,-0.02,
3.857,-0.47,0.12,0.05,0.03,-0.05,-0.02,
3.858,-0.46,0.14,0.05,0.03,-0.05,-0.02,
3.858,-0.46,0.14,0.05,0.03,-0.05,-0.02,
3.866,-0.46,0.14,0.05,0.03,-0.05,-0.02,
3.867,-0.46,0.14,0.05,0.03,-0.05,-0.02,
3.867,-0.43,0.14,0.07,0.03,-0.05,-0.02,
3.867,-0.43,0.14,0.07,0.03,-0.05,-0.02,
3.876,-0.43,0.14,0.07,0.02,-0.04,-0.02,
3.876,-0.43,0.14,0.07,0.02,-0.04,-0.02,
3.876,-0.41,0.14,0.09,0.02,-0.04,-0.02,
3.877,-0.41,0.14,0.09,0.02,-0.04,-0.02,
3.885,-0.41,0.14,0.09,0.01,-0.03,-0.02,
3.886,-0.41,0.14,0.09,0.01,-0.03,-0.02,
3.886,-0.39,0.14,0.11,0.01,-0.03,-0.02,
3.886,-0.39,0.14,0.11,0.01,-0.03,-0.02,
3.895,-0.39,0.14,0.11,-0.00,-0.03,-0.01,
3.896,-0.39,0.14,0.11,-0.00,-0.03,-0.01,
3.896,-0.37,0.13,0.12,-0.00,-0.03,-0.01,
3.897,-0.37,0.13,0.12,-0.00,-0.03,-0.01,
3.904,-0.37,0.13,0.12,-0.01,-0.03,-0.01,
3.905,-0.37,0.13,0.12,-0.01,-0.03,-0.01,
3.906,-0.35,0.13,0.14,-0.01,-0.03,-0.01,
3.906,-0.35,0.13,0.14,-0.01,-0.03,-0.01,
3.914,-0.35,0.13,0.14,-0.01,-0.02,-0.01,
3.914,-0.35,0.13,0.14,-0.01,-0.02,-0.01,
3.915,-0.33,0.13,0.15,-0.01,-0.02,-0.01,
3.916,-0.33,0.13,0.15,-0.01,-0.02,-0.01,
3.923,-0.33,0.13,0.15,-0.01,-0.02,-0.01,
3.924,-0.33,0.13,0.15,-0.01,-0.02,-0.01,
3.925,-0.31,0.13,0.17,-0.01,-0.02,-0.01,
3.926,-0.31,0.13,0.17,-0.01,-0.02,-0.01,
3.934,-0.31,0.13,0.17,-0.00,-0.01,-0.01,
3.935,-0.31,0.13,0.17,-0.00,-0.01,-0.01,
3.936,-0.30,0.12,0.18,-0.00,-0.01,-0.01,
3.936,-0.30,0.12,0.18,-0.00,-0.01,-0.01,
3.942,-0.30,0.12,0.18,-0.00,-0.01,-0.01,
3.942,-0.30,0.12,0.18,-0.00,-0.01,-0.01,
3.943,-0.28,0.12,0.20,-0.00,-0.01,-0.01,
3.943,-0.28,0.12,0.20,-0.00,-0.01,-0.01,
3.951,-0.28,0.12,0.20,-0.00,-0.01,-0.01,
3.952,-0.28,0.12,0.20,-0.00,-0.01,-0.01,
3.953,-0.28,0.12,0.20,-0.00,-0.01,-0.01,
3.953,-0.28,0.12,0.20,-0.00,-0.01,-0.01,
3.961,-0.28,0.12,0.20,-0.00,-0.01,-0.00,
3.962,-0.28,0.12,0.20,-0.00,-0.01,-0.00,
3.963,-0.27,0.12,0.21,-0.00,-0.01,-0.00,
3.964,-0.27,0.12,0.21,-0.00,-0.01,-0.00,
3.971,-0.27,0.12,0.21,-0.00,-0.01,-0.00,
3.972,-0.27,0.12,0.21,-0.00,-0.01,-0.00,
3.973,-0.26,0.12,0.22,-0.00,-0.01,-0.00,
3.973,-0.26,0.12,0.22,-0.00,-0.01,-0.00,
3.98,-0.26,0.12,0.22,-0.00,-0.01,-0.00,
3.981,-0.26,0.12,0.22,-0.00,-0.01,-0.00,
3.982,-0.25,0.12,0.22,-0.00,-0.01,-0.00,
3.982,-0.25,0.12,0.22,-0.00,-0.01,-0.00,
3.99,-0.25,0.12,0.22,-0.00,-0.01,-0.00,
3.991,-0.25,0.12,0.22,-0.00,-0.01,-0.00,
3.992,-0.24,0.12,0.23,-0.00,-0.01,-0.00,
3.992,-0.24,0.12,0.23,-0.00,-0.01,-0.00,
3.999,-0.24,0.12,0.23,-0.00,-0.00,-0.00,
4.0,-0.24,0.12,0.23,-0.00,-0.00,-0.00,
4.001,-0.24,0.11,0.23,-0.00,-0.00,-0.00,
4.001,-0.24,0.11,0.23,-0.00,-0.00,-0.00,
4.009,-0.24,0.11,0.23,-0.00,-0.00,-0.00,
4.01,-0.24,0.11,0.23,-0.00,-0.00,-0.00,
4.011,-0.23,0.11,0.24,-0.00,-0.00,-0.00,
4.011,-0.23,0.11,0.24,-0.00,-0.00,-0.00,
4.019,-0.23,0.11,0.24,-0.00,-0.00,-0.00,
4.02,-0.23,0.11,0.24,-0.00,-0.00,-0.00,
4.021,-0.23,0.11,0.24,-0.00,-0.00,-0.00,
4.022,-0.23,0.11,0.24,-0.00,-0.00,-0.00,
4.028,-0.23,0.11,0.24,0.00,0.00,-0.00,
4.029,-0.23,0.11,0.24,0.00,0.00,-0.00,
4.029,-0.23,0.11,0.24,0.00,0.00,-0.00,
4.03,-0.23,0.11,0.24,0.00,0.00,-0.00,
4.038,-0.23,0.11,0.24,0.00,-0.00,-0.00,
4.039,-0.23,0.11,0.24,0.00,-0.00,-0.00,
4.039,-0.22,0.11,0.25,0.00,-0.00,-0.00,
4.04,-0.22,0.11,0.25,0.00,-0.00,-0.00,
4.047,-0.22,0.11,0.25,0.00,0.00,-0.00,
4.048,-0.22,0.11,0.25,0.00,0.00,-0.00,
4.049,-0.22,0.11,0.25,0.00,0.00,-0.00,
4.049,-0.22,0.11,0.25,0.00,0.00,-0.00,
4.057,-0.22,0.11,0.25,0.00,0.00,-0.00,
4.058,-0.22,0.11,0.25,0.00,0.00,-0.00,
4.058,-0.22,0.11,0.25,0.00,0.00,-0.00,
4.058,-0.22,0.11,0.25,0.00,0.00,-0.00,
4.067,-0.22,0.11,0.25,0.00,0.00,-0.00,
4.068,-0.22,0.11,0.25,0.00,0.00,-0.00,
4.069,-0.22,0.10,0.25,0.00,0.00,-0.00,
4.07,-0.22,0.10,0.25,0.00,0.00,-0.00,
4.075,-0.22,0.10,0.25,-0.00,0.00,0.00,
4.076,-0.22,0.10,0.25,-0.00,0.00,0.00,
4.077,-0.22,0.10,0.25,-0.00,0.00,0.00,
4.077,-0.22,0.10,0.25,-0.00,0.00,0.00,
4.085,-0.22,0.10,0.25,0.00,-0.00,-0.00,
4.086,-0.22,0.10,0.25,0.00,-0.00,-0.00,
4.086,-0.21,0.10,0.26,0.00,-0.00,-0.00,
4.087,-0.21,0.10,0.26,0.00,-0.00,-0.00,
4.095,-0.21,0.10,0.26,-0.00,-0.00,-0.00,
4.096,-0.21,0.10,0.26,-0.00,-0.00,-0.00,
4.096,-0.21,0.10,0.26,-0.00,-0.00,-0.00,
4.097,-0.21,0.10,0.26,-0.00,-0.00,-0.00,
4.104,-0.21,0.10,0.26,0.00,0.00,-0.00,
4.106,-0.21,0.10,0.26,0.00,0.00,-0.00,
4.106,-0.21,0.10,0.26,0.00,0.00,-0.00,
4.107,-0.21,0.10,0.26,0.00,0.00,-0.00,
4.113,-0.21,0.10,0.26,-0.00,0.00,-0.00,
4.114,-0.21,0.10,0.26,-0.00,0.00,-0.00,
4.115,-0.21,0.10,0.26,-0.00,0.00,-0.00,
4.116,-0.21,0.10,0.26,-0.00,0.00,-0.00,
4.123,-0.21,0.10,0.26,-0.00,-0.00,0.00,
4.124,-0.21,0.10,0.26,-0.00,-0.00,0.00,
4.125,-0.21,0.10,0.26,-0.00,-0.00,0.00,
4.125,-0.21,0.10,0.26,-0.00,-0.00,0.00,
4.138,-0.21,0.10,0.26,0.00,-0.00,0.00,
4.139,-0.21,0.10,0.26,0.00,-0.00,0.00,
4.139,-0.21,0.09,0.26,0.00,-0.00,0.00,
4.14,-0.21,0.09,0.26,0.00,-0.00,0.00,
4.142,-0.21,0.09,0.26,-0.00,-0.00,0.00,
4.143,-0.21,0.09,0.26,-0.00,-0.00,0.00,
4.144,-0.21,0.09,0.26,-0.00,-0.00,0.00,
4.144,-0.21,0.09,0.26,-0.00,-0.00,0.00,
4.152,-0.21,0.09,0.26,-0.00,0.00,-0.00,
4.153,-0.21,0.09,0.26,-0.00,0.00,-0.00,
4.153,-0.21,0.09,0.26,-0.00,0.00,-0.00,
4.153,-0.21,0.09,0.26,-0.00,0.00,-0.00,
4.161,-0.21,0.09,0.26,-0.00,0.00,-0.00,
4.162,-0.21,0.09,0.26,-0.00,0.00,-0.00,
4.163,-0.21,0.09,0.26,-0.00,0.00,-0.00,
4.164,-0.21,0.09,0.26,-0.00,0.00,-0.00,
4.17,-0.21,0.09,0.26,-0.00,0.00,0.00,
4.172,-0.21,0.09,0.26,-0.00,0.00,0.00,
4.172,-0.21,0.09,0.26,-0.00,0.00,0.00,
4.173,-0.21,0.09,0.26,-0.00,0.00,0.00,
4.18,-0.21,0.09,0.26,-0.00,0.00,0.00,
4.181,-0.21,0.09,0.26,-0.00,0.00,0.00,
4.182,-0.21,0.09,0.26,-0.00,0.00,0.00,
4.182,-0.21,0.09,0.26,-0.00,0.00,0.00,
4.193,-0.21,0.09,0.26,0.00,-0.00,-0.00,
4.194,-0.21,0.09,0.26,0.00,-0.00,-0.00,
4.195,-0.21,0.09,0.27,0.00,-0.00,-0.00,
4.195,-0.21,0.09,0.27,0.00,-0.00,-0.00,
4.199,-0.21,0.09,0.27,0.00,0.00,-0.00,
4.2,-0.21,0.09,0.27,0.00,0.00,-0.00,
4.201,-0.21,0.09,0.27,0.00,0.00,-0.00,
4.202,-0.21,0.09,0.27,0.00,0.00,-0.00,
4.209,-0.21,0.09,0.27,0.00,-0.00,-0.00,
4.21,-0.21,0.09,0.27,0.00,-0.00,-0.00,
4.21,-0.21,0.09,0.27,0.00,-0.00,-0.00,
4.211,-0.21,0.09,0.27,0.00,-0.00,-0.00,
4.218,-0.21,0.09,0.27,0.00,-0.00,-0.00,
4.219,-0.21,0.09,0.27,0.00,-0.00,-0.00,
4.22,-0.21,0.09,0.27,0.00,-0.00,-0.00,
4.22,-0.21,0.09,0.27,0.00,-0.00,-0.00,
4.228,-0.21,0.09,0.27,0.00,0.00,0.00,
4.229,-0.21,0.09,0.27,0.00,0.00,0.00,
4.229,-0.21,0.09,0.27,0.00,0.00,0.00,
4.229,-0.21,0.09,0.27,0.00,0.00,0.00,
4.237,-0.21,0.09,0.27,0.00,0.00,-0.00,
4.238,-0.21,0.09,0.27,0.00,0.00,-0.00,
4.239,-0.21,0.09,0.27,0.00,0.00,-0.00,
4.239,-0.21,0.09,0.27,0.00,0.00,-0.00,
4.247,-0.21,0.09,0.27,-0.00,-0.00,-0.00,
4.247,-0.21,0.09,0.27,-0.00,-0.00,-0.00,
4.248,-0.21,0.08,0.27,-0.00,-0.00,-0.00,
4.248,-0.21,0.08,0.27,-0.00,-0.00,-0.00,
4.256,-0.21,0.08,0.27,0.00,-0.00,0.00,
4.257,-0.21,0.08,0.27,0.00,-0.00,0.00,
4.258,-0.21,0.08,0.27,0.00,-0.00,0.00,
4.258,-0.21,0.08,0.27,0.00,-0.00,0.00,
4.267,-0.21,0.08,0.27,-0.00,-0.00,0.00,
4.268,-0.21,0.08,0.27,-0.00,-0.00,0.00,
4.269,-0.21,0.08,0.27,-0.00,-0.00,0.00,
4.27,-0.21,0.08,0.27,-0.00,-0.00,0.00,
4.275,-0.21,0.08,0.27,0.00,0.00,0.00,
4.276,-0.21,0.08,0.27,0.00,0.00,0.00,
4.277,-0.21,0.08,0.27,0.00,0.00,0.00,
4.278,-0.21,0.08,0.27,0.00,0.00,0.00,
4.288,-0.21,0.08,0.27,0.00,-0.00,0.00,
4.29,-0.21,0.08,0.27,0.00,-0.00,0.00,
4.291,-0.21,0.08,0.27,0.00,-0.00,0.00,
4.292,-0.21,0.08,0.27,0.00,-0.00,0.00,
4.295,-0.21,0.08,0.27,0.00,0.00,-0.00,
4.295,-0.21,0.08,0.27,0.00,0.00,-0.00,
4.296,-0.21,0.08,0.27,0.00,0.00,-0.00,
4.296,-0.21,0.08,0.27,0.00,0.00,-0.00,
4.304,-0.21,0.08,0.27,-0.00,-0.00,-0.00,
4.305,-0.21,0.08,0.27,-0.00,-0.00,-0.00,
4.305,-0.21,0.08,0.27,-0.00,-0.00,-0.00,
4.305,-0.21,0.08,0.27,-0.00,-0.00,-0.00,
4.313,-0.21,0.08,0.27,-0.00,-0.00,-0.00,
4.314,-0.21,0.08,0.27,-0.00,-0.00,-0.00,
4.314,-0.21,0.08,0.27,-0.00,-0.00,-0.00,
4.315,-0.21,0.08,0.27,-0.00,-0.00,-0.00,
4.323,-0.21,0.08,0.27,-0.00,-0.00,0.00,
4.323,-0.21,0.08,0.27,-0.00,-0.00,0.00,
4.324,-0.21,0.08,0.27,-0.00,-0.00,0.00,
4.324,-0.21,0.08,0.27,-0.00,-0.00,0.00,
4.335,-0.21,0.08,0.27,-0.00,0.00,0.00,
4.336,-0.21,0.08,0.27,-0.00,0.00,0.00,
4.336,-0.21,0.08,0.27,-0.00,0.00,0.00,
4.336,-0.21,0.08,0.27,-0.00,0.00,0.00,
4.342,-0.21,0.08,0.27,0.00,0.00,-0.00,
4.342,-0.21,0.08,0.27,0.00,0.00,-0.00,
4.343,-0.21,0.08,0.27,0.00,0.00,-0.00,
4.343,-0.21,0.08,0.27,0.00,0.00,-0.00,
4.352,-0.21,0.08,0.27,0.00,0.00,-0.00,
4.353,-0.21,0.08,0.27,0.00,0.00,-0.00,
4.353,-0.21,0.08,0.27,0.00,0.00,-0.00,
4.354,-0.21,0.08,0.27,0.00,0.00,-0.00,
4.361,-0.21,0.08,0.27,0.00,0.00,-0.00,
4.362,-0.21,0.08,0.27,0.00,0.00,-0.00,
4.362,-0.21,0.08,0.27,0.00,0.00,-0.00,
4.363,-0.21,0.08,0.27,0.00,0.00,-0.00,
4.371,-0.21,0.08,0.27,-0.00,-0.00,0.00,
4.372,-0.21,0.08,0.27,-0.00,-0.00,0.00,
4.372,-0.21,0.08,0.27,-0.00,-0.00,0.00,
4.373,-0.21,0.08,0.27,-0.00,-0.00,0.00,
4.38,-0.21,0.08,0.27,0.00,-0.00,0.00,
4.381,-0.21,0.08,0.27,0.00,-0.00,0.00,
4.382,-0.21,0.08,0.27,0.00,-0.00,0.00,
4.382,-0.21,0.08,0.27,0.00,-0.00,0.00,
4.39,-0.21,0.08,0.27,0.00,0.00,-0.00,
4.391,-0.21,0.08,0.27,0.00,0.00,-0.00,
4.392,-0.21,0.08,0.27,0.00,0.00,-0.00,
4.392,-0.21,0.08,0.27,0.00,0.00,-0.00,
4.399,-0.21,0.08,0.27,0.00,-0.00,-0.00,
4.401,-0.21,0.08,0.27,0.00,-0.00,-0.00,
4.401,-0.21,0.08,0.27,0.00,-0.00,-0.00,
4.402,-0.21,0.08,0.27,0.00,-0.00,-0.00,
4.408,-0.21,0.08,0.27,0.00,-0.00,0.00,
4.409,-0.21,0.08,0.27,0.00,-0.00,0.00,
4.41,-0.21,0.08,0.27,0.00,-0.00,0.00,
4.41,-0.21,0.08,0.27,0.00,-0.00,0.00,
4.436,-0.21,0.08,0.27,-0.00,-0.00,0.00,
4.438,-0.21,0.08,0.27,-0.00,-0.00,0.00,
4.438,-0.21,0.08,0.27,-0.00,-0.00,0.00,
4.439,-0.21,0.08,0.27,-0.00,-0.00,0.00,
4.439,-0.21,0.08,0.27,-0.00,-0.00,0.00,
4.44,-0.21,0.08,0.27,-0.00,-0.00,0.00,
4.44,-0.21,0.08,0.27,-0.00,-0.00,0.00,
4.441,-0.21,0.08,0.27,-0.00,-0.00,0.00,
4.442,-0.21,0.08,0.27,0.00,-0.00,0.00,
4.442,-0.21,0.08,0.27,0.00,-0.00,0.00,
4.443,-0.21,0.08,0.27,0.00,-0.00,0.00,
4.443,-0.21,0.08,0.27,0.00,-0.00,0.00,
4.447,-0.21,0.08,0.27,0.00,0.00,0.00,
4.448,-0.21,0.08,0.27,0.00,0.00,0.00,
4.448,-0.21,0.08,0.27,0.00,0.00,0.00,
4.448,-0.21,0.08,0.27,0.00,0.00,0.00,
4.456,-0.21,0.08,0.27,-0.00,-0.00,0.00,
4.457,-0.21,0.08,0.27,-0.00,-0.00,0.00,
4.458,-0.21,0.08,0.27,-0.00,-0.00,0.00,
4.458,-0.21,0.08,0.27,-0.00,-0.00,0.00,
4.466,-0.21,0.08,0.27,-0.00,-0.00,0.00,
4.467,-0.21,0.08,0.27,-0.00,-0.00,0.00,
4.467,-0.21,0.08,0.27,-0.00,-0.00,0.00,
4.468,-0.21,0.08,0.27,-0.00,-0.00,0.00,
4.475,-0.21,0.08,0.27,0.00,-0.00,-0.00,
4.476,-0.21,0.08,0.27,0.00,-0.00,-0.00,
4.476,-0.21,0.08,0.27,0.00,-0.00,-0.00,
4.477,-0.21,0.08,0.27,0.00,-0.00,-0.00,
4.485,-0.21,0.08,0.27,0.00,0.00,-0.00,
4.486,-0.21,0.08,0.27,0.00,0.00,-0.00,
4.487,-0.21,0.08,0.27,0.00,0.00,-0.00,
4.487,-0.21,0.08,0.27,0.00,0.00,-0.00,
4.495,-0.21,0.08,0.27,-0.00,-0.00,-0.00,
4.496,-0.21,0.08,0.27,-0.00,-0.00,-0.00,
4.496,-0.21,0.08,0.27,-0.00,-0.00,-0.00,
4.497,-0.21,0.08,0.27,-0.00,-0.00,-0.00,
4.504,-0.21,0.08,0.27,0.00,0.00,-0.00,
4.505,-0.21,0.08,0.27,0.00,0.00,-0.00,
4.506,-0.21,0.08,0.27,0.00,0.00,-0.00,
4.507,-0.21,0.08,0.27,0.00,0.00,-0.00,
4.513,-0.21,0.08,0.27,0.00,0.00,-0.00,
4.514,-0.21,0.08,0.27,0.00,0.00,-0.00,
4.515,-0.21,0.08,0.27,0.00,0.00,-0.00,
4.515,-0.21,0.08,0.27,0.00,0.00,-0.00,
4.523,-0.21,0.08,0.27,0.00,0.00,0.00,
4.524,-0.21,0.08,0.27,0.00,0.00,0.00,
4.525,-0.21,0.08,0.27,0.00,0.00,0.00,
4.525,-0.21,0.08,0.27,0.00,0.00,0.00,
4.533,-0.21,0.08,0.27,0.00,0.00,0.00,
4.534,-0.21,0.08,0.27,0.00,0.00,0.00,
4.534,-0.21,0.08,0.27,0.00,0.00,0.00,
4.535,-0.21,0.08,0.27,0.00,0.00,0.00,
4.542,-0.21,0.08,0.27,0.00,0.00,-0.00,
4.543,-0.21,0.08,0.27,0.00,0.00,-0.00,
4.544,-0.21,0.08,0.27,0.00,0.00,-0.00,
4.544,-0.21,0.08,0.27,0.00,0.00,-0.00,
4.554,-0.21,0.08,0.27,-0.00,-0.00,0.00,
4.555,-0.21,0.08,0.27,-0.00,-0.00,0.00,
4.556,-0.21,0.08,0.27,-0.00,-0.00,0.00,
4.557,-0.21,0.08,0.27,-0.00,-0.00,0.00,
4.561,-0.21,0.08,0.27,-0.00,-0.00,0.00,
4.562,-0.21,0.08,0.27,-0.00,-0.00,0.00,
4.563,-0.21,0.08,0.27,-0.00,-0.00,0.00,
4.564,-0.21,0.08,0.27,-0.00,-0.00,0.00,
4.571,-0.21,0.08,0.27,0.00,0.00,-0.00,
4.572,-0.21,0.08,0.27,0.00,0.00,-0.00,
4.572,-0.21,0.08,0.27,0.00,0.00,-0.00,
4.573,-0.21,0.08,0.27,0.00,0.00,-0.00,
4.58,-0.21,0.08,0.27,-0.00,0.00,0.00,
4.581,-0.21,0.08,0.27,-0.00,0.00,0.00,
4.581,-0.21,0.08,0.27,-0.00,0.00,0.00,
4.582,-0.21,0.08,0.27,-0.00,0.00,0.00,
4.59,-0.21,0.08,0.27,-0.00,0.00,0.00,
4.591,-0.21,0.08,0.27,-0.00,0.00,0.00,
4.592,-0.21,0.08,0.27,-0.00,0.00,0.00,
4.592,-0.21,0.08,0.27,-0.00,0.00,0.00,
4.599,-0.21,0.08,0.27,0.00,-0.00,-0.00,
4.6,-0.21,0.08,0.27,0.00,-0.00,-0.00,
4.601,-0.21,0.08,0.27,0.00,-0.00,-0.00,
4.601,-0.21,0.08,0.27,0.00,-0.00,-0.00,
4.609,-0.21,0.08,0.27,-0.00,-0.00,-0.00,
4.609,-0.21,0.08,0.27,-0.00,-0.00,-0.00,
4.61,-0.21,0.08,0.27,-0.00,-0.00,-0.00,
4.611,-0.21,0.08,0.27,-0.00,-0.00,-0.00,
4.618,-0.21,0.08,0.27,-0.00,-0.00,-0.00,
4.619,-0.21,0.08,0.27,-0.00,-0.00,-0.00,
4.619,-0.21,0.08,0.27,-0.00,-0.00,-0.00,
4.62,-0.21,0.08,0.27,-0.00,-0.00,-0.00,
4.627,-0.21,0.08,0.27,0.00,-0.00,0.00,
4.628,-0.21,0.08,0.27,0.00,-0.00,0.00,
4.629,-0.21,0.08,0.27,0.00,-0.00,0.00,
4.629,-0.21,0.08,0.27,0.00,-0.00,0.00,
4.637,-0.21,0.08,0.27,0.00,0.00,0.00,
4.638,-0.21,0.08,0.27,0.00,0.00,0.00,
4.638,-0.21,0.08,0.27,0.00,0.00,0.00,
4.639,-0.21,0.08,0.27,0.00,0.00,0.00,
4.65,-0.21,0.08,0.27,-0.00,0.00,-0.00,
4.651,-0.21,0.08,0.27,-0.00,0.00,-0.00,
4.652,-0.21,0.08,0.27,-0.00,0.00,-0.00,
4.653,-0.21,0.08,0.27,-0.00,0.00,-0.00,
4.656,-0.21,0.08,0.27,0.00,-0.00,0.00,
4.656,-0.21,0.08,0.27,0.00,-0.00,0.00,
4.657,-0.21,0.08,0.27,0.00,-0.00,0.00,
4.657,-0.21,0.08,0.27,0.00,-0.00,0.00,
4.666,-0.21,0.08,0.27,-0.00,0.00,0.00,
4.668,-0.21,0.08,0.27,-0.00,0.00,0.00,
4.668,-0.21,0.08,0.27,-0.00,0.00,0.00,
4.669,-0.21,0.08,0.27,-0.00,0.00,0.00,
4.675,-0.21,0.08,0.27,0.00,-0.00,0.00,
4.676,-0.21,0.08,0.27,0.00,-0.00,0.00,
4.676,-0.21,0.08,0.27,0.00,-0.00,0.00,
4.677,-0.21,0.08,0.27,0.00,-0.00,0.00,
4.685,-0.21,0.08,0.27,-0.00,0.00,-0.00,
4.686,-0.21,0.08,0.27,-0.00,0.00,-0.00,
4.687,-0.21,0.08,0.27,-0.00,0.00,-0.00,
4.687,-0.21,0.08,0.27,-0.00,0.00,-0.00,
4.694,-0.21,0.08,0.27,0.00,0.00,-0.00,
4.695,-0.21,0.08,0.27,0.00,0.00,-0.00,
4.695,-0.21,0.08,0.27,0.00,0.00,-0.00,
4.696,-0.21,0.08,0.27,0.00,0.00,-0.00,
4.704,-0.21,0.08,0.27,0.00,0.00,0.00,
4.705,-0.21,0.08,0.27,0.00,0.00,0.00,
4.706,-0.21,0.08,0.27,0.00,0.00,0.00,
4.706,-0.21,0.08,0.27,0.00,0.00,0.00,
4.713,-0.21,0.08,0.27,0.00,0.00,0.00,
4.714,-0.21,0.08,0.27,0.00,0.00,0.00,
4.715,-0.21,0.08,0.27,0.00,0.00,0.00,
4.715,-0.21,0.08,0.27,0.00,0.00,0.00,
4.723,-0.21,0.08,0.27,0.00,-0.00,-0.00,
4.724,-0.21,0.08,0.27,0.00,-0.00,-0.00,
4.724,-0.21,0.08,0.27,0.00,-0.00,-0.00,
4.725,-0.21,0.08,0.27,0.00,-0.00,-0.00,
4.738,-0.21,0.08,0.27,-0.00,-0.00,0.00,
4.739,-0.21,0.08,0.27,-0.00,-0.00,0.00,
4.74,-0.21,0.08,0.27,-0.00,-0.00,0.00,
4.74,-0.21,0.08,0.27,-0.00,-0.00,0.00,
4.742,-0.21,0.08,0.27,-0.00,0.00,-0.00,
4.743,-0.21,0.08,0.27,-0.00,0.00,-0.00,
4.743,-0.21,0.08,0.27,-0.00,0.00,-0.00,
4.744,-0.21,0.08,0.27,-0.00,0.00,-0.00,
4.751,-0.21,0.08,0.27,-0.00,0.00,-0.00,
4.752,-0.21,0.08,0.27,-0.00,0.00,-0.00,
4.753,-0.21,0.08,0.27,-0.00,0.00,-0.00,
4.753,-0.21,0.08,0.27,-0.00,0.00,-0.00,
4.761,-0.21,0.08,0.27,-0.00,-0.00,-0.00,
4.762,-0.21,0.08,0.27,-0.00,-0.00,-0.00,
4.763,-0.21,0.08,0.27,-0.00,-0.00,-0.00,
4.764,-0.21,0.08,0.27,-0.00,-0.00,-0.00,
4.771,-0.21,0.08,0.27,0.00,0.00,-0.00,
4.772,-0.21,0.08,0.27,0.00,0.00,-0.00,
4.773,-0.21,0.08,0.27,0.00,0.00,-0.00,
4.773,-0.21,0.08,0.27,0.00,0.00,-0.00,
4.78,-0.21,0.08,0.27,-0.00,0.00,0.00,
4.781,-0.21,0.08,0.27,-0.00,0.00,0.00,
4.782,-0.21,0.08,0.27,-0.00,0.00,0.00,
4.783,-0.21,0.08,0.27,-0.00,0.00,0.00,
4.789,-0.21,0.08,0.27,0.00,-0.00,-0.00,
4.79,-0.21,0.08,0.27,0.00,-0.00,-0.00,
4.791,-0.21,0.08,0.27,0.00,-0.00,-0.00,
4.791,-0.21,0.08,0.27,0.00,-0.00,-0.00,
4.799,-0.21,0.08,0.27,-0.00,0.00,0.00,
4.8,-0.21,0.08,0.27,-0.00,0.00,0.00,
4.8,-0.21,0.08,0.27,-0.00,0.00,0.00,
4.801,-0.21,0.08,0.27,-0.00,0.00,0.00,
4.808,-0.21,0.08,0.27,0.00,0.00,0.00,
4.81,-0.21,0.08,0.27,0.00,0.00,0.00,
4.81,-0.21,0.08,0.27,0.00,0.00,0.00,
4.811,-0.21,0.08,0.27,0.00,0.00,0.00,
4.818,-0.21,0.08,0.27,0.00,0.00,-0.00,
4.819,-0.21,0.08,0.27,0.00,0.00,-0.00,
4.82,-0.21,0.08,0.27,0.00,0.00,-0.00,
4.821,-0.21,0.08,0.27,0.00,0.00,-0.00,
4.827,-0.21,0.08,0.27,0.00,-0.00,-0.00,
4.828,-0.21,0.08,0.27,0.00,-0.00,-0.00,
4.829,-0.21,0.08,0.27,0.00,-0.00,-0.00,
4.829,-0.21,0.08,0.27,0.00,-0.00,-0.00,
4.837,-0.21,0.08,0.27,-0.00,-0.00,-0.00,
4.838,-0.21,0.08,0.27,-0.00,-0.00,-0.00,
4.838,-0.21,0.08,0.27,-0.00,-0.00,-0.00,
4.839,-0.21,0.08,0.27,-0.00,-0.00,-0.00,
4.848,-0.21,0.08,0.27,0.00,-0.00,-0.00,
4.849,-0.21,0.08,0.27,0.00,-0.00,-0.00,
4.849,-0.21,0.08,0.27,0.00,-0.00,-0.00,
4.85,-0.21,0.08,0.27,0.00,-0.00,-0.00,
4.856,-0.21,0.08,0.27,-0.00,-0.00,0.00,
4.857,-0.21,0.08,0.27,-0.00,-0.00,0.00,
4.858,-0.21,0.08,0.27,-0.00,-0.00,0.00,
4.858,-0.21,0.08,0.27,-0.00,-0.00,0.00,
4.865,-0.21,0.08,0.27,0.00,-0.00,-0.00,
4.866,-0.21,0.08,0.27,0.00,-0.00,-0.00,
4.867,-0.21,0.08,0.27,0.00,-0.00,-0.00,
4.867,-0.21,0.08,0.27,0.00,-0.00,-0.00,
4.875,-0.21,0.08,0.27,-0.00,-0.00,0.00,
4.876,-0.21,0.08,0.27,-0.00,-0.00,0.00,
4.876,-0.21,0.08,0.27,-0.00,-0.00,0.00,
4.877,-0.21,0.08,0.27,-0.00,-0.00,0.00,
4.885,-0.21,0.08,0.27,0.00,0.00,0.00,
4.886,-0.21,0.08,0.27,0.00,0.00,0.00,
4.886,-0.21,0.08,0.27,0.00,0.00,0.00,
4.887,-0.21,0.08,0.27,0.00,0.00,0.00,
4.895,-0.21,0.08,0.27,-0.00,-0.00,-0.00,
4.895,-0.21,0.08,0.27,-0.00,-0.00,-0.00,
4.896,-0.21,0.08,0.27,-0.00,-0.00,-0.00,
4.897,-0.21,0.08,0.27,-0.00,-0.00,-0.00,
4.904,-0.21,0.08,0.27,-0.00,-0.00,0.00,
4.905,-0.21,0.08,0.27,-0.00,-0.00,0.00,
4.905,-0.21,0.08,0.27,-0.00,-0.00,0.00,
4.906,-0.21,0.08,0.27,-0.00,-0.00,0.00,
4.913,-0.21,0.08,0.27,-0.00,-0.00,0.00,
4.914,-0.21,0.08,0.27,-0.00,-0.00,0.00,
4.915,-0.21,0.08,0.27,-0.00,-0.00,0.00,
4.915,-0.21,0.08,0.27,-0.00,-0.00,0.00,
4.923,-0.21,0.08,0.27,0.00,0.00,-0.00,
4.924,-0.21,0.08,0.27,0.00,0.00,-0.00,
4.924,-0.21,0.08,0.27,0.00,0.00,-0.00,
4.925,-0.21,0.08,0.27,0.00,0.00,-0.00,
4.937,-0.21,0.08,0.27,-0.00,-0.00,-0.00,
4.939,-0.21,0.08,0.27,-0.00,-0.00,-0.00,
4.939,-0.21,0.08,0.27,-0.00,-0.00,-0.00,
4.94,-0.21,0.08,0.27,-0.00,-0.00,-0.00,
4.942,-0.21,0.08,0.27,-0.00,-0.00,0.00,
4.943,-0.21,0.08,0.27,-0.00,-0.00,0.00,
4.944,-0.21,0.08,0.27,-0.00,-0.00,0.00,
4.944,-0.21,0.08,0.27,-0.00,-0.00,0.00,
4.951,-0.21,0.08,0.27,-0.00,-0.00,0.00,
4.953,-0.21,0.08,0.27,-0.00,-0.00,0.00,
4.953,-0.21,0.08,0.27,-0.00,-0.00,0.00,
4.953,-0.21,0.08,0.27,-0.00,-0.00,0.00,
4.961,-0.21,0.08,0.27,0.00,-0.00,-0.00,
4.962,-0.21,0.08,0.27,0.00,-0.00,-0.00,
4.962,-0.21,0.08,0.27,0.00,-0.00,-0.00,
4.963,-0.21,0.08,0.27,0.00,-0.00,-0.00,
4.97,-0.21,0.08,0.27,-0.00,-0.00,0.00,
4.972,-0.21,0.08,0.27,-0.00,-0.00,0.00,
4.972,-0.21,0.08,0.27,-0.00,-0.00,0.00,
4.973,-0.21,0.08,0.27,-0.00,-0.00,0.00,
4.981,-0.21,0.08,0.27,-0.00,0.00,-0.00,
4.982,-0.21,0.08,0.27,-0.00,0.00,-0.00,
4.983,-0.21,0.08,0.27,-0.00,0.00,-0.00,
4.983,-0.21,0.08,0.27,-0.00,0.00,-0.00,
4.989,-0.21,0.08,0.27,0.00,0.00,-0.00,
4.99,-0.21,0.08,0.27,0.00,0.00,-0.00,
4.991,-0.21,0.08,0.27,0.00,0.00,-0.00,
4.992,-0.21,0.08,0.27,0.00,0.00,-0.00,
4.999,-0.21,0.08,0.27,0.00,-0.00,-0.00,
5.0,-0.21,0.08,0.27,0.00,-0.00,-0.00,
5.0,-0.21,0.08,0.27,0.00,-0.00,-0.00,
5.001,-0.21,0.08,0.27,0.00,-0.00,-0.00,
5.008,-0.21,0.08,0.27,0.00,-0.00,0.00,
5.009,-0.21,0.08,0.27,0.00,-0.00,0.00,
5.01,-0.21,0.08,0.27,0.00,-0.00,0.00,
5.01,-0.21,0.08,0.27,0.00,-0.00,0.00,
5.018,-0.21,0.08,0.27,0.00,-0.00,0.00,
5.019,-0.21,0.08,0.27,0.00,-0.00,0.00,
5.019,-0.21,0.08,0.27,0.00,-0.00,0.00,
5.02,-0.21,0.08,0.27,0.00,-0.00,0.00,
5.027,-0.21,0.08,0.27,-0.00,-0.00,0.00,
5.028,-0.21,0.08,0.27,-0.00,-0.00,0.00,
5.029,-0.21,0.08,0.27,-0.00,-0.00,0.00,
5.029,-0.21,0.08,0.27,-0.00,-0.00,0.00,
5.037,-0.21,0.08,0.27,-0.00,-0.00,-0.00,
5.038,-0.21,0.08,0.27,-0.00,-0.00,-0.00,
5.039,-0.21,0.08,0.27,-0.00,-0.00,-0.00,
5.039,-0.21,0.08,0.27,-0.00,-0.00,-0.00,
5.046,-0.21,0.08,0.27,-0.00,0.00,0.00,
5.047,-0.21,0.08,0.27,-0.00,0.00,0.00,
5.047,-0.21,0.08,0.27,-0.00,0.00,0.00,
5.047,-0.21,0.08,0.27,-0.00,0.00,0.00,
5.056,-0.21,0.08,0.27,-0.00,0.00,0.00,
5.057,-0.21,0.08,0.27,-0.00,0.00,0.00,
5.057,-0.21,0.08,0.27,-0.00,0.00,0.00,
5.058,-0.21,0.08,0.27,-0.00,0.00,0.00,
5.065,-0.21,0.08,0.27,-0.00,-0.00,-0.00,
5.066,-0.21,0.08,0.27,-0.00,-0.00,-0.00,
5.067,-0.21,0.08,0.27,-0.00,-0.00,-0.00,
5.067,-0.21,0.08,0.27,-0.00,-0.00,-0.00,
5.075,-0.21,0.08,0.27,-0.00,0.00,0.00,
5.076,-0.21,0.08,0.27,-0.00,0.00,0.00,
5.076,-0.21,0.08,0.27,-0.00,0.00,0.00,
5.077,-0.21,0.08,0.27,-0.00,0.00,0.00,
5.084,-0.21,0.08,0.27,0.00,0.00,-0.00,
5.086,-0.21,0.08,0.27,0.00,0.00,-0.00,
5.086,-0.21,0.08,0.27,0.00,0.00,-0.00,
5.087,-0.21,0.08,0.27,0.00,0.00,-0.00,
5.094,-0.21,0.08,0.27,0.00,-0.00,0.00,
5.095,-0.21,0.08,0.27,0.00,-0.00,0.00,
5.095,-0.21,0.08,0.27,0.00,-0.00,0.00,
5.096,-0.21,0.08,0.27,0.00,-0.00,0.00,
5.104,-0.21,0.08,0.27,0.00,0.00,0.00,
5.105,-0.21,0.08,0.27,0.00,0.00,0.00,
5.106,-0.21,0.08,0.27,0.00,0.00,0.00,
5.106,-0.21,0.08,0.27,0.00,0.00,0.00,
5.113,-0.21,0.08,0.27,0.00,0.00,-0.00,
5.114,-0.21,0.08,0.27,0.00,0.00,-0.00,
5.115,-0.21,0.08,0.27,0.00,0.00,-0.00,
5.115,-0.21,0.08,0.27,0.00,0.00,-0.00,
5.123,-0.21,0.08,0.27,0.00,-0.00,-0.00,
5.124,-0.21,0.08,0.27,0.00,-0.00,-0.00,
5.125,-0.19,-0.09,0.14,0.00,-0.00,-0.00,
5.125,-0.19,-0.09,0.14,0.00,-0.00,-0.00,
5.136,-0.19,-0.09,0.14,-0.00,-0.00,0.00,
5.137,-0.19,-0.09,0.14,-0.00,-0.00,0.00,
5.137,-0.17,-0.18,0.15,-0.00,-0.00,0.00,
5.138,-0.17,-0.18,0.15,-0.00,-0.00,0.00,
5.142,-0.17,-0.18,0.15,-0.00,-0.00,0.00,
5.143,-0.17,-0.18,0.15,-0.00,-0.00,0.00,
5.144,-0.10,-0.30,0.14,-0.00,-0.00,0.00,
5.144,-0.10,-0.30,0.14,-0.00,-0.00,0.00,
5.151,-0.10,-0.30,0.14,-0.00,-0.00,0.00,
5.152,-0.10,-0.30,0.14,-0.00,-0.00,0.00,
5.152,-0.10,-0.30,0.14,-0.00,-0.00,0.00,
5.153,-0.10,-0.30,0.14,-0.00,-0.00,0.00,
5.161,-0.10,-0.30,0.14,-0.00,0.00,0.00,
5.161,-0.10,-0.30,0.14,-0.00,0.00,0.00,
5.162,0.02,-0.56,0.18,-0.00,0.00,0.00,
5.163,0.02,-0.56,0.18,-0.00,0.00,0.00,
5.17,0.02,-0.56,0.18,-0.00,-0.00,0.00,
5.171,0.02,-0.56,0.18,-0.00,-0.00,0.00,
5.172,0.08,-0.62,0.18,-0.00,-0.00,0.00,
5.172,0.08,-0.62,0.18,-0.00,-0.00,0.00,
5.179,0.08,-0.62,0.18,0.00,-0.00,-0.00,
5.18,0.08,-0.62,0.18,0.00,-0.00,-0.00,
5.181,0.13,-0.65,0.22,0.00,-0.00,-0.00,
5.181,0.13,-0.65,0.22,0.00,-0.00,-0.00,
5.189,0.13,-0.65,0.22,-0.00,0.00,-0.00,
5.19,0.13,-0.65,0.22,-0.00,0.00,-0.00,
5.191,0.20,-0.67,0.27,-0.00,0.00,-0.00,
5.191,0.20,-0.67,0.27,-0.00,0.00,-0.00,
5.199,0.20,-0.67,0.27,-0.00,-0.00,-0.00,
5.2,0.20,-0.67,0.27,-0.00,-0.00,-0.00,
5.2,0.25,-0.65,0.32,-0.00,-0.00,-0.00,
5.201,0.25,-0.65,0.32,-0.00,-0.00,-0.00,
5.208,0.25,-0.65,0.32,-0.00,0.00,-0.00,
5.209,0.25,-0.65,0.32,-0.00,0.00,-0.00,
5.209,0.21,-0.60,0.35,-0.00,0.00,-0.00,
5.21,0.21,-0.60,0.35,-0.00,0.00,-0.00,
5.218,0.21,-0.60,0.35,0.39,0.20,0.28,
5.218,0.21,-0.60,0.35,0.39,0.20,0.28,
5.219,0.12,-0.48,0.33,0.39,0.20,0.28,
5.22,0.12,-0.48,0.33,0.39,0.20,0.28,
5.227,0.12,-0.48,0.33,0.38,0.25,0.28,
5.228,0.12,-0.48,0.33,0.38,0.25,0.28,
5.229,0.01,-0.30,0.24,0.38,0.25,0.28,
5.229,0.01,-0.30,0.24,0.38,0.25,0.28,
5.237,0.01,-0.30,0.24,0.34,0.26,0.26,
5.238,0.01,-0.30,0.24,0.34,0.26,0.26,
5.239,-0.08,-0.11,0.19,0.34,0.26,0.26,
5.239,-0.08,-0.11,0.19,0.34,0.26,0.26,
5.247,-0.08,-0.11,0.19,0.27,0.24,0.22,
5.248,-0.08,-0.11,0.19,0.27,0.24,0.22,
5.249,-0.11,0.04,0.19,0.27,0.24,0.22,
5.25,-0.11,0.04,0.19,0.27,0.24,0.22,
5.256,-0.11,0.04,0.19,0.17,0.18,0.15,
5.256,-0.11,0.04,0.19,0.17,0.18,0.15,
5.257,-0.08,0.19,0.27,0.17,0.18,0.15,
5.257,-0.08,0.19,0.27,0.17,0.18,0.15,
5.265,-0.08,0.19,0.27,0.06,0.11,0.06,
5.265,-0.08,0.19,0.27,0.06,0.11,0.06,
5.266,-0.05,0.33,0.45,0.06,0.11,0.06,
5.266,-0.05,0.33,0.45,0.06,0.11,0.06,
5.274,-0.05,0.33,0.45,-0.05,0.05,-0.04,
5.275,-0.05,0.33,0.45,-0.05,0.05,-0.04,
5.276,-0.01,0.46,0.60,-0.05,0.05,-0.04,
5.276,-0.01,0.46,0.60,-0.05,0.05,-0.04,
5.284,-0.01,0.46,0.60,-0.15,0.03,-0.15,
5.285,-0.01,0.46,0.60,-0.15,0.03,-0.15,
5.285,0.01,0.61,0.70,-0.15,0.03,-0.15,
5.286,0.01,0.61,0.70,-0.15,0.03,-0.15,
5.294,0.01,0.61,0.70,-0.24,0.04,-0.26,
5.294,0.01,0.61,0.70,-0.24,0.04,-0.26,
5.295,-0.03,0.77,0.74,-0.24,0.04,-0.26,
5.296,-0.03,0.77,0.74,-0.24,0.04,-0.26,
5.303,-0.03,0.77,0.74,-0.31,0.09,-0.35,
5.304,-0.03,0.77,0.74,-0.31,0.09,-0.35,
5.305,-0.11,0.92,0.74,-0.31,0.09,-0.35,
5.305,-0.11,0.92,0.74,-0.31,0.09,-0.35,
5.314,-0.11,0.92,0.74,-0.39,0.14,-0.44,
5.316,-0.11,0.92,0.74,-0.39,0.14,-0.44,
5.316,-0.19,1.07,0.71,-0.39,0.14,-0.44,
5.317,-0.19,1.07,0.71,-0.39,0.14,-0.44,
5.322,-0.19,1.07,0.71,-0.45,0.17,-0.53,
5.323,-0.19,1.07,0.71,-0.45,0.17,-0.53,
5.324,-0.28,1.17,0.66,-0.45,0.17,-0.53,
5.324,-0.28,1.17,0.66,-0.45,0.17,-0.53,
5.332,-0.28,1.17,0.66,-0.51,0.16,-0.62,
5.333,-0.28,1.17,0.66,-0.51,0.16,-0.62,
5.333,-0.31,1.20,0.58,-0.51,0.16,-0.62,
5.334,-0.31,1.20,0.58,-0.51,0.16,-0.62,
5.342,-0.31,1.20,0.58,-0.56,0.12,-0.70,
5.343,-0.31,1.20,0.58,-0.56,0.12,-0.70,
5.344,-0.29,1.18,0.47,-0.56,0.12,-0.70,
5.344,-0.29,1.18,0.47,-0.56,0.12,-0.70,
5.353,-0.29,1.18,0.47,-0.56,0.12,-0.70,
5.354,-0.29,1.18,0.47,-0.56,0.12,-0.70,
5.355,-0.29,1.18,0.47,-0.56,0.12,-0.70,
5.355,-0.29,1.18,0.47,-0.56,0.12,-0.70,
5.362,-0.29,1.18,0.47,-0.62,0.00,-0.76,
5.363,-0.29,1.18,0.47,-0.62,0.00,-0.76,
5.363,-0.14,1.11,0.38,-0.62,0.00,-0.76,
5.364,-0.14,1.11,0.38,-0.62,0.00,-0.76,
5.37,-0.14,1.11,0.38,-0.62,0.00,-0.76,
5.371,-0.14,1.11,0.38,-0.62,0.00,-0.76,
5.372,-0.14,1.11,0.38,-0.62,0.00,-0.76,
5.372,-0.14,1.11,0.38,-0.62,0.00,-0.76,
5.382,-0.14,1.11,0.38,-0.62,-0.05,-0.75,
5.383,-0.14,1.11,0.38,-0.62,-0.05,-0.75,
5.384,-0.02,1.01,0.41,-0.62,-0.05,-0.75,
5.384,-0.02,1.01,0.41,-0.62,-0.05,-0.75,
5.39,-0.02,1.01,0.41,-0.58,-0.09,-0.71,
5.391,-0.02,1.01,0.41,-0.58,-0.09,-0.71,
5.391,-0.01,0.94,0.45,-0.58,-0.09,-0.71,
5.392,-0.01,0.94,0.45,-0.58,-0.09,-0.71,
5.399,-0.01,0.94,0.45,-0.50,-0.09,-0.68,
5.4,-0.01,0.94,0.45,-0.50,-0.09,-0.68,
5.401,-0.02,0.86,0.46,-0.50,-0.09,-0.68,
5.402,-0.02,0.86,0.46,-0.50,-0.09,-0.68,
5.408,-0.02,0.86,0.46,-0.41,-0.07,-0.63,
5.409,-0.02,0.86,0.46,-0.41,-0.07,-0.63,
5.41,-0.07,0.80,0.46,-0.41,-0.07,-0.63,
5.41,-0.07,0.80,0.46,-0.41,-0.07,-0.63,
5.436,-0.07,0.80,0.46,-0.30,-0.04,-0.57,
5.438,-0.07,0.80,0.46,-0.30,-0.04,-0.57,
5.438,-0.09,0.74,0.45,-0.30,-0.04,-0.57,
5.439,-0.09,0.74,0.45,-0.30,-0.04,-0.57,
5.44,-0.09,0.74,0.45,-0.11,-0.00,-0.40,
5.44,-0.09,0.74,0.45,-0.11,-0.00,-0.40,
5.441,-0.08,0.69,0.41,-0.11,-0.00,-0.40,
5.441,-0.08,0.69,0.41,-0.11,-0.00,-0.40,
5.442,-0.08,0.69,0.41,-0.11,-0.00,-0.40,
5.442,-0.08,0.69,0.41,-0.11,-0.00,-0.40,
5.443,-0.08,0.69,0.41,-0.11,-0.00,-0.40,
5.444,-0.08,0.69,0.41,-0.11,-0.00,-0.40,
5.451,-0.08,0.69,0.41,-0.03,0.00,-0.32,
5.452,-0.08,0.69,0.41,-0.03,0.00,-0.32,
5.453,-0.02,0.64,0.41,-0.03,0.00,-0.32,
5.453,-0.02,0.64,0.41,-0.03,0.00,-0.32,
5.457,-0.02,0.64,0.41,0.02,0.00,-0.25,
5.457,-0.02,0.64,0.41,0.02,0.00,-0.25,
5.458,-0.04,0.60,0.40,0.02,0.00,-0.25,
5.458,-0.04,0.60,0.40,0.02,0.00,-0.25,
5.465,-0.04,0.60,0.40,0.07,0.01,-0.20,
5.466,-0.04,0.60,0.40,0.07,0.01,-0.20,
5.467,-0.05,0.52,0.36,0.07,0.01,-0.20,
5.467,-0.05,0.52,0.36,0.07,0.01,-0.20,
5.475,-0.05,0.52,0.36,0.11,0.01,-0.16,
5.475,-0.05,0.52,0.36,0.11,0.01,-0.16,
5.476,-0.04,0.44,0.31,0.11,0.01,-0.16,
5.477,-0.04,0.44,0.31,0.11,0.01,-0.16,
5.484,-0.04,0.44,0.31,0.14,0.02,-0.13,
5.485,-0.04,0.44,0.31,0.14,0.02,-0.13,
5.486,-0.02,0.33,0.26,0.14,0.02,-0.13,
5.487,-0.02,0.33,0.26,0.14,0.02,-0.13,
5.494,-0.02,0.33,0.26,0.18,0.01,-0.10,
5.495,-0.02,0.33,0.26,0.18,0.01,-0.10,
5.496,0.01,0.21,0.25,0.18,0.01,-0.10,
5.496,0.01,0.21,0.25,0.18,0.01,-0.10,
5.504,0.01,0.21,0.25,0.20,0.01,-0.05,
5.506,0.01,0.21,0.25,0.20,0.01,-0.05,
5.507,0.01,0.10,0.27,0.20,0.01,-0.05,
5.508,0.01,0.10,0.27,0.20,0.01,-0.05,
5.513,0.01,0.10,0.27,0.23,0.00,0.01,
5.513,0.01,0.10,0.27,0.23,0.00,0.01,
5.514,-0.02,-0.02,0.29,0.23,0.00,0.01,
5.515,-0.02,-0.02,0.29,0.23,0.00,0.01,
5.523,-0.02,-0.02,0.29,0.26,0.01,0.07,
5.524,-0.02,-0.02,0.29,0.26,0.01,0.07,
5.524,-0.01,-0.16,0.32,0.26,0.01,0.07,
5.525,-0.01,-0.16,0.32,0.26,0.01,0.07,
5.537,-0.01,-0.16,0.32,0.30,0.01,0.12,
5.538,-0.01,-0.16,0.32,0.30,0.01,0.12,
5.538,0.00,-0.29,0.35,0.30,0.01,0.12,
5.539,0.00,-0.29,0.35,0.30,0.01,0.12,
5.544,0.00,-0.29,0.35,0.35,0.02,0.18,
5.546,0.00,-0.29,0.35,0.35,0.02,0.18,
5.547,0.04,-0.41,0.38,0.35,0.02,0.18,
5.548,0.04,-0.41,0.38,0.35,0.02,0.18,
5.552,0.04,-0.41,0.38,0.40,0.04,0.23,
5.553,0.04,-0.41,0.38,0.40,0.04,0.23,
5.553,0.07,-0.54,0.42,0.40,0.04,0.23,
5.554,0.07,-0.54,0.42,0.40,0.04,0.23,
5.561,0.07,-0.54,0.42,0.40,0.04,0.23,
5.562,0.07,-0.54,0.42,0.40,0.04,0.23,
5.562,0.07,-0.54,0.42,0.40,0.04,0.23,
5.563,0.07,-0.54,0.42,0.40,0.04,0.23,
5.571,0.07,-0.54,0.42,0.45,0.07,0.29,
5.572,0.07,-0.54,0.42,0.45,0.07,0.29,
5.573,0.06,-0.67,0.46,0.45,0.07,0.29,
5.573,0.06,-0.67,0.46,0.45,0.07,0.29,
5.579,0.06,-0.67,0.46,0.49,0.10,0.34,
5.58,0.06,-0.67,0.46,0.49,0.10,0.34,
5.58,0.02,-0.70,0.46,0.49,0.10,0.34,
5.581,0.02,-0.70,0.46,0.49,0.10,0.34,
5.589,0.02,-0.70,0.46,0.53,0.13,0.39,
5.591,0.02,-0.70,0.46,0.53,0.13,0.39,
5.592,0.00,-0.70,0.43,0.53,0.13,0.39,
5.592,0.00,-0.70,0.43,0.53,0.13,0.39,
5.598,0.00,-0.70,0.43,0.55,0.16,0.42,
5.599,0.00,-0.70,0.43,0.55,0.16,0.42,
5.6,-0.00,-0.67,0.38,0.55,0.16,0.42,
5.6,-0.00,-0.67,0.38,0.55,0.16,0.42,
5.608,-0.00,-0.67,0.38,0.56,0.17,0.43,
5.609,-0.00,-0.67,0.38,0.56,0.17,0.43,
5.61,-0.00,-0.63,0.32,0.56,0.17,0.43,
5.61,-0.00,-0.63,0.32,0.56,0.17,0.43,
5.617,-0.00,-0.63,0.32,0.54,0.16,0.42,
5.619,-0.00,-0.63,0.32,0.54,0.16,0.42,
5.62,0.02,-0.62,0.29,0.54,0.16,0.42,
5.621,0.02,-0.62,0.29,0.54,0.16,0.42,
5.627,0.02,-0.62,0.29,0.51,0.14,0.37,
5.628,0.02,-0.62,0.29,0.51,0.14,0.37,
5.629,0.03,-0.60,0.31,0.51,0.14,0.37,
5.63,0.03,-0.60,0.31,0.51,0.14,0.37,
5.641,0.03,-0.60,0.31,0.46,0.11,0.31,
5.642,0.03,-0.60,0.31,0.46,0.11,0.31,
5.642,0.06,-0.58,0.32,0.46,0.11,0.31,
5.643,0.06,-0.58,0.32,0.46,0.11,0.31,
5.646,0.06,-0.58,0.32,0.40,0.09,0.24,
5.647,0.06,-0.58,0.32,0.40,0.09,0.24,
5.647,0.07,-0.59,0.34,0.40,0.09,0.24,
5.647,0.07,-0.59,0.34,0.40,0.09,0.24,
5.662,0.07,-0.59,0.34,0.35,0.07,0.16,
5.663,0.07,-0.59,0.34,0.35,0.07,0.16,
5.663,0.04,-0.58,0.32,0.35,0.07,0.16,
5.664,0.04,-0.58,0.32,0.35,0.07,0.16,
5.665,0.04,-0.58,0.32,0.32,0.06,0.08,
5.666,0.04,-0.58,0.32,0.32,0.06,0.08,
5.666,-0.01,-0.53,0.28,0.32,0.06,0.08,
5.666,-0.01,-0.53,0.28,0.32,0.06,0.08,
5.675,-0.01,-0.53,0.28,0.29,0.05,0.01,
5.676,-0.01,-0.53,0.28,0.29,0.05,0.01,
5.676,-0.08,-0.48,0.26,0.29,0.05,0.01,
5.677,-0.08,-0.48,0.26,0.29,0.05,0.01,
5.684,-0.08,-0.48,0.26,0.26,0.03,-0.05,
5.685,-0.08,-0.48,0.26,0.26,0.03,-0.05,
5.686,-0.16,-0.41,0.21,0.26,0.03,-0.05,
5.686,-0.16,-0.41,0.21,0.26,0.03,-0.05,
5.694,-0.16,-0.41,0.21,0.22,0.00,-0.10,
5.695,-0.16,-0.41,0.21,0.22,0.00,-0.10,
5.695,-0.19,-0.35,0.18,0.22,0.00,-0.10,
5.696,-0.19,-0.35,0.18,0.22,0.00,-0.10,
5.704,-0.19,-0.35,0.18,0.18,-0.04,-0.14,
5.705,-0.19,-0.35,0.18,0.18,-0.04,-0.14,
5.706,-0.23,-0.32,0.16,0.18,-0.04,-0.14,
5.706,-0.23,-0.32,0.16,0.18,-0.04,-0.14,
5.713,-0.23,-0.32,0.16,0.13,-0.09,-0.18,
5.714,-0.23,-0.32,0.16,0.13,-0.09,-0.18,
5.715,-0.28,-0.31,0.14,0.13,-0.09,-0.18,
5.716,-0.28,-0.31,0.14,0.13,-0.09,-0.18,
5.722,-0.28,-0.31,0.14,0.08,-0.14,-0.21,
5.723,-0.28,-0.31,0.14,0.08,-0.14,-0.21,
5.724,-0.27,-0.30,0.09,0.08,-0.14,-0.21,
5.724,-0.27,-0.30,0.09,0.08,-0.14,-0.21,
5.738,-0.27,-0.30,0.09,0.04,-0.18,-0.23,
5.739,-0.27,-0.30,0.09,0.04,-0.18,-0.23,
5.739,-0.25,-0.28,0.04,0.04,-0.18,-0.23,
5.74,-0.25,-0.28,0.04,0.04,-0.18,-0.23,
5.742,-0.25,-0.28,0.04,0.00,-0.21,-0.23,
5.742,-0.25,-0.28,0.04,0.00,-0.21,-0.23,
5.743,-0.21,-0.25,0.01,0.00,-0.21,-0.23,
5.744,-0.21,-0.25,0.01,0.00,-0.21,-0.23,
5.751,-0.21,-0.25,0.01,0.00,-0.21,-0.23,
5.752,-0.21,-0.25,0.01,0.00,-0.21,-0.23,
5.752,-0.21,-0.25,0.01,0.00,-0.21,-0.23,
5.752,-0.21,-0.25,0.01,0.00,-0.21,-0.23,
5.76,-0.21,-0.25,0.01,-0.03,-0.23,-0.22,
5.761,-0.21,-0.25,0.01,-0.03,-0.23,-0.22,
5.762,-0.06,-0.17,-0.00,-0.03,-0.23,-0.22,
5.762,-0.06,-0.17,-0.00,-0.03,-0.23,-0.22,
5.771,-0.06,-0.17,-0.00,-0.04,-0.24,-0.21,
5.772,-0.06,-0.17,-0.00,-0.04,-0.24,-0.21,
5.772,-0.01,-0.13,0.04,-0.04,-0.24,-0.21,
5.773,-0.01,-0.13,0.04,-0.04,-0.24,-0.21,
5.782,-0.01,-0.13,0.04,-0.05,-0.23,-0.22,
5.783,-0.01,-0.13,0.04,-0.05,-0.23,-0.22,
5.784,0.05,-0.10,0.07,-0.05,-0.23,-0.22,
5.785,0.05,-0.10,0.07,-0.05,-0.23,-0.22,
5.788,0.05,-0.10,0.07,-0.06,-0.19,-0.23,
5.79,0.05,-0.10,0.07,-0.06,-0.19,-0.23,
5.791,0.13,-0.07,0.04,-0.06,-0.19,-0.23,
5.792,0.13,-0.07,0.04,-0.06,-0.19,-0.23,
5.799,0.13,-0.07,0.04,-0.06,-0.14,-0.25,
5.8,0.13,-0.07,0.04,-0.06,-0.14,-0.25,
5.801,0.28,-0.09,-0.13,-0.06,-0.14,-0.25,
5.802,0.28,-0.09,-0.13,-0.06,-0.14,-0.25,
5.808,0.28,-0.09,-0.13,-0.05,-0.07,-0.28,
5.809,0.28,-0.09,-0.13,-0.05,-0.07,-0.28,
5.81,0.51,-0.11,-0.40,-0.05,-0.07,-0.28,
5.811,0.51,-0.11,-0.40,-0.05,-0.07,-0.28,
5.818,0.51,-0.11,-0.40,-0.04,-0.02,-0.30,
5.819,0.51,-0.11,-0.40,-0.04,-0.02,-0.30,
5.82,0.79,-0.12,-0.65,-0.04,-0.02,-0.30,
5.821,0.79,-0.12,-0.65,-0.04,-0.02,-0.30,
5.827,0.79,-0.12,-0.65,-0.02,0.02,-0.33,
5.828,0.79,-0.12,-0.65,-0.02,0.02,-0.33,
5.829,1.01,-0.08,-0.88,-0.02,0.02,-0.33,
5.829,1.01,-0.08,-0.88,-0.02,0.02,-0.33,
5.837,1.01,-0.08,-0.88,0.01,0.05,-0.36,
5.838,1.01,-0.08,-0.88,0.01,0.05,-0.36,
5.839,1.07,0.13,-1.03,0.01,0.05,-0.36,
5.839,1.07,0.13,-1.03,0.01,0.05,-0.36,
5.849,1.07,0.13,-1.03,0.01,0.07,-0.40,
5.85,1.07,0.13,-1.03,0.01,0.07,-0.40,
5.85,0.93,0.54,-1.05,0.01,0.07,-0.40,
5.851,0.93,0.54,-1.05,0.01,0.07,-0.40,
5.855,0.93,0.54,-1.05,-0.01,0.07,-0.44,
5.856,0.93,0.54,-1.05,-0.01,0.07,-0.44,
5.856,0.64,1.15,-0.98,-0.01,0.07,-0.44,
5.857,0.64,1.15,-0.98,-0.01,0.07,-0.44,
5.865,0.64,1.15,-0.98,-0.08,0.06,-0.50,
5.867,0.64,1.15,-0.98,-0.08,0.06,-0.50,
5.868,0.31,2.69,-0.75,-0.08,0.06,-0.50,
5.868,0.31,2.69,-0.75,-0.08,0.06,-0.50,
5.875,0.31,2.69,-0.75,-0.23,0.01,-0.63,
5.876,0.31,2.69,-0.75,-0.23,0.01,-0.63,
5.876,-0.06,2.98,-0.39,-0.23,0.01,-0.63,
5.877,-0.06,2.98,-0.39,-0.23,0.01,-0.63,
5.884,-0.06,2.98,-0.39,-0.45,-0.07,-0.88,
5.885,-0.06,2.98,-0.39,-0.45,-0.07,-0.88,
5.886,-0.37,3.18,-0.17,-0.45,-0.07,-0.88,
5.887,-0.37,3.18,-0.17,-0.45,-0.07,-0.88,
5.894,-0.37,3.18,-0.17,-0.71,-0.17,-1.23,
5.895,-0.37,3.18,-0.17,-0.71,-0.17,-1.23,
5.896,-0.56,3.12,-0.12,-0.71,-0.17,-1.23,
5.897,-0.56,3.12,-0.12,-0.71,-0.17,-1.23,
5.905,-0.56,3.12,-0.12,-0.93,-0.26,-1.62,
5.907,-0.56,3.12,-0.12,-0.93,-0.26,-1.62,
5.908,-0.61,2.73,-0.11,-0.93,-0.26,-1.62,
5.908,-0.61,2.73,-0.11,-0.93,-0.26,-1.62,
5.912,-0.61,2.73,-0.11,-1.05,-0.35,-1.92,
5.913,-0.61,2.73,-0.11,-1.05,-0.35,-1.92,
5.913,-0.53,2.13,-0.10,-1.05,-0.35,-1.92,
5.914,-0.53,2.13,-0.10,-1.05,-0.35,-1.92,
5.922,-0.53,2.13,-0.10,-1.06,-0.41,-2.05,
5.923,-0.53,2.13,-0.10,-1.06,-0.41,-2.05,
5.924,-0.43,0.72,-0.06,-1.06,-0.41,-2.05,
5.924,-0.43,0.72,-0.06,-1.06,-0.41,-2.05,
5.932,-0.43,0.72,-0.06,-0.94,-0.44,-1.96,
5.934,-0.43,0.72,-0.06,-0.94,-0.44,-1.96,
5.935,-0.36,0.50,-0.17,-0.94,-0.44,-1.96,
5.935,-0.36,0.50,-0.17,-0.94,-0.44,-1.96,
5.941,-0.36,0.50,-0.17,-0.94,-0.44,-1.96,
5.942,-0.36,0.50,-0.17,-0.94,-0.44,-1.96,
5.943,-0.36,0.50,-0.17,-0.94,-0.44,-1.96,
5.943,-0.36,0.50,-0.17,-0.94,-0.44,-1.96,
5.957,-0.36,0.50,-0.17,-0.69,-0.44,-1.60,
5.958,-0.36,0.50,-0.17,-0.69,-0.44,-1.60,
5.958,-0.48,0.28,-0.85,-0.69,-0.44,-1.60,
5.959,-0.48,0.28,-0.85,-0.69,-0.44,-1.60,
5.961,-0.48,0.28,-0.85,-0.35,-0.43,-1.08,
5.962,-0.48,0.28,-0.85,-0.35,-0.43,-1.08,
5.962,-0.64,0.27,-1.05,-0.35,-0.43,-1.08,
5.963,-0.64,0.27,-1.05,-0.35,-0.43,-1.08,
5.97,-0.64,0.27,-1.05,0.01,-0.45,-0.52,
5.971,-0.64,0.27,-1.05,0.01,-0.45,-0.52,
5.971,-0.95,0.14,-0.88,0.01,-0.45,-0.52,
5.971,-0.95,0.14,-0.88,0.01,-0.45,-0.52,
5.981,-0.95,0.14,-0.88,0.30,-0.52,-0.05,
5.982,-0.95,0.14,-0.88,0.30,-0.52,-0.05,
5.982,-1.32,-0.12,-0.64,0.30,-0.52,-0.05,
5.983,-1.32,-0.12,-0.64,0.30,-0.52,-0.05,
5.989,-1.32,-0.12,-0.64,0.49,-0.63,0.31,
5.99,-1.32,-0.12,-0.64,0.49,-0.63,0.31,
5.99,-1.59,-0.45,-0.58,0.49,-0.63,0.31,
5.991,-1.59,-0.45,-0.58,0.49,-0.63,0.31,
5.998,-1.59,-0.45,-0.58,0.63,-0.76,0.60,
5.999,-1.59,-0.45,-0.58,0.63,-0.76,0.60,
6.0,-1.75,-0.78,-0.69,0.63,-0.76,0.60,
6.0,-1.75,-0.78,-0.69,0.63,-0.76,0.60,
6.008,-1.75,-0.78,-0.69,0.76,-0.89,0.86,
6.009,-1.75,-0.78,-0.69,0.76,-0.89,0.86,
6.009,-1.71,-1.12,-0.90,0.76,-0.89,0.86,
6.01,-1.71,-1.12,-0.90,0.76,-0.89,0.86,
6.017,-1.71,-1.12,-0.90,0.88,-1.00,1.11,
6.018,-1.71,-1.12,-0.90,0.88,-1.00,1.11,
6.019,-1.53,-1.47,-1.08,0.88,-1.00,1.11,
6.019,-1.53,-1.47,-1.08,0.88,-1.00,1.11,
6.028,-1.53,-1.47,-1.08,0.99,-1.07,1.36,
6.029,-1.53,-1.47,-1.08,0.99,-1.07,1.36,
6.029,-1.37,-1.90,-1.07,0.99,-1.07,1.36,
6.03,-1.37,-1.90,-1.07,0.99,-1.07,1.36,
6.038,-1.37,-1.90,-1.07,1.08,-1.09,1.59,
6.039,-1.37,-1.90,-1.07,1.08,-1.09,1.59,
6.04,-1.23,-2.41,-0.99,1.08,-1.09,1.59,
6.04,-1.23,-2.41,-0.99,1.08,-1.09,1.59,
6.049,-1.23,-2.41,-0.99,1.17,-1.04,1.81,
6.05,-1.23,-2.41,-0.99,1.17,-1.04,1.81,
6.051,-1.10,-2.91,-0.93,1.17,-1.04,1.81,
6.051,-1.10,-2.91,-0.93,1.17,-1.04,1.81,
6.055,-1.10,-2.91,-0.93,1.28,-0.91,1.99,
6.056,-1.10,-2.91,-0.93,1.28,-0.91,1.99,
6.056,-1.00,-3.36,-0.82,1.28,-0.91,1.99,
6.057,-1.00,-3.36,-0.82,1.28,-0.91,1.99,
6.065,-1.00,-3.36,-0.82,1.41,-0.73,2.13,
6.066,-1.00,-3.36,-0.82,1.41,-0.73,2.13,
6.066,-0.83,-3.76,-0.71,1.41,-0.73,2.13,
6.066,-0.83,-3.76,-0.71,1.41,-0.73,2.13,
6.075,-0.83,-3.76,-0.71,1.56,-0.53,2.23,
6.076,-0.83,-3.76,-0.71,1.56,-0.53,2.23,
6.077,-0.60,-4.12,-0.59,1.56,-0.53,2.23,
6.077,-0.60,-4.12,-0.59,1.56,-0.53,2.23,
6.084,-0.60,-4.12,-0.59,1.62,-0.31,2.30,
6.085,-0.60,-4.12,-0.59,1.62,-0.31,2.30,
6.086,-0.40,-4.46,-0.45,1.62,-0.31,2.30,
6.087,-0.40,-4.46,-0.45,1.62,-0.31,2.30,
6.095,-0.40,-4.46,-0.45,1.69,-0.09,2.31,
6.096,-0.40,-4.46,-0.45,1.69,-0.09,2.31,
6.097,-0.26,-4.81,-0.28,1.69,-0.09,2.31,
6.099,-0.26,-4.81,-0.28,1.69,-0.09,2.31,
6.103,-0.26,-4.81,-0.28,1.82,0.13,2.27,
6.105,-0.26,-4.81,-0.28,1.82,0.13,2.27,
6.106,-0.24,-5.23,0.02,1.82,0.13,2.27,
6.107,-0.24,-5.23,0.02,1.82,0.13,2.27,
6.112,-0.24,-5.23,0.02,1.93,0.34,2.21,
6.113,-0.24,-5.23,0.02,1.93,0.34,2.21,
6.113,-0.36,-5.76,0.36,1.93,0.34,2.21,
6.114,-0.36,-5.76,0.36,1.93,0.34,2.21,
6.123,-0.36,-5.76,0.36,2.01,0.53,2.16,
6.123,-0.36,-5.76,0.36,2.01,0.53,2.16,
6.124,-0.58,-7.48,0.74,2.01,0.53,2.16,
6.125,-0.58,-7.48,0.74,2.01,0.53,2.16,
6.136,-0.58,-7.48,0.74,2.12,0.71,2.17,
6.137,-0.58,-7.48,0.74,2.12,0.71,2.17,
6.137,-0.86,-7.73,1.13,2.12,0.71,2.17,
6.138,-0.86,-7.73,1.13,2.12,0.71,2.17,
6.141,-0.86,-7.73,1.13,2.12,0.71,2.17,
6.143,-0.86,-7.73,1.13,2.12,0.71,2.17,
6.145,-0.86,-7.73,1.13,2.12,0.71,2.17,
6.147,-0.86,-7.73,1.13,2.12,0.71,2.17,
6.151,-0.86,-7.73,1.13,2.28,0.87,2.28,
6.153,-0.86,-7.73,1.13,2.28,0.87,2.28,
6.154,-1.26,-8.69,1.80,2.28,0.87,2.28,
6.155,-1.26,-8.69,1.80,2.28,0.87,2.28,
6.16,-1.26,-8.69,1.80,2.50,1.00,2.49,
6.161,-1.26,-8.69,1.80,2.50,1.00,2.49,
6.162,-1.37,-9.03,2.18,2.50,1.00,2.49,
6.163,-1.37,-9.03,2.18,2.50,1.00,2.49,
6.17,-1.37,-9.03,2.18,2.75,1.11,2.75,
6.171,-1.37,-9.03,2.18,2.75,1.11,2.75,
6.171,-1.46,-9.23,2.62,2.75,1.11,2.75,
6.172,-1.46,-9.23,2.62,2.75,1.11,2.75,
6.179,-1.46,-9.23,2.62,2.99,1.19,2.97,
6.181,-1.46,-9.23,2.62,2.99,1.19,2.97,
6.182,-1.63,-9.24,3.14,2.99,1.19,2.97,
6.183,-1.63,-9.24,3.14,2.99,1.19,2.97,
6.189,-1.63,-9.24,3.14,3.19,1.25,3.11,
6.19,-1.63,-9.24,3.14,3.19,1.25,3.11,
6.191,-1.88,-9.12,3.62,3.19,1.25,3.11,
6.192,-1.88,-9.12,3.62,3.19,1.25,3.11,
6.198,-1.88,-9.12,3.62,3.32,1.30,3.16,
6.199,-1.88,-9.12,3.62,3.32,1.30,3.16,
6.199,-2.20,-8.86,4.05,3.32,1.30,3.16,
6.2,-2.20,-8.86,4.05,3.32,1.30,3.16,
6.207,-2.20,-8.86,4.05,3.39,1.32,3.14,
6.208,-2.20,-8.86,4.05,3.39,1.32,3.14,
6.208,-2.55,-8.48,4.34,3.39,1.32,3.14,
6.209,-2.55,-8.48,4.34,3.39,1.32,3.14,
6.217,-2.55,-8.48,4.34,3.41,1.30,3.06,
6.218,-2.55,-8.48,4.34,3.41,1.30,3.06,
6.219,-2.86,-7.99,4.56,3.41,1.30,3.06,
6.219,-2.86,-7.99,4.56,3.41,1.30,3.06,
6.227,-2.86,-7.99,4.56,3.38,1.25,2.97,
6.227,-2.86,-7.99,4.56,3.38,1.25,2.97,
6.228,-3.12,-7.37,4.76,3.38,1.25,2.97,
6.229,-3.12,-7.37,4.76,3.38,1.25,2.97,
6.236,-3.12,-7.37,4.76,3.29,1.09,2.86,
6.238,-3.12,-7.37,4.76,3.29,1.09,2.86,
6.238,-3.27,-6.66,4.92,3.29,1.09,2.86,
6.239,-3.27,-6.66,4.92,3.29,1.09,2.86,
6.248,-3.27,-6.66,4.92,3.15,0.89,2.71,
6.25,-3.27,-6.66,4.92,3.15,0.89,2.71,
6.25,-3.35,-5.91,5.04,3.15,0.89,2.71,
6.251,-3.35,-5.91,5.04,3.15,0.89,2.71,
6.255,-3.35,-5.91,5.04,2.96,0.75,2.54,
6.256,-3.35,-5.91,5.04,2.96,0.75,2.54,
6.257,-3.36,-5.13,5.02,2.96,0.75,2.54,
6.257,-3.36,-5.13,5.02,2.96,0.75,2.54,
6.264,-3.36,-5.13,5.02,2.74,0.62,2.38,
6.266,-3.36,-5.13,5.02,2.74,0.62,2.38,
6.266,-3.30,-4.37,4.88,2.74,0.62,2.38,
6.267,-3.30,-4.37,4.88,2.74,0.62,2.38,
6.275,-3.30,-4.37,4.88,2.48,0.48,2.19,
6.276,-3.30,-4.37,4.88,2.48,0.48,2.19,
6.277,-3.22,-3.71,4.71,2.48,0.48,2.19,
6.277,-3.22,-3.71,4.71,2.48,0.48,2.19,
6.284,-3.22,-3.71,4.71,2.18,0.34,1.96,
6.285,-3.22,-3.71,4.71,2.18,0.34,1.96,
6.286,-3.18,-3.16,4.54,2.18,0.34,1.96,
6.286,-3.18,-3.16,4.54,2.18,0.34,1.96,
6.293,-3.18,-3.16,4.54,1.84,0.19,1.70,
6.294,-3.18,-3.16,4.54,1.84,0.19,1.70,
6.295,-3.13,-2.72,4.43,1.84,0.19,1.70,
6.295,-3.13,-2.72,4.43,1.84,0.19,1.70,
6.303,-3.13,-2.72,4.43,1.48,0.03,1.41,
6.305,-3.13,-2.72,4.43,1.48,0.03,1.41,
6.305,-3.11,-2.37,4.38,1.48,0.03,1.41,
6.306,-3.11,-2.37,4.38,1.48,0.03,1.41,
6.312,-3.11,-2.37,4.38,1.13,-0.14,1.12,
6.313,-3.11,-2.37,4.38,1.13,-0.14,1.12,
6.313,-3.06,-2.06,4.37,1.13,-0.14,1.12,
6.314,-3.06,-2.06,4.37,1.13,-0.14,1.12,
6.323,-3.06,-2.06,4.37,0.82,-0.32,0.85,
6.323,-3.06,-2.06,4.37,0.82,-0.32,0.85,
6.324,-3.00,-1.75,4.42,0.82,-0.32,0.85,
6.325,-3.00,-1.75,4.42,0.82,-0.32,0.85,
6.336,-3.00,-1.75,4.42,0.58,-0.50,0.59,
6.337,-3.00,-1.75,4.42,0.58,-0.50,0.59,
6.337,-2.99,-1.48,4.57,0.58,-0.50,0.59,
6.338,-2.99,-1.48,4.57,0.58,-0.50,0.59,
6.341,-2.99,-1.48,4.57,0.58,-0.50,0.59,
6.342,-2.99,-1.48,4.57,0.58,-0.50,0.59,
6.343,-2.99,-1.48,4.57,0.58,-0.50,0.59,
6.343,-2.99,-1.48,4.57,0.58,-0.50,0.59,
6.351,-2.99,-1.48,4.57,0.42,-0.67,0.36,
6.352,-2.99,-1.48,4.57,0.42,-0.67,0.36,
6.352,-3.30,-1.32,5.12,0.42,-0.67,0.36,
6.353,-3.30,-1.32,5.12,0.42,-0.67,0.36,
6.361,-3.30,-1.32,5.12,0.38,-0.81,0.17,
6.362,-3.30,-1.32,5.12,0.38,-0.81,0.17,
6.363,-3.51,-1.27,5.26,0.38,-0.81,0.17,
6.364,-3.51,-1.27,5.26,0.38,-0.81,0.17,
6.369,-3.51,-1.27,5.26,0.47,-0.92,0.07,
6.371,-3.51,-1.27,5.26,0.47,-0.92,0.07,
6.371,-3.71,-1.27,5.30,0.47,-0.92,0.07,
6.372,-3.71,-1.27,5.30,0.47,-0.92,0.07,
6.381,-3.71,-1.27,5.30,0.69,-0.96,0.09,
6.382,-3.71,-1.27,5.30,0.69,-0.96,0.09,
6.382,-3.86,-1.28,5.27,0.69,-0.96,0.09,
6.383,-3.86,-1.28,5.27,0.69,-0.96,0.09,
6.389,-3.86,-1.28,5.27,0.98,-0.96,0.25,
6.39,-3.86,-1.28,5.27,0.98,-0.96,0.25,
6.39,-3.94,-1.27,5.19,0.98,-0.96,0.25,
6.391,-3.94,-1.27,5.19,0.98,-0.96,0.25,
6.399,-3.94,-1.27,5.19,1.25,-0.92,0.50,
6.4,-3.94,-1.27,5.19,1.25,-0.92,0.50,
6.401,-4.01,-1.21,5.06,1.25,-0.92,0.50,
6.401,-4.01,-1.21,5.06,1.25,-0.92,0.50,
6.408,-4.01,-1.21,5.06,1.48,-0.87,0.79,
6.409,-4.01,-1.21,5.06,1.48,-0.87,0.79,
6.41,-4.04,-1.09,4.87,1.48,-0.87,0.79,
6.411,-4.04,-1.09,4.87,1.48,-0.87,0.79,
6.438,-4.04,-1.09,4.87,1.62,-0.82,1.06,
6.439,-4.04,-1.09,4.87,1.62,-0.82,1.06,
6.44,-4.01,-0.91,4.71,1.62,-0.82,1.06,
6.441,-4.01,-0.91,4.71,1.62,-0.82,1.06,
6.446,-4.01,-0.91,4.71,1.69,-0.79,1.29,
6.447,-4.01,-0.91,4.71,1.69,-0.79,1.29,
6.447,-3.95,-0.72,4.63,1.69,-0.79,1.29,
6.448,-3.95,-0.72,4.63,1.69,-0.79,1.29,
6.448,-3.95,-0.72,4.63,1.68,-0.79,1.45,
6.448,-3.95,-0.72,4.63,1.68,-0.79,1.45,
6.449,-3.83,-0.53,4.65,1.68,-0.79,1.45,
6.449,-3.83,-0.53,4.65,1.68,-0.79,1.45,
6.449,-3.83,-0.53,4.65,1.64,-0.82,1.53,
6.45,-3.83,-0.53,4.65,1.64,-0.82,1.53,
6.45,-3.71,-0.36,4.73,1.64,-0.82,1.53,
6.45,-3.71,-0.36,4.73,1.64,-0.82,1.53,
6.456,-3.71,-0.36,4.73,1.59,-0.87,1.54,
6.457,-3.71,-0.36,4.73,1.59,-0.87,1.54,
6.457,-3.60,-0.23,4.80,1.59,-0.87,1.54,
6.458,-3.60,-0.23,4.80,1.59,-0.87,1.54,
6.465,-3.60,-0.23,4.80,1.57,-0.89,1.48,
6.467,-3.60,-0.23,4.80,1.57,-0.89,1.48,
6.468,-3.51,-0.13,4.78,1.57,-0.89,1.48,
6.468,-3.51,-0.13,4.78,1.57,-0.89,1.48,
6.474,-3.51,-0.13,4.78,1.60,-0.89,1.39,
6.475,-3.51,-0.13,4.78,1.60,-0.89,1.39,
6.476,-3.46,-0.07,4.65,1.60,-0.89,1.39,
6.476,-3.46,-0.07,4.65,1.60,-0.89,1.39,
6.484,-3.46,-0.07,4.65,1.65,-0.87,1.28,
6.486,-3.46,-0.07,4.65,1.65,-0.87,1.28,
6.486,-3.44,-0.03,4.36,1.65,-0.87,1.28,
6.487,-3.44,-0.03,4.36,1.65,-0.87,1.28,
6.493,-3.44,-0.03,4.36,1.68,-0.84,1.17,
6.494,-3.44,-0.03,4.36,1.68,-0.84,1.17,
6.495,-3.44,-0.06,3.93,1.68,-0.84,1.17,
6.495,-3.44,-0.06,3.93,1.68,-0.84,1.17,
6.503,-3.44,-0.06,3.93,1.64,-0.80,1.07,
6.505,-3.44,-0.06,3.93,1.64,-0.80,1.07,
6.505,-3.42,-0.14,3.49,1.64,-0.80,1.07,
6.506,-3.42,-0.14,3.49,1.64,-0.80,1.07,
6.512,-3.42,-0.14,3.49,1.51,-0.76,1.01,
6.513,-3.42,-0.14,3.49,1.51,-0.76,1.01,
6.514,-3.43,-0.25,3.16,1.51,-0.76,1.01,
6.515,-3.43,-0.25,3.16,1.51,-0.76,1.01,
6.522,-3.43,-0.25,3.16,1.30,-0.72,0.97,
6.523,-3.43,-0.25,3.16,1.30,-0.72,0.97,
6.524,-3.52,-0.41,3.01,1.30,-0.72,0.97,
6.525,-3.52,-0.41,3.01,1.30,-0.72,0.97,
6.537,-3.52,-0.41,3.01,1.30,-0.72,0.97,
6.54,-3.52,-0.41,3.01,1.30,-0.72,0.97,
6.541,-3.52,-0.41,3.01,1.30,-0.72,0.97,
6.541,-3.52,-0.41,3.01,1.30,-0.72,0.97,
6.542,-3.52,-0.41,3.01,1.03,-0.68,0.95,
6.542,-3.52,-0.41,3.01,1.03,-0.68,0.95,
6.543,-4.12,-0.87,3.50,1.03,-0.68,0.95,
6.544,-4.12,-0.87,3.50,1.03,-0.68,0.95,
6.554,-4.12,-0.87,3.50,0.80,-0.62,0.99,
6.555,-4.12,-0.87,3.50,0.80,-0.62,0.99,
6.555,-4.49,-1.06,3.81,0.80,-0.62,0.99,
6.555,-4.49,-1.06,3.81,0.80,-0.62,0.99,
6.56,-4.49,-1.06,3.81,0.71,-0.48,1.12,
6.56,-4.49,-1.06,3.81,0.71,-0.48,1.12,
6.561,-4.78,-1.23,4.13,0.71,-0.48,1.12,
6.561,-4.78,-1.23,4.13,0.71,-0.48,1.12,
6.571,-4.78,-1.23,4.13,0.81,-0.26,1.36,
6.572,-4.78,-1.23,4.13,0.81,-0.26,1.36,
6.572,-4.97,-1.28,4.35,0.81,-0.26,1.36,
6.573,-4.97,-1.28,4.35,0.81,-0.26,1.36,
6.58,-4.97,-1.28,4.35,1.06,0.02,1.66,
6.581,-4.97,-1.28,4.35,1.06,0.02,1.66,
6.582,-4.98,-1.21,4.36,1.06,0.02,1.66,
6.583,-4.98,-1.21,4.36,1.06,0.02,1.66,
6.588,-4.98,-1.21,4.36,1.39,0.29,1.93,
6.589,-4.98,-1.21,4.36,1.39,0.29,1.93,
6.589,-4.84,-1.03,4.21,1.39,0.29,1.93,
6.59,-4.84,-1.03,4.21,1.39,0.29,1.93,
6.598,-4.84,-1.03,4.21,1.68,0.51,2.11,
6.599,-4.84,-1.03,4.21,1.68,0.51,2.11,
6.6,-4.57,-0.78,4.00,1.68,0.51,2.11,
6.601,-4.57,-0.78,4.00,1.68,0.51,2.11,
6.607,-4.57,-0.78,4.00,1.87,0.65,2.19,
6.608,-4.57,-0.78,4.00,1.87,0.65,2.19,
6.609,-4.18,-0.57,3.81,1.87,0.65,2.19,
6.609,-4.18,-0.57,3.81,1.87,0.65,2.19,
6.617,-4.18,-0.57,3.81,1.95,0.73,2.14,
6.618,-4.18,-0.57,3.81,1.95,0.73,2.14,
6.619,-3.74,-0.41,3.76,1.95,0.73,2.14,
6.62,-3.74,-0.41,3.76,1.95,0.73,2.14,
6.627,-3.74,-0.41,3.76,1.93,0.76,1.99,
6.628,-3.74,-0.41,3.76,1.93,0.76,1.99,
6.628,-3.34,-0.30,3.78,1.93,0.76,1.99,
6.629,-3.34,-0.30,3.78,1.93,0.76,1.99,
6.637,-3.34,-0.30,3.78,1.84,0.72,1.75,
6.638,-3.34,-0.30,3.78,1.84,0.72,1.75,
6.639,-2.99,-0.25,3.86,1.84,0.72,1.75,
6.64,-2.99,-0.25,3.86,1.84,0.72,1.75,
6.662,-2.99,-0.25,3.86,1.73,0.63,1.44,
6.663,-2.99,-0.25,3.86,1.73,0.63,1.44,
6.663,-2.74,-0.21,3.94,1.73,0.63,1.44,
6.664,-2.74,-0.21,3.94,1.73,0.63,1.44,
6.664,-2.74,-0.21,3.94,1.63,0.49,1.11,
6.664,-2.74,-0.21,3.94,1.63,0.49,1.11,
6.664,-2.58,-0.14,3.95,1.63,0.49,1.11,
6.665,-2.58,-0.14,3.95,1.63,0.49,1.11,
6.668,-2.58,-0.14,3.95,1.56,0.33,0.79,
6.668,-2.58,-0.14,3.95,1.56,0.33,0.79,
6.668,-2.43,-0.07,3.82,1.56,0.33,0.79,
6.669,-2.43,-0.07,3.82,1.56,0.33,0.79,
6.673,-2.43,-0.07,3.82,1.50,0.19,0.51,
6.674,-2.43,-0.07,3.82,1.50,0.19,0.51,
6.674,-2.30,0.05,3.57,1.50,0.19,0.51,
6.675,-2.30,0.05,3.57,1.50,0.19,0.51,
6.683,-2.30,0.05,3.57,1.45,0.08,0.28,
6.684,-2.30,0.05,3.57,1.45,0.08,0.28,
6.685,-2.15,0.20,3.24,1.45,0.08,0.28,
6.685,-2.15,0.20,3.24,1.45,0.08,0.28,
6.693,-2.15,0.20,3.24,1.35,-0.00,0.11,
6.694,-2.15,0.20,3.24,1.35,-0.00,0.11,
6.694,-2.06,0.33,2.92,1.35,-0.00,0.11,
6.695,-2.06,0.33,2.92,1.35,-0.00,0.11,
6.703,-2.06,0.33,2.92,1.20,-0.05,0.00,
6.705,-2.06,0.33,2.92,1.20,-0.05,0.00,
6.706,-2.06,0.46,2.72,1.20,-0.05,0.00,
6.707,-2.06,0.46,2.72,1.20,-0.05,0.00,
6.714,-2.06,0.46,2.72,1.01,-0.08,-0.06,
6.715,-2.06,0.46,2.72,1.01,-0.08,-0.06,
6.715,-2.11,0.56,2.62,1.01,-0.08,-0.06,
6.716,-2.11,0.56,2.62,1.01,-0.08,-0.06,
6.722,-2.11,0.56,2.62,0.81,-0.09,-0.07,
6.723,-2.11,0.56,2.62,0.81,-0.09,-0.07,
6.724,-2.21,0.65,2.58,0.81,-0.09,-0.07,
6.724,-2.21,0.65,2.58,0.81,-0.09,-0.07,
6.732,-2.21,0.65,2.58,0.81,-0.09,-0.07,
6.733,-2.21,0.65,2.58,0.81,-0.09,-0.07,
6.733,-2.21,0.65,2.58,0.81,-0.09,-0.07,
6.734,-2.21,0.65,2.58,0.81,-0.09,-0.07,
6.741,-2.21,0.65,2.58,0.63,-0.09,-0.03,
6.743,-2.21,0.65,2.58,0.63,-0.09,-0.03,
6.743,-2.39,0.83,2.48,0.63,-0.09,-0.03,
6.744,-2.39,0.83,2.48,0.63,-0.09,-0.03,
6.755,-2.39,0.83,2.48,0.51,-0.06,0.07,
6.757,-2.39,0.83,2.48,0.51,-0.06,0.07,
6.758,-2.28,0.90,2.22,0.51,-0.06,0.07,
6.758,-2.28,0.90,2.22,0.51,-0.06,0.07,
6.76,-2.28,0.90,2.22,0.44,0.02,0.21,
6.761,-2.28,0.90,2.22,0.44,0.02,0.21,
6.761,-2.08,0.89,1.95,0.44,0.02,0.21,
6.762,-2.08,0.89,1.95,0.44,0.02,0.21,
6.77,-2.08,0.89,1.95,0.39,0.12,0.36,
6.771,-2.08,0.89,1.95,0.39,0.12,0.36,
6.771,-1.79,0.77,1.66,0.39,0.12,0.36,
6.772,-1.79,0.77,1.66,0.39,0.12,0.36,
6.78,-1.79,0.77,1.66,0.33,0.18,0.47,
6.781,-1.79,0.77,1.66,0.33,0.18,0.47,
6.782,-1.48,0.57,1.39,0.33,0.18,0.47,
6.783,-1.48,0.57,1.39,0.33,0.18,0.47,
6.789,-1.48,0.57,1.39,0.24,0.20,0.52,
6.79,-1.48,0.57,1.39,0.24,0.20,0.52,
6.79,-1.19,0.33,1.13,0.24,0.20,0.52,
6.791,-1.19,0.33,1.13,0.24,0.20,0.52,
6.798,-1.19,0.33,1.13,0.11,0.18,0.49,
6.799,-1.19,0.33,1.13,0.11,0.18,0.49,
6.8,-0.96,0.11,0.88,0.11,0.18,0.49,
6.801,-0.96,0.11,0.88,0.11,0.18,0.49,
6.807,-0.96,0.11,0.88,-0.04,0.11,0.38,
6.808,-0.96,0.11,0.88,-0.04,0.11,0.38,
6.809,-0.81,-0.04,0.69,-0.04,0.11,0.38,
6.809,-0.81,-0.04,0.69,-0.04,0.11,0.38,
6.817,-0.81,-0.04,0.69,-0.20,0.03,0.24,
6.819,-0.81,-0.04,0.69,-0.20,0.03,0.24,
6.82,-0.72,-0.12,0.59,-0.20,0.03,0.24,
6.821,-0.72,-0.12,0.59,-0.20,0.03,0.24,
6.827,-0.72,-0.12,0.59,-0.36,-0.06,0.08,
6.827,-0.72,-0.12,0.59,-0.36,-0.06,0.08,
6.828,-0.70,-0.11,0.63,-0.36,-0.06,0.08,
6.828,-0.70,-0.11,0.63,-0.36,-0.06,0.08,
6.836,-0.70,-0.11,0.63,-0.47,-0.12,-0.05,
6.837,-0.70,-0.11,0.63,-0.47,-0.12,-0.05,
6.838,-0.71,-0.02,0.73,-0.47,-0.12,-0.05,
6.839,-0.71,-0.02,0.73,-0.47,-0.12,-0.05,
6.845,-0.71,-0.02,0.73,-0.53,-0.16,-0.14,
6.846,-0.71,-0.02,0.73,-0.53,-0.16,-0.14,
6.847,-0.72,0.12,0.87,-0.53,-0.16,-0.14,
6.847,-0.72,0.12,0.87,-0.53,-0.16,-0.14,
6.855,-0.72,0.12,0.87,-0.50,-0.16,-0.17,
6.857,-0.72,0.12,0.87,-0.50,-0.16,-0.17,
6.857,-0.76,0.28,1.04,-0.50,-0.16,-0.17,
6.858,-0.76,0.28,1.04,-0.50,-0.16,-0.17,
6.87,-0.76,0.28,1.04,-0.40,-0.13,-0.17,
6.871,-0.76,0.28,1.04,-0.40,-0.13,-0.17,
6.871,-0.77,0.45,1.17,-0.40,-0.13,-0.17,
6.872,-0.77,0.45,1.17,-0.40,-0.13,-0.17,
6.875,-0.77,0.45,1.17,-0.22,-0.06,-0.12,
6.875,-0.77,0.45,1.17,-0.22,-0.06,-0.12,
6.876,-0.78,0.61,1.28,-0.22,-0.06,-0.12,
6.877,-0.78,0.61,1.28,-0.22,-0.06,-0.12,
6.883,-0.78,0.61,1.28,-0.00,0.02,-0.06,
6.885,-0.78,0.61,1.28,-0.00,0.02,-0.06,
6.885,-0.78,0.73,1.38,-0.00,0.02,-0.06,
6.885,-0.78,0.73,1.38,-0.00,0.02,-0.06,
6.893,-0.78,0.73,1.38,0.23,0.11,0.02,
6.894,-0.78,0.73,1.38,0.23,0.11,0.02,
6.895,-0.75,0.77,1.41,0.23,0.11,0.02,
6.895,-0.75,0.77,1.41,0.23,0.11,0.02,
6.903,-0.75,0.77,1.41,0.46,0.17,0.10,
6.904,-0.75,0.77,1.41,0.46,0.17,0.10,
6.904,-0.75,0.71,1.37,0.46,0.17,0.10,
6.905,-0.75,0.71,1.37,0.46,0.17,0.10,
6.913,-0.75,0.71,1.37,0.66,0.21,0.17,
6.914,-0.75,0.71,1.37,0.66,0.21,0.17,
6.914,-0.69,0.57,1.25,0.66,0.21,0.17,
6.915,-0.69,0.57,1.25,0.66,0.21,0.17,
6.922,-0.69,0.57,1.25,0.81,0.24,0.23,
6.923,-0.69,0.57,1.25,0.81,0.24,0.23,
6.923,-0.63,0.39,1.06,0.81,0.24,0.23,
6.924,-0.63,0.39,1.06,0.81,0.24,0.23,
6.931,-0.63,0.39,1.06,0.81,0.24,0.23,
6.931,-0.63,0.39,1.06,0.81,0.24,0.23,
6.931,-0.63,0.39,1.06,0.81,0.24,0.23,
6.932,-0.63,0.39,1.06,0.81,0.24,0.23,
6.941,-0.63,0.39,1.06,0.89,0.25,0.26,
6.943,-0.63,0.39,1.06,0.89,0.25,0.26,
6.945,-0.53,0.10,0.71,0.89,0.25,0.26,
6.946,-0.53,0.10,0.71,0.89,0.25,0.26,
6.96,-0.53,0.10,0.71,0.88,0.24,0.27,
6.961,-0.53,0.10,0.71,0.88,0.24,0.27,
6.962,-0.49,0.02,0.58,0.88,0.24,0.27,
6.963,-0.49,0.02,0.58,0.88,0.24,0.27,
6.963,-0.49,0.02,0.58,0.79,0.23,0.25,
6.964,-0.49,0.02,0.58,0.79,0.23,0.25,
6.964,-0.48,0.02,0.53,0.79,0.23,0.25,
6.965,-0.48,0.02,0.53,0.79,0.23,0.25,
6.969,-0.48,0.02,0.53,0.63,0.22,0.21,
6.97,-0.48,0.02,0.53,0.63,0.22,0.21,
6.97,-0.48,0.06,0.55,0.63,0.22,0.21,
6.971,-0.48,0.06,0.55,0.63,0.22,0.21,
6.979,-0.48,0.06,0.55,0.47,0.20,0.18,
6.98,-0.48,0.06,0.55,0.47,0.20,0.18,
6.98,-0.42,0.15,0.64,0.47,0.20,0.18,
6.98,-0.42,0.15,0.64,0.47,0.20,0.18,
6.988,-0.42,0.15,0.64,0.34,0.18,0.15,
6.989,-0.42,0.15,0.64,0.34,0.18,0.15,
6.989,-0.38,0.24,0.71,0.34,0.18,0.15,
6.989,-0.38,0.24,0.71,0.34,0.18,0.15,
6.998,-0.38,0.24,0.71,0.27,0.18,0.13,
6.999,-0.38,0.24,0.71,0.27,0.18,0.13,
6.999,-0.29,0.29,0.76,0.27,0.18,0.13,
6.999,-0.29,0.29,0.76,0.27,0.18,0.13,
7.007,-0.29,0.29,0.76,0.26,0.17,0.12,
7.008,-0.29,0.29,0.76,0.26,0.17,0.12,
7.008,-0.19,0.29,0.71,0.26,0.17,0.12,
7.009,-0.19,0.29,0.71,0.26,0.17,0.12,
7.017,-0.19,0.29,0.71,0.29,0.16,0.10,
7.018,-0.19,0.29,0.71,0.29,0.16,0.10,
7.019,-0.13,0.26,0.58,0.29,0.16,0.10,
7.019,-0.13,0.26,0.58,0.29,0.16,0.10,
7.027,-0.13,0.26,0.58,0.31,0.12,0.07,
7.028,-0.13,0.26,0.58,0.31,0.12,0.07,
7.028,-0.05,0.18,0.44,0.31,0.12,0.07,
7.029,-0.05,0.18,0.44,0.31,0.12,0.07,
7.036,-0.05,0.18,0.44,0.31,0.06,0.04,
7.037,-0.05,0.18,0.44,0.31,0.06,0.04,
7.038,0.01,0.11,0.27,0.31,0.06,0.04,
7.038,0.01,0.11,0.27,0.31,0.06,0.04,
7.051,0.01,0.11,0.27,0.26,-0.01,-0.00,
7.052,0.01,0.11,0.27,0.26,-0.01,-0.00,
7.052,0.07,0.06,0.12,0.26,-0.01,-0.00,
7.053,0.07,0.06,0.12,0.26,-0.01,-0.00,
7.055,0.07,0.06,0.12,0.17,-0.07,-0.05,
7.055,0.07,0.06,0.12,0.17,-0.07,-0.05,
7.056,0.15,0.04,-0.00,0.17,-0.07,-0.05,
7.056,0.15,0.04,-0.00,0.17,-0.07,-0.05,
7.066,0.15,0.04,-0.00,0.05,-0.11,-0.09,
7.066,0.15,0.04,-0.00,0.05,-0.11,-0.09,
7.067,0.20,0.01,-0.08,0.05,-0.11,-0.09,
7.067,0.20,0.01,-0.08,0.05,-0.11,-0.09,
7.073,0.20,0.01,-0.08,-0.08,-0.14,-0.14,
7.074,0.20,0.01,-0.08,-0.08,-0.14,-0.14,
7.074,0.21,-0.03,-0.06,-0.08,-0.14,-0.14,
7.075,0.21,-0.03,-0.06,-0.08,-0.14,-0.14,
7.083,0.21,-0.03,-0.06,-0.20,-0.16,-0.18,
7.085,0.21,-0.03,-0.06,-0.20,-0.16,-0.18,
7.085,0.19,-0.06,0.02,-0.20,-0.16,-0.18,
7.085,0.19,-0.06,0.02,-0.20,-0.16,-0.18,
7.093,0.19,-0.06,0.02,-0.29,-0.17,-0.22,
7.094,0.19,-0.06,0.02,-0.29,-0.17,-0.22,
7.095,0.14,-0.06,0.12,-0.29,-0.17,-0.22,
7.095,0.14,-0.06,0.12,-0.29,-0.17,-0.22,
7.104,0.14,-0.06,0.12,-0.33,-0.17,-0.24,
7.105,0.14,-0.06,0.12,-0.33,-0.17,-0.24,
7.107,0.08,-0.02,0.21,-0.33,-0.17,-0.24,
7.107,0.08,-0.02,0.21,-0.33,-0.17,-0.24,
7.113,0.08,-0.02,0.21,-0.32,-0.14,-0.24,
7.114,0.08,-0.02,0.21,-0.32,-0.14,-0.24,
7.114,0.05,0.07,0.29,-0.32,-0.14,-0.24,
7.115,0.05,0.07,0.29,-0.32,-0.14,-0.24,
7.122,0.05,0.07,0.29,-0.26,-0.09,-0.22,
7.123,0.05,0.07,0.29,-0.26,-0.09,-0.22,
7.123,0.02,0.18,0.34,-0.26,-0.09,-0.22,
7.124,0.02,0.18,0.34,-0.26,-0.09,-0.22,
7.131,0.02,0.18,0.34,-0.26,-0.09,-0.22,
7.131,0.02,0.18,0.34,-0.26,-0.09,-0.22,
7.132,0.02,0.18,0.34,-0.26,-0.09,-0.22,
7.132,0.02,0.18,0.34,-0.26,-0.09,-0.22,
7.141,0.02,0.18,0.34,-0.17,-0.04,-0.18,
7.142,0.02,0.18,0.34,-0.17,-0.04,-0.18,
