
time,ax,ay,az,wx,wy,wz,
0.001,-0.26,0.11,0.33,0.06,0.24,0.01,
0.002,-0.26,0.11,0.33,0.06,0.24,0.01,
0.002,-0.34,0.06,0.20,0.06,0.24,0.01,
0.003,-0.34,0.06,0.20,0.06,0.24,0.01,
0.01,-0.34,0.06,0.20,0.06,0.20,-0.00,
0.011,-0.34,0.06,0.20,0.06,0.20,-0.00,
0.011,-0.44,0.05,0.05,0.06,0.20,-0.00,
0.011,-0.44,0.05,0.05,0.06,0.20,-0.00,
0.027,-0.44,0.05,0.05,0.04,0.16,-0.02,
0.027,-0.44,0.05,0.05,0.04,0.16,-0.02,
0.028,-0.50,0.07,-0.03,0.04,0.16,-0.02,
0.028,-0.50,0.07,-0.03,0.04,0.16,-0.02,
0.028,-0.50,0.07,-0.03,0.04,0.16,-0.02,
0.029,-0.50,0.07,-0.03,0.04,0.16,-0.02,
0.029,-0.52,0.04,-0.08,0.04,0.16,-0.02,
0.029,-0.52,0.04,-0.08,0.04,0.16,-0.02,
0.042,-0.52,0.04,-0.08,0.04,0.19,-0.01,
0.043,-0.52,0.04,-0.08,0.04,0.19,-0.01,
0.043,-0.46,0.04,-0.06,0.04,0.19,-0.01,
0.044,-0.46,0.04,-0.06,0.04,0.19,-0.01,
0.045,-0.46,0.04,-0.06,0.05,0.23,0.01,
0.045,-0.46,0.04,-0.06,0.05,0.23,0.01,
0.046,-0.37,0.03,-0.01,0.05,0.23,0.01,
0.046,-0.37,0.03,-0.01,0.05,0.23,0.01,
0.054,-0.37,0.03,-0.01,0.06,0.25,0.02,
0.055,-0.37,0.03,-0.01,0.06,0.25,0.02,
0.055,-0.31,0.05,0.05,0.06,0.25,0.02,
0.056,-0.31,0.05,0.05,0.06,0.25,0.02,
0.064,-0.31,0.05,0.05,0.07,0.25,0.02,
0.064,-0.31,0.05,0.05,0.07,0.25,0.02,
0.065,-0.25,0.10,0.13,0.07,0.25,0.02,
0.065,-0.25,0.10,0.13,0.07,0.25,0.02,
0.074,-0.25,0.10,0.13,0.06,0.22,0.03,
0.075,-0.25,0.10,0.13,0.06,0.22,0.03,
0.075,-0.18,0.11,0.18,0.06,0.22,0.03,
0.076,-0.18,0.11,0.18,0.06,0.22,0.03,
0.084,-0.18,0.11,0.18,0.05,0.17,0.04,
0.085,-0.18,0.11,0.18,0.05,0.17,0.04,
0.085,-0.13,0.10,0.22,0.05,0.17,0.04,
0.086,-0.13,0.10,0.22,0.05,0.17,0.04,
0.092,-0.13,0.10,0.22,0.04,0.11,0.04,
0.093,-0.13,0.10,0.22,0.04,0.11,0.04,
0.094,-0.08,0.05,0.24,0.04,0.11,0.04,
0.094,-0.08,0.05,0.24,0.04,0.11,0.04,
0.102,-0.08,0.05,0.24,0.02,0.04,0.04,
0.103,-0.08,0.05,0.24,0.02,0.04,0.04,
0.104,-0.06,0.04,0.24,0.02,0.04,0.04,
0.105,-0.06,0.04,0.24,0.02,0.04,0.04,
0.111,-0.06,0.04,0.24,0.00,-0.03,0.03,
0.112,-0.06,0.04,0.24,0.00,-0.03,0.03,
0.112,-0.06,-0.01,0.23,0.00,-0.03,0.03,
0.113,-0.06,-0.01,0.23,0.00,-0.03,0.03,
0.122,-0.06,-0.01,0.23,-0.02,-0.09,0.01,
0.123,-0.06,-0.01,0.23,-0.02,-0.09,0.01,
0.124,-0.04,0.01,0.18,-0.02,-0.09,0.01,
0.125,-0.04,0.01,0.18,-0.02,-0.09,0.01,
0.131,-0.04,0.01,0.18,-0.04,-0.14,-0.01,
0.131,-0.04,0.01,0.18,-0.04,-0.14,-0.01,
0.132,-0.01,0.02,0.13,-0.04,-0.14,-0.01,
0.132,-0.01,0.02,0.13,-0.04,-0.14,-0.01,
0.143,-0.01,0.02,0.13,-0.04,-0.14,-0.01,
0.144,-0.01,0.02,0.13,-0.04,-0.14,-0.01,
0.144,-0.01,0.02,0.13,-0.04,-0.14,-0.01,
0.145,-0.01,0.02,0.13,-0.04,-0.14,-0.01,
0.151,-0.01,0.02,0.13,-0.06,-0.18,-0.03,
0.152,-0.01,0.02,0.13,-0.06,-0.18,-0.03,
0.153,0.01,0.09,0.10,-0.06,-0.18,-0.03,
0.154,0.01,0.09,0.10,-0.06,-0.18,-0.03,
0.159,0.01,0.09,0.10,-0.07,-0.19,-0.04,
0.16,0.01,0.09,0.10,-0.07,-0.19,-0.04,
0.161,0.02,0.14,0.17,-0.07,-0.19,-0.04,
0.161,0.02,0.14,0.17,-0.07,-0.19,-0.04,
0.168,0.02,0.14,0.17,-0.06,-0.19,-0.03,
0.169,0.02,0.14,0.17,-0.06,-0.19,-0.03,
0.17,0.02,0.19,0.26,-0.06,-0.19,-0.03,
0.17,0.02,0.19,0.26,-0.06,-0.19,-0.03,
0.178,0.02,0.19,0.26,-0.03,-0.18,-0.00,
0.179,0.02,0.19,0.26,-0.03,-0.18,-0.00,
0.179,0.03,0.17,0.31,-0.03,-0.18,-0.00,
0.18,0.03,0.17,0.31,-0.03,-0.18,-0.00,
0.188,0.03,0.17,0.31,-0.01,-0.17,0.02,
0.19,0.03,0.17,0.31,-0.01,-0.17,0.02,
0.191,0.04,0.13,0.30,-0.01,-0.17,0.02,
0.192,0.04,0.13,0.30,-0.01,-0.17,0.02,
0.197,0.04,0.13,0.30,0.00,-0.16,0.02,
0.198,0.04,0.13,0.30,0.00,-0.16,0.02,
0.199,0.04,0.07,0.26,0.00,-0.16,0.02,
0.199,0.04,0.07,0.26,0.00,-0.16,0.02,
0.206,0.04,0.07,0.26,0.01,-0.15,0.01,
0.207,0.04,0.07,0.26,0.01,-0.15,0.01,
0.208,0.01,-0.00,0.21,0.01,-0.15,0.01,
0.208,0.01,-0.00,0.21,0.01,-0.15,0.01,
0.226,0.01,-0.00,0.21,-0.00,-0.14,0.00,
0.227,0.01,-0.00,0.21,-0.00,-0.14,0.00,
0.228,-0.01,-0.02,0.17,-0.00,-0.14,0.00,
0.228,-0.01,-0.02,0.17,-0.00,-0.14,0.00,
0.229,-0.01,-0.02,0.17,-0.02,-0.12,-0.01,
0.23,-0.01,-0.02,0.17,-0.02,-0.12,-0.01,
0.23,-0.04,-0.04,0.13,-0.02,-0.12,-0.01,
0.231,-0.04,-0.04,0.13,-0.02,-0.12,-0.01,
0.238,-0.04,-0.04,0.13,-0.04,-0.10,-0.01,
0.24,-0.04,-0.04,0.13,-0.04,-0.10,-0.01,
0.24,-0.06,-0.04,0.13,-0.04,-0.10,-0.01,
0.241,-0.06,-0.04,0.13,-0.04,-0.10,-0.01,
0.25,-0.06,-0.04,0.13,-0.06,-0.06,-0.01,
0.251,-0.06,-0.04,0.13,-0.06,-0.06,-0.01,
0.253,-0.05,-0.02,0.19,-0.06,-0.06,-0.01,
0.254,-0.05,-0.02,0.19,-0.06,-0.06,-0.01,
0.255,-0.05,-0.02,0.19,-0.07,-0.03,-0.01,
0.256,-0.05,-0.02,0.19,-0.07,-0.03,-0.01,
0.257,-0.04,0.01,0.26,-0.07,-0.03,-0.01,
0.257,-0.04,0.01,0.26,-0.07,-0.03,-0.01,
0.264,-0.04,0.01,0.26,-0.07,0.00,-0.02,
0.265,-0.04,0.01,0.26,-0.07,0.00,-0.02,
0.265,-0.02,0.05,0.37,-0.07,0.00,-0.02,
0.266,-0.02,0.05,0.37,-0.07,0.00,-0.02,
0.274,-0.02,0.05,0.37,-0.08,0.03,-0.01,
0.275,-0.02,0.05,0.37,-0.08,0.03,-0.01,
0.276,0.01,0.07,0.47,-0.08,0.03,-0.01,
0.276,0.01,0.07,0.47,-0.08,0.03,-0.01,
0.284,0.01,0.07,0.47,-0.08,0.05,0.02,
0.285,0.01,0.07,0.47,-0.08,0.05,0.02,
0.285,0.01,0.07,0.50,-0.08,0.05,0.02,
0.286,0.01,0.07,0.50,-0.08,0.05,0.02,
0.292,0.01,0.07,0.50,-0.09,0.06,0.05,
0.293,0.01,0.07,0.50,-0.09,0.06,0.05,
0.293,0.04,0.05,0.50,-0.09,0.06,0.05,
0.294,0.04,0.05,0.50,-0.09,0.06,0.05,
0.302,0.04,0.05,0.50,-0.10,0.07,0.08,
0.303,0.04,0.05,0.50,-0.10,0.07,0.08,
0.304,0.03,0.02,0.44,-0.10,0.07,0.08,
0.305,0.03,0.02,0.44,-0.10,0.07,0.08,
0.311,0.03,0.02,0.44,-0.10,0.06,0.08,
0.312,0.03,0.02,0.44,-0.10,0.06,0.08,
0.313,-0.01,-0.01,0.33,-0.10,0.06,0.08,
0.314,-0.01,-0.01,0.33,-0.10,0.06,0.08,
0.321,-0.01,-0.01,0.33,-0.11,0.05,0.08,
0.322,-0.01,-0.01,0.33,-0.11,0.05,0.08,
0.323,-0.06,-0.04,0.21,-0.11,0.05,0.08,
0.324,-0.06,-0.04,0.21,-0.11,0.05,0.08,
0.33,-0.06,-0.04,0.21,-0.11,0.05,0.08,
0.331,-0.06,-0.04,0.21,-0.11,0.05,0.08,
0.332,-0.06,-0.04,0.21,-0.11,0.05,0.08,
0.332,-0.06,-0.04,0.21,-0.11,0.05,0.08,
0.345,-0.06,-0.04,0.21,-0.11,0.04,0.06,
0.346,-0.06,-0.04,0.21,-0.11,0.04,0.06,
0.347,-0.13,-0.02,0.05,-0.11,0.04,0.06,
0.347,-0.13,-0.02,0.05,-0.11,0.04,0.06,
0.35,-0.13,-0.02,0.05,-0.09,0.04,0.04,
0.351,-0.13,-0.02,0.05,-0.09,0.04,0.04,
0.352,-0.10,0.02,0.04,-0.09,0.04,0.04,
0.353,-0.10,0.02,0.04,-0.09,0.04,0.04,
0.359,-0.10,0.02,0.04,-0.07,0.06,0.02,
0.36,-0.10,0.02,0.04,-0.07,0.06,0.02,
0.361,-0.05,0.04,0.09,-0.07,0.06,0.02,
0.362,-0.05,0.04,0.09,-0.07,0.06,0.02,
0.368,-0.05,0.04,0.09,-0.04,0.08,0.02,
0.369,-0.05,0.04,0.09,-0.04,0.08,0.02,
0.37,-0.00,0.04,0.19,-0.04,0.08,0.02,
0.371,-0.00,0.04,0.19,-0.04,0.08,0.02,
0.378,-0.00,0.04,0.19,-0.00,0.09,0.02,
0.379,-0.00,0.04,0.19,-0.00,0.09,0.02,
0.379,0.03,0.03,0.27,-0.00,0.09,0.02,
0.379,0.03,0.03,0.27,-0.00,0.09,0.02,
0.388,0.03,0.03,0.27,0.02,0.09,0.02,
0.389,0.03,0.03,0.27,0.02,0.09,0.02,
0.39,0.04,0.03,0.32,0.02,0.09,0.02,
0.39,0.04,0.03,0.32,0.02,0.09,0.02,
0.397,0.04,0.03,0.32,0.03,0.07,0.03,
0.398,0.04,0.03,0.32,0.03,0.07,0.03,
0.398,0.06,0.09,0.33,0.03,0.07,0.03,
0.399,0.06,0.09,0.33,0.03,0.07,0.03,
0.407,0.06,0.09,0.33,0.02,0.04,0.03,
0.408,0.06,0.09,0.33,0.02,0.04,0.03,
0.409,0.09,0.17,0.22,0.02,0.04,0.03,
0.41,0.09,0.17,0.22,0.02,0.04,0.03,
0.426,0.09,0.17,0.22,0.01,0.01,0.04,
0.427,0.09,0.17,0.22,0.01,0.01,0.04,
0.428,0.11,0.28,0.06,0.01,0.01,0.04,
0.428,0.11,0.28,0.06,0.01,0.01,0.04,
0.429,0.11,0.28,0.06,0.02,-0.01,0.05,
0.429,0.11,0.28,0.06,0.02,-0.01,0.05,
0.43,0.14,0.34,-0.16,0.02,-0.01,0.05,
0.431,0.14,0.34,-0.16,0.02,-0.01,0.05,
0.435,0.14,0.34,-0.16,0.07,-0.03,0.06,
0.436,0.14,0.34,-0.16,0.07,-0.03,0.06,
0.437,0.16,0.37,-0.46,0.07,-0.03,0.06,
0.437,0.16,0.37,-0.46,0.07,-0.03,0.06,
0.445,0.16,0.37,-0.46,0.14,-0.04,0.10,
0.445,0.16,0.37,-0.46,0.14,-0.04,0.10,
0.446,0.22,0.43,-0.84,0.14,-0.04,0.10,
0.446,0.22,0.43,-0.84,0.14,-0.04,0.10,
0.456,0.22,0.43,-0.84,0.25,-0.03,0.16,
0.457,0.22,0.43,-0.84,0.25,-0.03,0.16,
0.458,0.33,0.47,-1.28,0.25,-0.03,0.16,
0.458,0.33,0.47,-1.28,0.25,-0.03,0.16,
0.464,0.33,0.47,-1.28,0.37,-0.02,0.24,
0.464,0.33,0.47,-1.28,0.37,-0.02,0.24,
0.465,0.43,0.49,-1.74,0.37,-0.02,0.24,
0.465,0.43,0.49,-1.74,0.37,-0.02,0.24,
0.474,0.43,0.49,-1.74,0.52,-0.01,0.32,
0.475,0.43,0.49,-1.74,0.52,-0.01,0.32,
0.476,0.51,0.40,-2.15,0.52,-0.01,0.32,
0.476,0.51,0.40,-2.15,0.52,-0.01,0.32,
0.483,0.51,0.40,-2.15,0.68,-0.01,0.41,
0.484,0.51,0.40,-2.15,0.68,-0.01,0.41,
0.484,0.51,0.09,-2.41,0.68,-0.01,0.41,
0.485,0.51,0.09,-2.41,0.68,-0.01,0.41,
0.492,0.51,0.09,-2.41,0.84,-0.02,0.50,
0.493,0.51,0.09,-2.41,0.84,-0.02,0.50,
0.493,0.45,-0.39,-2.49,0.84,-0.02,0.50,
0.493,0.45,-0.39,-2.49,0.84,-0.02,0.50,
0.501,0.45,-0.39,-2.49,0.95,-0.03,0.57,
0.502,0.45,-0.39,-2.49,0.95,-0.03,0.57,
0.503,0.41,-0.90,-2.38,0.95,-0.03,0.57,
0.503,0.41,-0.90,-2.38,0.95,-0.03,0.57,
0.511,0.41,-0.90,-2.38,0.95,-0.04,0.61,
0.512,0.41,-0.90,-2.38,0.95,-0.04,0.61,
0.512,0.54,-1.33,-2.16,0.95,-0.04,0.61,
0.513,0.54,-1.33,-2.16,0.95,-0.04,0.61,
0.521,0.54,-1.33,-2.16,0.79,-0.06,0.58,
0.522,0.54,-1.33,-2.16,0.79,-0.06,0.58,
0.522,0.91,-1.58,-1.89,0.79,-0.06,0.58,
0.523,0.91,-1.58,-1.89,0.79,-0.06,0.58,
0.53,0.91,-1.58,-1.89,0.79,-0.06,0.58,
0.531,0.91,-1.58,-1.89,0.79,-0.06,0.58,
0.531,0.91,-1.58,-1.89,0.79,-0.06,0.58,
0.532,0.91,-1.58,-1.89,0.79,-0.06,0.58,
0.54,0.91,-1.58,-1.89,0.48,-0.13,0.49,
0.542,0.91,-1.58,-1.89,0.48,-0.13,0.49,
0.543,4.04,-1.83,-1.43,0.48,-0.13,0.49,
0.543,4.04,-1.83,-1.43,0.48,-0.13,0.49,
0.55,4.04,-1.83,-1.43,0.40,-0.39,0.37,
0.551,4.04,-1.83,-1.43,0.40,-0.39,0.37,
0.551,5.75,-1.87,-1.13,0.40,-0.39,0.37,
0.551,5.75,-1.87,-1.13,0.40,-0.39,0.37,
0.559,5.75,-1.87,-1.13,0.19,-1.13,0.25,
0.56,5.75,-1.87,-1.13,0.19,-1.13,0.25,
0.56,7.64,-1.85,-0.77,0.19,-1.13,0.25,
0.56,7.64,-1.85,-0.77,0.19,-1.13,0.25,
0.568,7.64,-1.85,-0.77,-0.44,-2.47,0.11,
0.569,7.64,-1.85,-0.77,-0.44,-2.47,0.11,
0.57,9.38,-1.69,-0.33,-0.44,-2.47,0.11,
0.57,9.38,-1.69,-0.33,-0.44,-2.47,0.11,
0.578,9.38,-1.69,-0.33,-1.10,-4.23,-0.11,
0.578,9.38,-1.69,-0.33,-1.10,-4.23,-0.11,
0.579,9.70,-1.46,0.21,-1.10,-4.23,-0.11,
0.58,9.70,-1.46,0.21,-1.10,-4.23,-0.11,
0.587,9.70,-1.46,0.21,-1.77,-5.96,-0.42,
0.588,9.70,-1.46,0.21,-1.77,-5.96,-0.42,
0.589,10.01,-1.21,1.89,-1.77,-5.96,-0.42,
0.59,10.01,-1.21,1.89,-1.77,-5.96,-0.42,
0.597,10.01,-1.21,1.89,-2.37,-7.16,-0.71,
0.597,10.01,-1.21,1.89,-2.37,-7.16,-0.71,
0.598,9.90,-1.08,2.14,-2.37,-7.16,-0.71,
0.599,9.90,-1.08,2.14,-2.37,-7.16,-0.71,
0.606,9.90,-1.08,2.14,-2.76,-7.56,-0.85,
0.607,9.90,-1.08,2.14,-2.76,-7.56,-0.85,
0.608,9.39,-1.12,2.51,-2.76,-7.56,-0.85,
0.608,9.39,-1.12,2.51,-2.76,-7.56,-0.85,
0.62,9.39,-1.12,2.51,-2.84,-7.23,-0.77,
0.621,9.39,-1.12,2.51,-2.84,-7.23,-0.77,
0.622,7.94,-1.38,2.73,-2.84,-7.23,-0.77,
0.622,7.94,-1.38,2.73,-2.84,-7.23,-0.77,
0.638,7.94,-1.38,2.73,-2.64,-6.40,-0.61,
0.639,7.94,-1.38,2.73,-2.64,-6.40,-0.61,
0.639,7.63,-1.83,2.62,-2.64,-6.40,-0.61,
0.64,7.63,-1.83,2.62,-2.64,-6.40,-0.61,
0.64,7.63,-1.83,2.62,-2.26,-5.31,-0.31,
0.64,7.63,-1.83,2.62,-2.26,-5.31,-0.31,
0.641,7.44,-2.40,2.21,-2.26,-5.31,-0.31,
0.641,7.44,-2.40,2.21,-2.26,-5.31,-0.31,
0.644,7.44,-2.40,2.21,-1.84,-4.16,0.14,
0.645,7.44,-2.40,2.21,-1.84,-4.16,0.14,
0.645,7.39,-2.97,1.83,-1.84,-4.16,0.14,
0.646,7.39,-2.97,1.83,-1.84,-4.16,0.14,
0.654,7.39,-2.97,1.83,-1.51,-3.13,0.56,
0.655,7.39,-2.97,1.83,-1.51,-3.13,0.56,
0.656,7.38,-3.48,1.68,-1.51,-3.13,0.56,
0.656,7.38,-3.48,1.68,-1.51,-3.13,0.56,
0.663,7.38,-3.48,1.68,-1.33,-2.32,0.87,
0.664,7.38,-3.48,1.68,-1.33,-2.32,0.87,
0.665,7.31,-3.85,1.81,-1.33,-2.32,0.87,
0.665,7.31,-3.85,1.81,-1.33,-2.32,0.87,
0.673,7.31,-3.85,1.81,-1.30,-1.75,1.08,
0.674,7.31,-3.85,1.81,-1.30,-1.75,1.08,
0.675,7.11,-4.06,2.00,-1.30,-1.75,1.08,
0.675,7.11,-4.06,2.00,-1.30,-1.75,1.08,
0.683,7.11,-4.06,2.00,-1.37,-1.33,1.22,
0.684,7.11,-4.06,2.00,-1.37,-1.33,1.22,
0.685,6.80,-4.14,1.99,-1.37,-1.33,1.22,
0.685,6.80,-4.14,1.99,-1.37,-1.33,1.22,
0.692,6.80,-4.14,1.99,-1.45,-0.99,1.34,
0.693,6.80,-4.14,1.99,-1.45,-0.99,1.34,
0.693,6.47,-4.11,1.63,-1.45,-0.99,1.34,
0.694,6.47,-4.11,1.63,-1.45,-0.99,1.34,
0.702,6.47,-4.11,1.63,-1.48,-0.70,1.44,
0.703,6.47,-4.11,1.63,-1.48,-0.70,1.44,
0.704,6.25,-3.96,-0.29,-1.48,-0.70,1.44,
0.705,6.25,-3.96,-0.29,-1.48,-0.70,1.44,
0.711,6.25,-3.96,-0.29,-1.45,-0.49,1.50,
0.713,6.25,-3.96,-0.29,-1.45,-0.49,1.50,
0.713,6.20,-3.72,-0.70,-1.45,-0.49,1.50,
0.714,6.20,-3.72,-0.70,-1.45,-0.49,1.50,
0.721,6.20,-3.72,-0.70,-1.35,-0.41,1.52,
0.722,6.20,-3.72,-0.70,-1.35,-0.41,1.52,
0.723,6.32,-3.39,-2.21,-1.35,-0.41,1.52,
0.724,6.32,-3.39,-2.21,-1.35,-0.41,1.52,
0.73,6.32,-3.39,-2.21,-1.35,-0.41,1.52,
0.73,6.32,-3.39,-2.21,-1.35,-0.41,1.52,
0.731,6.32,-3.39,-2.21,-1.35,-0.41,1.52,
0.731,6.32,-3.39,-2.21,-1.35,-0.41,1.52,
0.74,6.32,-3.39,-2.21,-1.19,-0.51,1.48,
0.74,6.32,-3.39,-2.21,-1.19,-0.51,1.48,
0.741,6.91,-2.76,-4.37,-1.19,-0.51,1.48,
0.741,6.91,-2.76,-4.37,-1.19,-0.51,1.48,
0.749,6.91,-2.76,-4.37,-0.97,-0.83,1.36,
0.75,6.91,-2.76,-4.37,-0.97,-0.83,1.36,
0.75,6.80,-2.52,-6.14,-0.97,-0.83,1.36,
0.751,6.80,-2.52,-6.14,-0.97,-0.83,1.36,
0.758,6.80,-2.52,-6.14,-0.71,-1.40,1.15,
0.759,6.80,-2.52,-6.14,-0.71,-1.40,1.15,
0.76,6.41,-2.36,-6.45,-0.71,-1.40,1.15,
0.76,6.41,-2.36,-6.45,-0.71,-1.40,1.15,
0.768,6.41,-2.36,-6.45,-0.44,-2.22,0.85,
0.77,6.41,-2.36,-6.45,-0.44,-2.22,0.85,
0.771,5.79,-2.35,-6.88,-0.44,-2.22,0.85,
0.772,5.79,-2.35,-6.88,-0.44,-2.22,0.85,
0.777,5.79,-2.35,-6.88,-0.21,-3.16,0.49,
0.779,5.79,-2.35,-6.88,-0.21,-3.16,0.49,
0.779,5.07,-2.44,-7.29,-0.21,-3.16,0.49,
0.78,5.07,-2.44,-7.29,-0.21,-3.16,0.49,
0.79,5.07,-2.44,-7.29,-0.06,-4.01,0.34,
0.791,5.07,-2.44,-7.29,-0.06,-4.01,0.34,
0.792,4.36,-2.60,-7.57,-0.06,-4.01,0.34,
0.792,4.36,-2.60,-7.57,-0.06,-4.01,0.34,
0.797,4.36,-2.60,-7.57,-0.02,-4.64,0.38,
0.798,4.36,-2.60,-7.57,-0.02,-4.64,0.38,
0.798,3.75,-2.79,-7.64,-0.02,-4.64,0.38,
0.799,3.75,-2.79,-7.64,-0.02,-4.64,0.38,
0.806,3.75,-2.79,-7.64,-0.07,-5.05,0.25,
0.807,3.75,-2.79,-7.64,-0.07,-5.05,0.25,
0.807,3.33,-2.94,-7.54,-0.07,-5.05,0.25,
0.808,3.33,-2.94,-7.54,-0.07,-5.05,0.25,
0.816,3.33,-2.94,-7.54,-0.19,-5.24,0.04,
0.816,3.33,-2.94,-7.54,-0.19,-5.24,0.04,
0.817,3.12,-3.05,-7.27,-0.19,-5.24,0.04,
0.818,3.12,-3.05,-7.27,-0.19,-5.24,0.04,
0.825,3.12,-3.05,-7.27,-0.36,-5.26,-0.03,
0.826,3.12,-3.05,-7.27,-0.36,-5.26,-0.03,
0.827,3.03,-3.10,-6.89,-0.36,-5.26,-0.03,
0.827,3.03,-3.10,-6.89,-0.36,-5.26,-0.03,
0.836,3.03,-3.10,-6.89,-0.54,-5.10,0.02,
0.837,3.03,-3.10,-6.89,-0.54,-5.10,0.02,
0.837,2.98,-3.05,-6.42,-0.54,-5.10,0.02,
0.838,2.98,-3.05,-6.42,-0.54,-5.10,0.02,
0.844,2.98,-3.05,-6.42,-0.68,-4.76,0.16,
0.845,2.98,-3.05,-6.42,-0.68,-4.76,0.16,
0.845,2.88,-2.89,-5.88,-0.68,-4.76,0.16,
0.846,2.88,-2.89,-5.88,-0.68,-4.76,0.16,
0.854,2.88,-2.89,-5.88,-0.75,-4.26,0.35,
0.855,2.88,-2.89,-5.88,-0.75,-4.26,0.35,
0.855,2.73,-2.61,-5.30,-0.75,-4.26,0.35,
0.856,2.73,-2.61,-5.30,-0.75,-4.26,0.35,
0.863,2.73,-2.61,-5.30,-0.69,-3.61,0.55,
0.864,2.73,-2.61,-5.30,-0.69,-3.61,0.55,
0.864,2.55,-2.30,-4.79,-0.69,-3.61,0.55,
0.865,2.55,-2.30,-4.79,-0.69,-3.61,0.55,
0.873,2.55,-2.30,-4.79,-0.51,-2.85,0.69,
0.874,2.55,-2.30,-4.79,-0.51,-2.85,0.69,
0.875,2.38,-2.06,-4.49,-0.51,-2.85,0.69,
0.875,2.38,-2.06,-4.49,-0.51,-2.85,0.69,
0.883,2.38,-2.06,-4.49,-0.24,-2.04,0.77,
0.883,2.38,-2.06,-4.49,-0.24,-2.04,0.77,
0.884,2.21,-1.95,-4.46,-0.24,-2.04,0.77,
0.884,2.21,-1.95,-4.46,-0.24,-2.04,0.77,
0.892,2.21,-1.95,-4.46,0.04,-1.30,0.77,
0.892,2.21,-1.95,-4.46,0.04,-1.30,0.77,
0.893,2.01,-1.98,-4.72,0.04,-1.30,0.77,
0.894,2.01,-1.98,-4.72,0.04,-1.30,0.77,
0.901,2.01,-1.98,-4.72,0.28,-0.70,0.73,
0.903,2.01,-1.98,-4.72,0.28,-0.70,0.73,
0.904,1.84,-2.15,-5.21,0.28,-0.70,0.73,
0.905,1.84,-2.15,-5.21,0.28,-0.70,0.73,
0.911,1.84,-2.15,-5.21,0.42,-0.34,0.69,
0.912,1.84,-2.15,-5.21,0.42,-0.34,0.69,
0.913,1.76,-2.45,-6.52,0.42,-0.34,0.69,
0.914,1.76,-2.45,-6.52,0.42,-0.34,0.69,
0.921,1.76,-2.45,-6.52,0.45,-0.29,0.69,
0.922,1.76,-2.45,-6.52,0.45,-0.29,0.69,
0.923,1.86,-2.81,-6.77,0.45,-0.29,0.69,
0.923,1.86,-2.81,-6.77,0.45,-0.29,0.69,
0.93,1.86,-2.81,-6.77,0.45,-0.29,0.69,
0.93,1.86,-2.81,-6.77,0.45,-0.29,0.69,
0.931,1.86,-2.81,-6.77,0.45,-0.29,0.69,
0.931,1.86,-2.81,-6.77,0.45,-0.29,0.69,
0.939,1.86,-2.81,-6.77,0.36,-0.58,0.77,
0.94,1.86,-2.81,-6.77,0.36,-0.58,0.77,
0.941,3.64,-3.25,-7.80,0.36,-0.58,0.77,
0.941,3.64,-3.25,-7.80,0.36,-0.58,0.77,
0.95,3.64,-3.25,-7.80,0.15,-1.19,0.93,
0.951,3.64,-3.25,-7.80,0.15,-1.19,0.93,
0.951,5.22,-2.96,-8.18,0.15,-1.19,0.93,
0.951,5.22,-2.96,-8.18,0.15,-1.19,0.93,
0.958,5.22,-2.96,-8.18,-0.14,-2.07,1.14,
0.959,5.22,-2.96,-8.18,-0.14,-2.07,1.14,
0.96,5.26,-2.43,-8.34,-0.14,-2.07,1.14,
0.961,5.26,-2.43,-8.34,-0.14,-2.07,1.14,
0.968,5.26,-2.43,-8.34,-0.47,-3.02,1.31,
0.969,5.26,-2.43,-8.34,-0.47,-3.02,1.31,
0.97,5.43,-1.84,-8.17,-0.47,-3.02,1.31,
0.971,5.43,-1.84,-8.17,-0.47,-3.02,1.31,
0.978,5.43,-1.84,-8.17,-0.71,-3.79,1.33,
0.979,5.43,-1.84,-8.17,-0.71,-3.79,1.33,
0.979,5.52,-1.40,-7.69,-0.71,-3.79,1.33,
0.98,5.52,-1.40,-7.69,-0.71,-3.79,1.33,
0.987,5.52,-1.40,-7.69,-0.80,-4.22,1.17,
0.988,5.52,-1.40,-7.69,-0.80,-4.22,1.17,
0.989,5.42,-1.17,-7.02,-0.80,-4.22,1.17,
0.99,5.42,-1.17,-7.02,-0.80,-4.22,1.17,
0.997,5.42,-1.17,-7.02,-0.73,-4.27,0.88,
0.998,5.42,-1.17,-7.02,-0.73,-4.27,0.88,
0.999,5.09,-1.07,-6.27,-0.73,-4.27,0.88,
0.999,5.09,-1.07,-6.27,-0.73,-4.27,0.88,
1.006,5.09,-1.07,-6.27,-0.54,-4.00,0.56,
1.007,5.09,-1.07,-6.27,-0.54,-4.00,0.56,
1.008,4.57,-1.00,-5.59,-0.54,-4.00,0.56,
1.009,4.57,-1.00,-5.59,-0.54,-4.00,0.56,
1.016,4.57,-1.00,-5.59,-0.30,-3.50,0.28,
1.017,4.57,-1.00,-5.59,-0.30,-3.50,0.28,
1.018,3.81,-0.89,-5.11,-0.30,-3.50,0.28,
1.018,3.81,-0.89,-5.11,-0.30,-3.50,0.28,
1.025,3.81,-0.89,-5.11,-0.07,-2.87,0.07,
1.026,3.81,-0.89,-5.11,-0.07,-2.87,0.07,
1.027,2.23,-0.73,-4.89,-0.07,-2.87,0.07,
1.027,2.23,-0.73,-4.89,-0.07,-2.87,0.07,
1.035,2.23,-0.73,-4.89,0.14,-2.20,-0.08,
1.036,2.23,-0.73,-4.89,0.14,-2.20,-0.08,
1.036,1.79,-0.52,-4.94,0.14,-2.20,-0.08,
1.037,1.79,-0.52,-4.94,0.14,-2.20,-0.08,
1.044,1.79,-0.52,-4.94,0.29,-1.59,-0.18,
1.045,1.79,-0.52,-4.94,0.29,-1.59,-0.18,
1.046,1.34,-0.30,-5.25,0.29,-1.59,-0.18,
1.047,1.34,-0.30,-5.25,0.29,-1.59,-0.18,
1.055,1.34,-0.30,-5.25,0.38,-1.12,-0.27,
1.056,1.34,-0.30,-5.25,0.38,-1.12,-0.27,
1.057,1.12,-0.09,-6.77,0.38,-1.12,-0.27,
1.058,1.12,-0.09,-6.77,0.38,-1.12,-0.27,
1.063,1.12,-0.09,-6.77,0.41,-0.86,-0.37,
1.064,1.12,-0.09,-6.77,0.41,-0.86,-0.37,
1.064,1.03,0.20,-6.94,0.41,-0.86,-0.37,
1.065,1.03,0.20,-6.94,0.41,-0.86,-0.37,
1.073,1.03,0.20,-6.94,0.37,-0.88,-0.48,
1.073,1.03,0.20,-6.94,0.37,-0.88,-0.48,
1.074,1.00,0.53,-8.33,0.37,-0.88,-0.48,
1.074,1.00,0.53,-8.33,0.37,-0.88,-0.48,
1.083,1.00,0.53,-8.33,0.28,-1.19,-0.60,
1.084,1.00,0.53,-8.33,0.28,-1.19,-0.60,
1.084,1.00,0.90,-9.85,0.28,-1.19,-0.60,
1.085,1.00,0.90,-9.85,0.28,-1.19,-0.60,
1.092,1.00,0.90,-9.85,0.16,-1.78,-0.72,
1.093,1.00,0.90,-9.85,0.16,-1.78,-0.72,
1.093,1.10,1.30,-9.92,0.16,-1.78,-0.72,
1.094,1.10,1.30,-9.92,0.16,-1.78,-0.72,
1.101,1.10,1.30,-9.92,0.13,-2.57,-0.76,
1.102,1.10,1.30,-9.92,0.13,-2.57,-0.76,
1.103,1.34,1.65,-10.12,0.13,-2.57,-0.76,
1.104,1.34,1.65,-10.12,0.13,-2.57,-0.76,
1.111,1.34,1.65,-10.12,0.02,-3.41,-0.84,
1.112,1.34,1.65,-10.12,0.02,-3.41,-0.84,
1.113,1.64,1.91,-10.09,0.02,-3.41,-0.84,
1.113,1.64,1.91,-10.09,0.02,-3.41,-0.84,
1.121,1.64,1.91,-10.09,-0.27,-4.10,-0.98,
1.122,1.64,1.91,-10.09,-0.27,-4.10,-0.98,
1.122,1.85,2.09,-9.62,-0.27,-4.10,-0.98,
1.123,1.85,2.09,-9.62,-0.27,-4.10,-0.98,
1.13,1.85,2.09,-9.62,-0.27,-4.10,-0.98,
1.131,1.85,2.09,-9.62,-0.27,-4.10,-0.98,
1.131,1.85,2.09,-9.62,-0.27,-4.10,-0.98,
1.132,1.85,2.09,-9.62,-0.27,-4.10,-0.98,
1.139,1.85,2.09,-9.62,-0.54,-4.49,-1.06,
1.141,1.85,2.09,-9.62,-0.54,-4.49,-1.06,
1.142,1.70,2.20,-7.19,-0.54,-4.49,-1.06,
1.142,1.70,2.20,-7.19,-0.54,-4.49,-1.06,
1.149,1.70,2.20,-7.19,-0.56,-4.52,-1.06,
1.15,1.70,2.20,-7.19,-0.56,-4.52,-1.06,
1.151,1.26,2.20,-5.35,-0.56,-4.52,-1.06,
1.151,1.26,2.20,-5.35,-0.56,-4.52,-1.06,
1.158,1.26,2.20,-5.35,-0.35,-4.14,-1.04,
1.159,1.26,2.20,-5.35,-0.35,-4.14,-1.04,
1.16,0.80,2.11,-4.62,-0.35,-4.14,-1.04,
1.16,0.80,2.11,-4.62,-0.35,-4.14,-1.04,
1.168,0.80,2.11,-4.62,-0.25,-3.38,-1.08,
1.169,0.80,2.11,-4.62,-0.25,-3.38,-1.08,
1.169,0.40,1.99,-4.00,-0.25,-3.38,-1.08,
1.17,0.40,1.99,-4.00,-0.25,-3.38,-1.08,
1.177,0.40,1.99,-4.00,-0.20,-2.43,-1.13,
1.178,0.40,1.99,-4.00,-0.20,-2.43,-1.13,
1.179,0.11,1.78,-3.55,-0.20,-2.43,-1.13,
1.179,0.11,1.78,-3.55,-0.20,-2.43,-1.13,
1.188,0.11,1.78,-3.55,-0.13,-1.51,-1.14,
1.189,0.11,1.78,-3.55,-0.13,-1.51,-1.14,
1.19,-0.08,1.51,-3.31,-0.13,-1.51,-1.14,
1.191,-0.08,1.51,-3.31,-0.13,-1.51,-1.14,
1.196,-0.08,1.51,-3.31,-0.09,-0.78,-1.07,
1.197,-0.08,1.51,-3.31,-0.09,-0.78,-1.07,
1.198,-0.21,1.19,-3.23,-0.09,-0.78,-1.07,
1.198,-0.21,1.19,-3.23,-0.09,-0.78,-1.07,
1.206,-0.21,1.19,-3.23,-0.07,-0.24,-0.94,
1.206,-0.21,1.19,-3.23,-0.07,-0.24,-0.94,
1.207,-0.35,0.84,-3.26,-0.07,-0.24,-0.94,
1.207,-0.35,0.84,-3.26,-0.07,-0.24,-0.94,
1.216,-0.35,0.84,-3.26,-0.08,0.11,-0.73,
1.216,-0.35,0.84,-3.26,-0.08,0.11,-0.73,
1.216,-0.60,0.52,-3.42,-0.08,0.11,-0.73,
1.217,-0.60,0.52,-3.42,-0.08,0.11,-0.73,
1.225,-0.60,0.52,-3.42,-0.11,0.29,-0.46,
1.226,-0.60,0.52,-3.42,-0.11,0.29,-0.46,
1.226,-0.92,0.28,-3.73,-0.11,0.29,-0.46,
1.226,-0.92,0.28,-3.73,-0.11,0.29,-0.46,
1.234,-0.92,0.28,-3.73,-0.14,0.28,-0.16,
1.235,-0.92,0.28,-3.73,-0.14,0.28,-0.16,
1.235,-1.28,0.14,-4.11,-0.14,0.28,-0.16,
1.236,-1.28,0.14,-4.11,-0.14,0.28,-0.16,
1.244,-1.28,0.14,-4.11,-0.18,0.12,0.15,
1.245,-1.28,0.14,-4.11,-0.18,0.12,0.15,
1.245,-1.64,0.07,-4.55,-0.18,0.12,0.15,
1.246,-1.64,0.07,-4.55,-0.18,0.12,0.15,
1.254,-1.64,0.07,-4.55,-0.16,-0.20,0.13,
1.255,-1.64,0.07,-4.55,-0.16,-0.20,0.13,
1.256,-1.87,0.09,-5.03,-0.16,-0.20,0.13,
1.256,-1.87,0.09,-5.03,-0.16,-0.20,0.13,
1.263,-1.87,0.09,-5.03,-0.16,-0.64,0.12,
1.264,-1.87,0.09,-5.03,-0.16,-0.64,0.12,
1.264,-1.95,0.12,-5.43,-0.16,-0.64,0.12,
1.265,-1.95,0.12,-5.43,-0.16,-0.64,0.12,
1.274,-1.95,0.12,-5.43,-0.27,-1.17,0.38,
1.275,-1.95,0.12,-5.43,-0.27,-1.17,0.38,
1.275,-1.93,0.16,-5.84,-0.27,-1.17,0.38,
1.276,-1.93,0.16,-5.84,-0.27,-1.17,0.38,
1.282,-1.93,0.16,-5.84,-0.38,-1.74,0.58,
1.283,-1.93,0.16,-5.84,-0.38,-1.74,0.58,
1.284,-1.82,0.16,-6.07,-0.38,-1.74,0.58,
1.284,-1.82,0.16,-6.07,-0.38,-1.74,0.58,
1.291,-1.82,0.16,-6.07,-0.33,-2.28,0.71,
1.292,-1.82,0.16,-6.07,-0.33,-2.28,0.71,
1.293,-1.68,0.06,-6.17,-0.33,-2.28,0.71,
1.294,-1.68,0.06,-6.17,-0.33,-2.28,0.71,
1.301,-1.68,0.06,-6.17,-0.24,-2.72,0.79,
1.302,-1.68,0.06,-6.17,-0.24,-2.72,0.79,
1.303,-1.59,-0.09,-6.13,-0.24,-2.72,0.79,
1.304,-1.59,-0.09,-6.13,-0.24,-2.72,0.79,
1.311,-1.59,-0.09,-6.13,-0.27,-3.03,0.81,
1.313,-1.59,-0.09,-6.13,-0.27,-3.03,0.81,
1.314,-1.54,-0.26,-5.97,-0.27,-3.03,0.81,
1.314,-1.54,-0.26,-5.97,-0.27,-3.03,0.81,
1.321,-1.54,-0.26,-5.97,-0.25,-3.17,0.82,
1.321,-1.54,-0.26,-5.97,-0.25,-3.17,0.82,
1.322,-1.58,-0.40,-5.82,-0.25,-3.17,0.82,
1.323,-1.58,-0.40,-5.82,-0.25,-3.17,0.82,
1.33,-1.58,-0.40,-5.82,-0.25,-3.17,0.82,
1.33,-1.58,-0.40,-5.82,-0.25,-3.17,0.82,
1.331,-1.58,-0.40,-5.82,-0.25,-3.17,0.82,
1.331,-1.58,-0.40,-5.82,-0.25,-3.17,0.82,
1.339,-1.58,-0.40,-5.82,-0.18,-3.17,0.82,
1.34,-1.58,-0.40,-5.82,-0.18,-3.17,0.82,
1.341,-1.82,-0.62,-5.60,-0.18,-3.17,0.82,
1.341,-1.82,-0.62,-5.60,-0.18,-3.17,0.82,
1.349,-1.82,-0.62,-5.60,-0.09,-3.05,0.82,
1.35,-1.82,-0.62,-5.60,-0.09,-3.05,0.82,
1.35,-1.92,-0.72,-5.33,-0.09,-3.05,0.82,
1.351,-1.92,-0.72,-5.33,-0.09,-3.05,0.82,
1.358,-1.92,-0.72,-5.33,0.02,-2.87,0.82,
1.359,-1.92,-0.72,-5.33,0.02,-2.87,0.82,
1.359,-1.92,-0.82,-4.96,0.02,-2.87,0.82,
1.36,-1.92,-0.82,-4.96,0.02,-2.87,0.82,
1.368,-1.92,-0.82,-4.96,0.14,-2.66,0.81,
1.369,-1.92,-0.82,-4.96,0.14,-2.66,0.81,
1.369,-1.84,-0.92,-4.51,0.14,-2.66,0.81,
1.37,-1.84,-0.92,-4.51,0.14,-2.66,0.81,
1.378,-1.84,-0.92,-4.51,0.25,-2.41,0.79,
1.378,-1.84,-0.92,-4.51,0.25,-2.41,0.79,
1.379,-1.70,-1.08,-4.02,0.25,-2.41,0.79,
1.38,-1.70,-1.08,-4.02,0.25,-2.41,0.79,
1.387,-1.70,-1.08,-4.02,0.37,-2.12,0.75,
1.388,-1.70,-1.08,-4.02,0.37,-2.12,0.75,
1.389,-1.52,-1.31,-3.51,0.37,-2.12,0.75,
1.389,-1.52,-1.31,-3.51,0.37,-2.12,0.75,
1.396,-1.52,-1.31,-3.51,0.49,-1.79,0.70,
1.397,-1.52,-1.31,-3.51,0.49,-1.79,0.70,
1.398,-1.36,-1.61,-3.00,0.49,-1.79,0.70,
1.398,-1.36,-1.61,-3.00,0.49,-1.79,0.70,
1.406,-1.36,-1.61,-3.00,0.65,-1.41,0.64,
1.407,-1.36,-1.61,-3.00,0.65,-1.41,0.64,
1.407,-1.23,-1.92,-2.48,0.65,-1.41,0.64,
1.408,-1.23,-1.92,-2.48,0.65,-1.41,0.64,
1.416,-1.23,-1.92,-2.48,0.82,-1.01,0.60,
1.416,-1.23,-1.92,-2.48,0.82,-1.01,0.60,
1.417,-1.19,-2.23,-1.94,0.82,-1.01,0.60,
1.417,-1.19,-2.23,-1.94,0.82,-1.01,0.60,
1.425,-1.19,-2.23,-1.94,1.00,-0.60,0.61,
1.426,-1.19,-2.23,-1.94,1.00,-0.60,0.61,
1.427,-1.24,-2.47,-1.39,1.00,-0.60,0.61,
1.427,-1.24,-2.47,-1.39,1.00,-0.60,0.61,
1.435,-1.24,-2.47,-1.39,1.19,-0.20,0.64,
1.436,-1.24,-2.47,-1.39,1.19,-0.20,0.64,
1.437,-1.36,-2.61,-0.92,1.19,-0.20,0.64,
1.437,-1.36,-2.61,-0.92,1.19,-0.20,0.64,
1.444,-1.36,-2.61,-0.92,1.39,0.16,0.70,
1.445,-1.36,-2.61,-0.92,1.39,0.16,0.70,
1.445,-1.65,-2.70,-0.60,1.39,0.16,0.70,
1.446,-1.65,-2.70,-0.60,1.39,0.16,0.70,
1.454,-1.65,-2.70,-0.60,1.58,0.47,0.75,
1.455,-1.65,-2.70,-0.60,1.58,0.47,0.75,
1.456,-3.71,-2.77,-2.19,1.58,0.47,0.75,
1.456,-3.71,-2.77,-2.19,1.58,0.47,0.75,
1.463,-3.71,-2.77,-2.19,1.71,0.61,0.81,
1.464,-3.71,-2.77,-2.19,1.71,0.61,0.81,
1.464,-5.29,-2.86,-2.28,1.71,0.61,0.81,
1.465,-5.29,-2.86,-2.28,1.71,0.61,0.81,
1.472,-5.29,-2.86,-2.28,1.72,0.43,0.92,
1.473,-5.29,-2.86,-2.28,1.72,0.43,0.92,
1.474,-4.97,-3.03,-2.17,1.72,0.43,0.92,
1.474,-4.97,-3.03,-2.17,1.72,0.43,0.92,
1.482,-4.97,-3.03,-2.17,1.58,-0.14,1.12,
1.483,-4.97,-3.03,-2.17,1.58,-0.14,1.12,
1.483,-2.90,-3.20,-2.27,1.58,-0.14,1.12,
1.483,-2.90,-3.20,-2.27,1.58,-0.14,1.12,
1.491,-2.90,-3.20,-2.27,1.35,-0.88,1.38,
1.492,-2.90,-3.20,-2.27,1.35,-0.88,1.38,
1.492,-1.37,-3.08,-3.76,1.35,-0.88,1.38,
1.493,-1.37,-3.08,-3.76,1.35,-0.88,1.38,
1.501,-1.37,-3.08,-3.76,1.14,-1.46,1.55,
1.502,-1.37,-3.08,-3.76,1.14,-1.46,1.55,
1.503,-0.86,-2.65,-6.85,1.14,-1.46,1.55,
1.503,-0.86,-2.65,-6.85,1.14,-1.46,1.55,
1.511,-0.86,-2.65,-6.85,0.98,-1.81,1.52,
1.512,-0.86,-2.65,-6.85,0.98,-1.81,1.52,
1.513,-0.84,-1.10,-10.08,0.98,-1.81,1.52,
1.514,-0.84,-1.10,-10.08,0.98,-1.81,1.52,
1.52,-0.84,-1.10,-10.08,0.98,-1.81,1.52,
1.522,-0.84,-1.10,-10.08,0.98,-1.81,1.52,
1.523,-0.84,-1.10,-10.08,0.98,-1.81,1.52,
1.523,-0.84,-1.10,-10.08,0.98,-1.81,1.52,
1.53,-0.84,-1.10,-10.08,0.74,-2.11,1.23,
1.53,-0.84,-1.10,-10.08,0.74,-2.11,1.23,
1.531,-2.58,0.80,-7.93,0.74,-2.11,1.23,
1.531,-2.58,0.80,-7.93,0.74,-2.11,1.23,
1.539,-2.58,0.80,-7.93,0.54,-2.54,0.74,
1.54,-2.58,0.80,-7.93,0.54,-2.54,0.74,
1.541,-2.61,0.91,-5.53,0.54,-2.54,0.74,
1.541,-2.61,0.91,-5.53,0.54,-2.54,0.74,
1.549,-2.61,0.91,-5.53,0.49,-3.00,0.59,
1.549,-2.61,0.91,-5.53,0.49,-3.00,0.59,
1.55,-2.60,0.80,-3.32,0.49,-3.00,0.59,
1.55,-2.60,0.80,-3.32,0.49,-3.00,0.59,
1.558,-2.60,0.80,-3.32,0.55,-3.13,0.26,
1.559,-2.60,0.80,-3.32,0.55,-3.13,0.26,
1.559,-2.79,0.54,-3.02,0.55,-3.13,0.26,
1.56,-2.79,0.54,-3.02,0.55,-3.13,0.26,
1.567,-2.79,0.54,-3.02,0.46,-2.94,-0.64,
1.568,-2.79,0.54,-3.02,0.46,-2.94,-0.64,
1.569,-3.12,0.28,-2.85,0.46,-2.94,-0.64,
1.569,-3.12,0.28,-2.85,0.46,-2.94,-0.64,
1.578,-3.12,0.28,-2.85,0.26,-2.63,-1.36,
1.579,-3.12,0.28,-2.85,0.26,-2.63,-1.36,
1.579,-3.41,0.05,-2.72,0.26,-2.63,-1.36,
1.58,-3.41,0.05,-2.72,0.26,-2.63,-1.36,
1.587,-3.41,0.05,-2.72,0.20,-2.23,-1.80,
1.588,-3.41,0.05,-2.72,0.20,-2.23,-1.80,
1.589,-3.56,-0.14,-2.53,0.20,-2.23,-1.80,
1.59,-3.56,-0.14,-2.53,0.20,-2.23,-1.80,
1.596,-3.56,-0.14,-2.53,0.20,-1.93,-1.95,
1.597,-3.56,-0.14,-2.53,0.20,-1.93,-1.95,
1.598,-3.46,-0.34,-2.16,0.20,-1.93,-1.95,
1.598,-3.46,-0.34,-2.16,0.20,-1.93,-1.95,
1.606,-3.46,-0.34,-2.16,0.21,-1.74,-1.87,
1.607,-3.46,-0.34,-2.16,0.21,-1.74,-1.87,
1.607,-3.25,-0.56,-1.91,0.21,-1.74,-1.87,
1.608,-3.25,-0.56,-1.91,0.21,-1.74,-1.87,
1.615,-3.25,-0.56,-1.91,0.26,-1.59,-1.67,
1.616,-3.25,-0.56,-1.91,0.26,-1.59,-1.67,
1.617,-3.41,-2.01,-1.70,0.26,-1.59,-1.67,
1.617,-3.41,-2.01,-1.70,0.26,-1.59,-1.67,
1.637,-3.41,-2.01,-1.70,0.35,-1.44,-1.36,
1.638,-3.41,-2.01,-1.70,0.35,-1.44,-1.36,
1.639,-3.86,-2.26,-1.42,0.35,-1.44,-1.36,
1.639,-3.86,-2.26,-1.42,0.35,-1.44,-1.36,
1.64,-3.86,-2.26,-1.42,0.51,-1.29,-0.89,
1.64,-3.86,-2.26,-1.42,0.51,-1.29,-0.89,
1.641,-4.29,-2.62,-1.33,0.51,-1.29,-0.89,
1.642,-4.29,-2.62,-1.33,0.51,-1.29,-0.89,
1.644,-4.29,-2.62,-1.33,0.73,-1.18,-0.24,
1.645,-4.29,-2.62,-1.33,0.73,-1.18,-0.24,
1.645,-4.70,-2.89,-1.38,0.73,-1.18,-0.24,
1.646,-4.70,-2.89,-1.38,0.73,-1.18,-0.24,
1.655,-4.70,-2.89,-1.38,0.96,-1.16,0.50,
1.656,-4.70,-2.89,-1.38,0.96,-1.16,0.50,
1.657,-4.80,-2.76,-1.71,0.96,-1.16,0.50,
1.658,-4.80,-2.76,-1.71,0.96,-1.16,0.50,
1.663,-4.80,-2.76,-1.71,1.16,-1.24,1.20,
1.664,-4.80,-2.76,-1.71,1.16,-1.24,1.20,
1.664,-4.58,-2.20,-2.07,1.16,-1.24,1.20,
1.665,-4.58,-2.20,-2.07,1.16,-1.24,1.20,
1.672,-4.58,-2.20,-2.07,1.29,-1.39,1.75,
1.673,-4.58,-2.20,-2.07,1.29,-1.39,1.75,
1.674,-4.25,-1.69,-2.08,1.29,-1.39,1.75,
1.674,-4.25,-1.69,-2.08,1.29,-1.39,1.75,
1.682,-4.25,-1.69,-2.08,1.31,-1.55,2.06,
1.683,-4.25,-1.69,-2.08,1.31,-1.55,2.06,
1.683,-3.86,-1.37,-1.80,1.31,-1.55,2.06,
1.683,-3.86,-1.37,-1.80,1.31,-1.55,2.06,
1.692,-3.86,-1.37,-1.80,1.21,-1.64,2.08,
1.692,-3.86,-1.37,-1.80,1.21,-1.64,2.08,
1.692,-3.25,-1.15,-1.32,1.21,-1.64,2.08,
1.693,-3.25,-1.15,-1.32,1.21,-1.64,2.08,
1.701,-3.25,-1.15,-1.32,1.03,-1.60,1.83,
1.702,-3.25,-1.15,-1.32,1.03,-1.60,1.83,
1.702,-1.30,-0.91,-0.93,1.03,-1.60,1.83,
1.702,-1.30,-0.91,-0.93,1.03,-1.60,1.83,
1.711,-1.30,-0.91,-0.93,0.86,-1.36,1.37,
1.712,-1.30,-0.91,-0.93,0.86,-1.36,1.37,
1.712,-0.77,-0.66,-0.80,0.86,-1.36,1.37,
1.712,-0.77,-0.66,-0.80,0.86,-1.36,1.37,
1.72,-0.77,-0.66,-0.80,0.86,-1.36,1.37,
1.72,-0.77,-0.66,-0.80,0.86,-1.36,1.37,
1.721,-0.77,-0.66,-0.80,0.86,-1.36,1.37,
1.721,-0.77,-0.66,-0.80,0.86,-1.36,1.37,
1.73,-0.77,-0.66,-0.80,0.76,-0.88,0.75,
1.731,-0.77,-0.66,-0.80,0.76,-0.88,0.75,
1.731,-0.09,-0.49,-1.23,0.76,-0.88,0.75,
1.731,-0.09,-0.49,-1.23,0.76,-0.88,0.75,
1.739,-0.09,-0.49,-1.23,0.72,-0.21,0.06,
1.742,-0.09,-0.49,-1.23,0.72,-0.21,0.06,
1.742,-0.29,-0.61,-1.43,0.72,-0.21,0.06,
1.743,-0.29,-0.61,-1.43,0.72,-0.21,0.06,
1.749,-0.29,-0.61,-1.43,0.69,0.45,-0.52,
1.751,-0.29,-0.61,-1.43,0.69,0.45,-0.52,
1.752,-0.68,-0.78,-1.52,0.69,0.45,-0.52,
1.753,-0.68,-0.78,-1.52,0.69,0.45,-0.52,
1.759,-0.68,-0.78,-1.52,0.63,0.91,-0.88,
1.759,-0.68,-0.78,-1.52,0.63,0.91,-0.88,
1.76,-1.02,-0.90,-1.42,0.63,0.91,-0.88,
1.76,-1.02,-0.90,-1.42,0.63,0.91,-0.88,
1.768,-1.02,-0.90,-1.42,0.54,1.11,-0.98,
1.768,-1.02,-0.90,-1.42,0.54,1.11,-0.98,
1.769,-1.35,-0.96,-1.14,0.54,1.11,-0.98,
1.769,-1.35,-0.96,-1.14,0.54,1.11,-0.98,
1.778,-1.35,-0.96,-1.14,0.46,1.08,-0.88,
1.778,-1.35,-0.96,-1.14,0.46,1.08,-0.88,
1.779,-1.59,-0.93,-0.96,0.46,1.08,-0.88,
1.779,-1.59,-0.93,-0.96,0.46,1.08,-0.88,
1.787,-1.59,-0.93,-0.96,0.39,0.91,-0.67,
1.788,-1.59,-0.93,-0.96,0.39,0.91,-0.67,
1.789,-1.68,-0.84,-0.82,0.39,0.91,-0.67,
1.789,-1.68,-0.84,-0.82,0.39,0.91,-0.67,
1.796,-1.68,-0.84,-0.82,0.33,0.67,-0.41,
1.797,-1.68,-0.84,-0.82,0.33,0.67,-0.41,
1.797,-1.69,-0.69,-0.77,0.33,0.67,-0.41,
1.798,-1.69,-0.69,-0.77,0.33,0.67,-0.41,
1.806,-1.69,-0.69,-0.77,0.27,0.43,-0.18,
1.807,-1.69,-0.69,-0.77,0.27,0.43,-0.18,
1.807,-1.61,-0.52,-0.87,0.27,0.43,-0.18,
1.807,-1.61,-0.52,-0.87,0.27,0.43,-0.18,
1.815,-1.61,-0.52,-0.87,0.22,0.20,-0.00,
1.816,-1.61,-0.52,-0.87,0.22,0.20,-0.00,
1.816,-1.50,-0.39,-0.91,0.22,0.20,-0.00,
1.816,-1.50,-0.39,-0.91,0.22,0.20,-0.00,
1.825,-1.50,-0.39,-0.91,0.16,0.00,0.09,
1.825,-1.50,-0.39,-0.91,0.16,0.00,0.09,
1.826,-1.35,-0.34,-0.95,0.16,0.00,0.09,
1.826,-1.35,-0.34,-0.95,0.16,0.00,0.09,
1.835,-1.35,-0.34,-0.95,0.10,-0.17,0.10,
1.836,-1.35,-0.34,-0.95,0.10,-0.17,0.10,
1.836,-1.29,-0.31,-0.92,0.10,-0.17,0.10,
1.836,-1.29,-0.31,-0.92,0.10,-0.17,0.10,
1.844,-1.29,-0.31,-0.92,0.04,-0.30,0.08,
1.844,-1.29,-0.31,-0.92,0.04,-0.30,0.08,
1.845,-1.36,-0.13,-0.87,0.04,-0.30,0.08,
1.845,-1.36,-0.13,-0.87,0.04,-0.30,0.08,
1.854,-1.36,-0.13,-0.87,-0.03,-0.39,0.06,
1.855,-1.36,-0.13,-0.87,-0.03,-0.39,0.06,
1.855,-1.25,-0.02,-0.87,-0.03,-0.39,0.06,
1.855,-1.25,-0.02,-0.87,-0.03,-0.39,0.06,
1.863,-1.25,-0.02,-0.87,-0.10,-0.45,0.06,
1.864,-1.25,-0.02,-0.87,-0.10,-0.45,0.06,
1.864,-1.06,-0.04,-0.81,-0.10,-0.45,0.06,
1.865,-1.06,-0.04,-0.81,-0.10,-0.45,0.06,
1.872,-1.06,-0.04,-0.81,-0.17,-0.50,0.07,
1.873,-1.06,-0.04,-0.81,-0.17,-0.50,0.07,
1.874,-0.83,-0.16,-0.80,-0.17,-0.50,0.07,
1.874,-0.83,-0.16,-0.80,-0.17,-0.50,0.07,
1.882,-0.83,-0.16,-0.80,-0.23,-0.51,0.09,
1.882,-0.83,-0.16,-0.80,-0.23,-0.51,0.09,
1.883,-0.48,-0.54,-0.71,-0.23,-0.51,0.09,
1.883,-0.48,-0.54,-0.71,-0.23,-0.51,0.09,
1.891,-0.48,-0.54,-0.71,-0.25,-0.48,0.12,
1.892,-0.48,-0.54,-0.71,-0.25,-0.48,0.12,
1.892,-0.24,-0.83,-0.43,-0.25,-0.48,0.12,
1.893,-0.24,-0.83,-0.43,-0.25,-0.48,0.12,
1.901,-0.24,-0.83,-0.43,-0.20,-0.39,0.19,
1.902,-0.24,-0.83,-0.43,-0.20,-0.39,0.19,
1.902,-0.01,-0.93,0.01,-0.20,-0.39,0.19,
1.903,-0.01,-0.93,0.01,-0.20,-0.39,0.19,
1.911,-0.01,-0.93,0.01,-0.10,-0.24,0.30,
1.912,-0.01,-0.93,0.01,-0.10,-0.24,0.30,
1.912,0.28,-0.91,0.51,-0.10,-0.24,0.30,
1.912,0.28,-0.91,0.51,-0.10,-0.24,0.30,
1.92,0.28,-0.91,0.51,-0.10,-0.24,0.30,
1.921,0.28,-0.91,0.51,-0.10,-0.24,0.30,
1.921,0.28,-0.91,0.51,-0.10,-0.24,0.30,
1.921,0.28,-0.91,0.51,-0.10,-0.24,0.30,
1.929,0.28,-0.91,0.51,0.05,-0.04,0.44,
1.931,0.28,-0.91,0.51,0.05,-0.04,0.44,
1.931,0.47,-0.42,1.00,0.05,-0.04,0.44,
1.932,0.47,-0.42,1.00,0.05,-0.04,0.44,
1.941,0.47,-0.42,1.00,0.19,0.21,0.54,
1.942,0.47,-0.42,1.00,0.19,0.21,0.54,
1.942,0.30,-0.04,0.88,0.19,0.21,0.54,
1.942,0.30,-0.04,0.88,0.19,0.21,0.54,
1.948,0.30,-0.04,0.88,0.28,0.46,0.57,
1.949,0.30,-0.04,0.88,0.28,0.46,0.57,
1.949,-0.01,0.39,0.69,0.28,0.46,0.57,
1.95,-0.01,0.39,0.69,0.28,0.46,0.57,
1.958,-0.01,0.39,0.69,0.27,0.66,0.51,
1.959,-0.01,0.39,0.69,0.27,0.66,0.51,
1.959,-0.35,0.79,0.56,0.27,0.66,0.51,
1.96,-0.35,0.79,0.56,0.27,0.66,0.51,
1.967,-0.35,0.79,0.56,0.15,0.74,0.39,
1.968,-0.35,0.79,0.56,0.15,0.74,0.39,
1.969,-0.63,1.14,0.70,0.15,0.74,0.39,
1.969,-0.63,1.14,0.70,0.15,0.74,0.39,
1.977,-0.63,1.14,0.70,-0.06,0.68,0.24,
1.978,-0.63,1.14,0.70,-0.06,0.68,0.24,
1.979,-0.96,1.59,2.43,-0.06,0.68,0.24,
1.979,-0.96,1.59,2.43,-0.06,0.68,0.24,
1.987,-0.96,1.59,2.43,-0.31,0.53,0.05,
1.988,-0.96,1.59,2.43,-0.31,0.53,0.05,
1.989,-1.29,1.85,2.41,-0.31,0.53,0.05,
1.99,-1.29,1.85,2.41,-0.31,0.53,0.05,
1.996,-1.29,1.85,2.41,-0.54,0.38,-0.18,
1.997,-1.29,1.85,2.41,-0.54,0.38,-0.18,
1.998,-1.46,2.04,0.76,-0.54,0.38,-0.18,
1.998,-1.46,2.04,0.76,-0.54,0.38,-0.18,
2.006,-1.46,2.04,0.76,-0.76,0.24,-0.45,
2.008,-1.46,2.04,0.76,-0.76,0.24,-0.45,
2.009,-1.87,2.31,0.36,-0.76,0.24,-0.45,
2.01,-1.87,2.31,0.36,-0.76,0.24,-0.45,
2.015,-1.87,2.31,0.36,-0.96,0.03,-0.72,
2.016,-1.87,2.31,0.36,-0.96,0.03,-0.72,
2.017,-2.15,2.36,-1.28,-0.96,0.03,-0.72,
2.017,-2.15,2.36,-1.28,-0.96,0.03,-0.72,
2.025,-2.15,2.36,-1.28,-1.19,-0.38,-0.93,
2.026,-2.15,2.36,-1.28,-1.19,-0.38,-0.93,
2.026,-2.11,2.49,-1.55,-1.19,-0.38,-0.93,
2.027,-2.11,2.49,-1.55,-1.19,-0.38,-0.93,
2.038,-2.11,2.49,-1.55,-1.40,-0.95,-1.06,
2.039,-2.11,2.49,-1.55,-1.40,-0.95,-1.06,
2.04,-2.14,2.49,-1.17,-1.40,-0.95,-1.06,
2.041,-2.14,2.49,-1.17,-1.40,-0.95,-1.06,
2.044,-2.14,2.49,-1.17,-1.57,-1.52,-1.09,
2.044,-2.14,2.49,-1.17,-1.57,-1.52,-1.09,
2.044,-1.69,2.31,-0.65,-1.57,-1.52,-1.09,
2.045,-1.69,2.31,-0.65,-1.57,-1.52,-1.09,
2.054,-1.69,2.31,-0.65,-1.64,-1.91,-1.06,
2.055,-1.69,2.31,-0.65,-1.64,-1.91,-1.06,
2.055,-0.14,2.02,-0.17,-1.64,-1.91,-1.06,
2.055,-0.14,2.02,-0.17,-1.64,-1.91,-1.06,
2.063,-0.14,2.02,-0.17,-1.59,-1.99,-1.05,
2.064,-0.14,2.02,-0.17,-1.59,-1.99,-1.05,
2.064,0.06,1.80,0.16,-1.59,-1.99,-1.05,
2.064,0.06,1.80,0.16,-1.59,-1.99,-1.05,
2.072,0.06,1.80,0.16,-1.39,-1.71,-1.08,
2.073,0.06,1.80,0.16,-1.39,-1.71,-1.08,
2.074,0.24,1.66,0.47,-1.39,-1.71,-1.08,
2.074,0.24,1.66,0.47,-1.39,-1.71,-1.08,
2.082,0.24,1.66,0.47,-1.09,-1.15,-1.14,
2.083,0.24,1.66,0.47,-1.09,-1.15,-1.14,
2.083,0.25,1.51,0.73,-1.09,-1.15,-1.14,
2.084,0.25,1.51,0.73,-1.09,-1.15,-1.14,
2.091,0.25,1.51,0.73,-0.75,-0.50,-1.15,
2.092,0.25,1.51,0.73,-0.75,-0.50,-1.15,
2.093,0.13,1.39,0.92,-0.75,-0.50,-1.15,
2.093,0.13,1.39,0.92,-0.75,-0.50,-1.15,
2.101,0.13,1.39,0.92,-0.46,0.07,-1.06,
2.102,0.13,1.39,0.92,-0.46,0.07,-1.06,
2.103,0.03,1.11,1.11,-0.46,0.07,-1.06,
2.103,0.03,1.11,1.11,-0.46,0.07,-1.06,
2.111,0.03,1.11,1.11,-0.22,0.49,-0.90,
2.112,0.03,1.11,1.11,-0.22,0.49,-0.90,
2.113,0.13,0.75,1.16,-0.22,0.49,-0.90,
2.114,0.13,0.75,1.16,-0.22,0.49,-0.90,
2.12,0.13,0.75,1.16,-0.22,0.49,-0.90,
2.121,0.13,0.75,1.16,-0.22,0.49,-0.90,
2.122,0.13,0.75,1.16,-0.22,0.49,-0.90,
2.122,0.13,0.75,1.16,-0.22,0.49,-0.90,
2.13,0.13,0.75,1.16,-0.02,0.78,-0.69,
2.13,0.13,0.75,1.16,-0.02,0.78,-0.69,
2.131,0.44,0.40,0.60,-0.02,0.78,-0.69,
2.131,0.44,0.40,0.60,-0.02,0.78,-0.69,
2.144,0.44,0.40,0.60,0.15,0.95,-0.40,
2.145,0.44,0.40,0.60,0.15,0.95,-0.40,
2.145,0.45,0.23,0.24,0.15,0.95,-0.40,
2.146,0.45,0.23,0.24,0.15,0.95,-0.40,
2.152,0.45,0.23,0.24,0.30,1.04,-0.06,
2.153,0.45,0.23,0.24,0.30,1.04,-0.06,
2.153,0.44,0.09,0.02,0.30,1.04,-0.06,
2.154,0.44,0.09,0.02,0.30,1.04,-0.06,
2.159,0.44,0.09,0.02,0.42,1.05,0.29,
2.159,0.44,0.09,0.02,0.42,1.05,0.29,
2.16,0.52,-0.19,-0.03,0.42,1.05,0.29,
2.16,0.52,-0.19,-0.03,0.42,1.05,0.29,
2.168,0.52,-0.19,-0.03,0.51,0.98,0.59,
2.169,0.52,-0.19,-0.03,0.51,0.98,0.59,
2.169,0.74,-0.40,-0.05,0.51,0.98,0.59,
2.17,0.74,-0.40,-0.05,0.51,0.98,0.59,
2.177,0.74,-0.40,-0.05,0.57,0.88,0.84,
2.178,0.74,-0.40,-0.05,0.57,0.88,0.84,
2.178,0.92,-0.40,-0.07,0.57,0.88,0.84,
2.179,0.92,-0.40,-0.07,0.57,0.88,0.84,
2.187,0.92,-0.40,-0.07,0.62,0.80,1.02,
2.188,0.92,-0.40,-0.07,0.62,0.80,1.02,
2.188,0.92,-0.18,-0.06,0.62,0.80,1.02,
2.189,0.92,-0.18,-0.06,0.62,0.80,1.02,
2.196,0.92,-0.18,-0.06,0.66,0.75,1.10,
2.197,0.92,-0.18,-0.06,0.66,0.75,1.10,
2.197,0.79,0.09,0.08,0.66,0.75,1.10,
2.198,0.79,0.09,0.08,0.66,0.75,1.10,
2.206,0.79,0.09,0.08,0.66,0.73,1.09,
2.207,0.79,0.09,0.08,0.66,0.73,1.09,
2.207,0.66,0.08,0.31,0.66,0.73,1.09,
2.207,0.66,0.08,0.31,0.66,0.73,1.09,
2.215,0.66,0.08,0.31,0.60,0.71,1.00,
2.216,0.66,0.08,0.31,0.60,0.71,1.00,
2.217,0.60,-0.35,0.48,0.60,0.71,1.00,
2.217,0.60,-0.35,0.48,0.60,0.71,1.00,
2.225,0.60,-0.35,0.48,0.50,0.68,0.88,
2.225,0.60,-0.35,0.48,0.50,0.68,0.88,
2.226,0.61,-1.86,0.57,0.50,0.68,0.88,
2.226,0.61,-1.86,0.57,0.50,0.68,0.88,
2.234,0.61,-1.86,0.57,0.43,0.66,0.82,
2.235,0.61,-1.86,0.57,0.43,0.66,0.82,
2.236,0.68,-2.14,0.64,0.43,0.66,0.82,
2.236,0.68,-2.14,0.64,0.43,0.66,0.82,
2.244,0.68,-2.14,0.64,0.48,0.65,0.93,
2.245,0.68,-2.14,0.64,0.48,0.65,0.93,
2.245,0.72,-2.16,0.66,0.48,0.65,0.93,
2.246,0.72,-2.16,0.66,0.48,0.65,0.93,
2.254,0.72,-2.16,0.66,0.63,0.67,1.16,
2.255,0.72,-2.16,0.66,0.63,0.67,1.16,
2.255,0.74,-1.85,0.69,0.63,0.67,1.16,
2.256,0.74,-1.85,0.69,0.63,0.67,1.16,
2.263,0.74,-1.85,0.69,0.81,0.69,1.41,
2.264,0.74,-1.85,0.69,0.81,0.69,1.41,
2.264,0.89,-1.51,0.62,0.81,0.69,1.41,
2.264,0.89,-1.51,0.62,0.81,0.69,1.41,
2.273,0.89,-1.51,0.62,0.92,0.71,1.53,
2.274,0.89,-1.51,0.62,0.92,0.71,1.53,
2.274,0.94,-1.50,0.45,0.92,0.71,1.53,
2.274,0.94,-1.50,0.45,0.92,0.71,1.53,
2.282,0.94,-1.50,0.45,0.92,0.71,1.49,
2.283,0.94,-1.50,0.45,0.92,0.71,1.49,
2.283,0.89,-1.83,0.35,0.92,0.71,1.49,
2.283,0.89,-1.83,0.35,0.92,0.71,1.49,
2.291,0.89,-1.83,0.35,0.84,0.70,1.36,
2.292,0.89,-1.83,0.35,0.84,0.70,1.36,
2.292,0.89,-2.06,0.23,0.84,0.70,1.36,
2.293,0.89,-2.06,0.23,0.84,0.70,1.36,
2.301,0.89,-2.06,0.23,0.73,0.66,1.22,
2.302,0.89,-2.06,0.23,0.73,0.66,1.22,
2.303,0.83,-2.02,0.19,0.73,0.66,1.22,
2.303,0.83,-2.02,0.19,0.73,0.66,1.22,
2.311,0.83,-2.02,0.19,0.63,0.60,1.12,
2.312,0.83,-2.02,0.19,0.63,0.60,1.12,
2.312,0.71,-1.64,0.27,0.63,0.60,1.12,
2.313,0.71,-1.64,0.27,0.63,0.60,1.12,
2.321,0.71,-1.64,0.27,0.63,0.60,1.12,
2.322,0.71,-1.64,0.27,0.63,0.60,1.12,
2.322,0.71,-1.64,0.27,0.63,0.60,1.12,
2.323,0.71,-1.64,0.27,0.63,0.60,1.12,
2.33,0.71,-1.64,0.27,0.56,0.53,1.05,
2.331,0.71,-1.64,0.27,0.56,0.53,1.05,
2.331,0.02,0.10,0.41,0.56,0.53,1.05,
2.332,0.02,0.10,0.41,0.56,0.53,1.05,
2.339,0.02,0.10,0.41,0.45,0.43,0.94,
2.343,0.02,0.10,0.41,0.45,0.43,0.94,
2.344,-0.62,0.40,0.41,0.45,0.43,0.94,
2.345,-0.62,0.40,0.41,0.45,0.43,0.94,
2.348,-0.62,0.40,0.41,0.22,0.29,0.71,
2.349,-0.62,0.40,0.41,0.22,0.29,0.71,
2.35,-1.06,0.68,0.28,0.22,0.29,0.71,
2.35,-1.06,0.68,0.28,0.22,0.29,0.71,
2.358,-1.06,0.68,0.28,-0.13,0.07,0.37,
2.359,-1.06,0.68,0.28,-0.13,0.07,0.37,
2.359,-1.31,0.83,0.22,-0.13,0.07,0.37,
2.359,-1.31,0.83,0.22,-0.13,0.07,0.37,
2.368,-1.31,0.83,0.22,-0.53,-0.23,0.01,
2.369,-1.31,0.83,0.22,-0.53,-0.23,0.01,
2.369,-1.29,0.89,0.28,-0.53,-0.23,0.01,
2.369,-1.29,0.89,0.28,-0.53,-0.23,0.01,
2.378,-1.29,0.89,0.28,-0.88,-0.54,-0.30,
2.379,-1.29,0.89,0.28,-0.88,-0.54,-0.30,
2.379,-0.94,0.83,0.40,-0.88,-0.54,-0.30,
2.38,-0.94,0.83,0.40,-0.88,-0.54,-0.30,
2.387,-0.94,0.83,0.40,-1.14,-0.80,-0.52,
2.389,-0.94,0.83,0.40,-1.14,-0.80,-0.52,
2.39,-0.63,0.64,0.60,-1.14,-0.80,-0.52,
2.39,-0.63,0.64,0.60,-1.14,-0.80,-0.52,
2.396,-0.63,0.64,0.60,-1.29,-0.92,-0.69,
2.397,-0.63,0.64,0.60,-1.29,-0.92,-0.69,
2.397,-0.37,0.44,0.66,-1.29,-0.92,-0.69,
2.397,-0.37,0.44,0.66,-1.29,-0.92,-0.69,
2.406,-0.37,0.44,0.66,-1.30,-0.88,-0.80,
2.407,-0.37,0.44,0.66,-1.30,-0.88,-0.80,
2.408,-0.12,0.33,0.54,-1.30,-0.88,-0.80,
2.408,-0.12,0.33,0.54,-1.30,-0.88,-0.80,
2.415,-0.12,0.33,0.54,-1.21,-0.70,-0.85,
2.416,-0.12,0.33,0.54,-1.21,-0.70,-0.85,
2.417,-0.03,0.27,0.41,-1.21,-0.70,-0.85,
2.417,-0.03,0.27,0.41,-1.21,-0.70,-0.85,
2.425,-0.03,0.27,0.41,-1.04,-0.45,-0.85,
2.426,-0.03,0.27,0.41,-1.04,-0.45,-0.85,
2.426,-0.07,0.34,0.26,-1.04,-0.45,-0.85,
2.426,-0.07,0.34,0.26,-1.04,-0.45,-0.85,
2.434,-0.07,0.34,0.26,-0.85,-0.21,-0.80,
2.435,-0.07,0.34,0.26,-0.85,-0.21,-0.80,
2.436,-0.14,0.48,0.16,-0.85,-0.21,-0.80,
2.437,-0.14,0.48,0.16,-0.85,-0.21,-0.80,
2.444,-0.14,0.48,0.16,-0.68,-0.03,-0.73,
2.445,-0.14,0.48,0.16,-0.68,-0.03,-0.73,
2.445,-0.35,0.58,0.15,-0.68,-0.03,-0.73,
2.446,-0.35,0.58,0.15,-0.68,-0.03,-0.73,
2.453,-0.35,0.58,0.15,-0.54,0.08,-0.67,
2.454,-0.35,0.58,0.15,-0.54,0.08,-0.67,
2.456,-0.57,0.66,0.17,-0.54,0.08,-0.67,
2.456,-0.57,0.66,0.17,-0.54,0.08,-0.67,
2.463,-0.57,0.66,0.17,-0.46,0.10,-0.62,
2.464,-0.57,0.66,0.17,-0.46,0.10,-0.62,
2.464,-0.68,0.70,0.19,-0.46,0.10,-0.62,
2.464,-0.68,0.70,0.19,-0.46,0.10,-0.62,
2.472,-0.68,0.70,0.19,-0.41,0.07,-0.57,
2.473,-0.68,0.70,0.19,-0.41,0.07,-0.57,
2.473,-0.69,0.67,0.20,-0.41,0.07,-0.57,
2.474,-0.69,0.67,0.20,-0.41,0.07,-0.57,
2.481,-0.69,0.67,0.20,-0.38,0.00,-0.52,
2.482,-0.69,0.67,0.20,-0.38,0.00,-0.52,
2.482,-0.63,0.64,0.23,-0.38,0.00,-0.52,
2.483,-0.63,0.64,0.23,-0.38,0.00,-0.52,
2.491,-0.63,0.64,0.23,-0.36,-0.07,-0.46,
2.492,-0.63,0.64,0.23,-0.36,-0.07,-0.46,
2.492,-0.52,0.60,0.22,-0.36,-0.07,-0.46,
2.493,-0.52,0.60,0.22,-0.36,-0.07,-0.46,
2.501,-0.52,0.60,0.22,-0.34,-0.11,-0.40,
2.502,-0.52,0.60,0.22,-0.34,-0.11,-0.40,
2.503,-0.44,0.59,0.21,-0.34,-0.11,-0.40,
2.503,-0.44,0.59,0.21,-0.34,-0.11,-0.40,
2.511,-0.44,0.59,0.21,-0.30,-0.12,-0.33,
2.512,-0.44,0.59,0.21,-0.30,-0.12,-0.33,
2.513,-0.41,0.61,0.23,-0.30,-0.12,-0.33,
2.513,-0.41,0.61,0.23,-0.30,-0.12,-0.33,
2.52,-0.41,0.61,0.23,-0.30,-0.12,-0.33,
2.521,-0.41,0.61,0.23,-0.30,-0.12,-0.33,
2.522,-0.41,0.61,0.23,-0.30,-0.12,-0.33,
2.522,-0.41,0.61,0.23,-0.30,-0.12,-0.33,
2.529,-0.41,0.61,0.23,-0.26,-0.09,-0.29,
2.53,-0.41,0.61,0.23,-0.26,-0.09,-0.29,
2.531,-0.28,0.71,0.23,-0.26,-0.09,-0.29,
2.531,-0.28,0.71,0.23,-0.26,-0.09,-0.29,
2.539,-0.28,0.71,0.23,-0.21,-0.04,-0.25,
2.54,-0.28,0.71,0.23,-0.21,-0.04,-0.25,
2.541,-0.21,1.19,0.23,-0.21,-0.04,-0.25,
2.541,-0.21,1.19,0.23,-0.21,-0.04,-0.25,
2.548,-0.21,1.19,0.23,-0.19,0.02,-0.24,
2.549,-0.21,1.19,0.23,-0.19,0.02,-0.24,
2.549,0.18,3.35,0.16,-0.19,0.02,-0.24,
2.549,0.18,3.35,0.16,-0.19,0.02,-0.24,
2.558,0.18,3.35,0.16,-0.24,0.09,-0.36,
2.558,0.18,3.35,0.16,-0.24,0.09,-0.36,
2.559,0.50,6.12,0.10,-0.24,0.09,-0.36,
2.559,0.50,6.12,0.10,-0.24,0.09,-0.36,
2.568,0.50,6.12,0.10,-0.47,0.19,-0.78,
2.569,0.50,6.12,0.10,-0.47,0.19,-0.78,
2.57,0.54,8.06,0.11,-0.47,0.19,-0.78,
2.57,0.54,8.06,0.11,-0.47,0.19,-0.78,
2.578,0.54,8.06,0.11,-0.92,0.33,-1.69,
2.579,0.54,8.06,0.11,-0.92,0.33,-1.69,
2.579,0.38,8.27,0.06,-0.92,0.33,-1.69,
2.58,0.38,8.27,0.06,-0.92,0.33,-1.69,
2.587,0.38,8.27,0.06,-1.52,0.55,-3.01,
2.588,0.38,8.27,0.06,-1.52,0.55,-3.01,
2.588,-0.12,8.28,0.29,-1.52,0.55,-3.01,
2.589,-0.12,8.28,0.29,-1.52,0.55,-3.01,
2.596,-0.12,8.28,0.29,-2.05,0.81,-4.38,
2.597,-0.12,8.28,0.29,-2.05,0.81,-4.38,
2.597,-0.45,8.09,0.88,-2.05,0.81,-4.38,
2.598,-0.45,8.09,0.88,-2.05,0.81,-4.38,
2.606,-0.45,8.09,0.88,-2.35,1.07,-5.44,
2.607,-0.45,8.09,0.88,-2.35,1.07,-5.44,
2.607,-0.54,7.95,2.31,-2.35,1.07,-5.44,
2.608,-0.54,7.95,2.31,-2.35,1.07,-5.44,
2.616,-0.54,7.95,2.31,-2.43,1.31,-6.06,
2.617,-0.54,7.95,2.31,-2.43,1.31,-6.06,
2.618,-0.60,7.73,2.69,-2.43,1.31,-6.06,
2.618,-0.60,7.73,2.69,-2.43,1.31,-6.06,
2.638,-0.60,7.73,2.69,-2.34,1.60,-6.36,
2.638,-0.60,7.73,2.69,-2.34,1.60,-6.36,
2.638,-0.79,4.71,3.02,-2.34,1.60,-6.36,
2.639,-0.79,4.71,3.02,-2.34,1.60,-6.36,
2.639,-0.79,4.71,3.02,-2.14,1.94,-6.38,
2.639,-0.79,4.71,3.02,-2.14,1.94,-6.38,
2.64,-1.33,0.86,2.90,-2.14,1.94,-6.38,
2.64,-1.33,0.86,2.90,-2.14,1.94,-6.38,
2.644,-1.33,0.86,2.90,-1.81,2.14,-5.90,
2.644,-1.33,0.86,2.90,-1.81,2.14,-5.90,
2.645,-1.85,-3.00,2.50,-1.81,2.14,-5.90,
2.645,-1.85,-3.00,2.50,-1.81,2.14,-5.90,
2.653,-1.85,-3.00,2.50,-1.30,1.93,-4.60,
2.654,-1.85,-3.00,2.50,-1.30,1.93,-4.60,
2.655,-1.97,-4.71,1.91,-1.30,1.93,-4.60,
2.655,-1.97,-4.71,1.91,-1.30,1.93,-4.60,
2.662,-1.97,-4.71,1.91,-0.52,1.22,-2.32,
2.663,-1.97,-4.71,1.91,-0.52,1.22,-2.32,
2.663,-1.69,-5.14,0.18,-0.52,1.22,-2.32,
2.664,-1.69,-5.14,0.18,-0.52,1.22,-2.32,
2.672,-1.69,-5.14,0.18,-0.24,0.78,0.73,
2.673,-1.69,-5.14,0.18,-0.24,0.78,0.73,
2.673,0.00,-3.43,-0.24,-0.24,0.78,0.73,
2.674,0.00,-3.43,-0.24,-0.24,0.78,0.73,
2.681,0.00,-3.43,-0.24,-0.63,1.00,3.76,
2.682,0.00,-3.43,-0.24,-0.63,1.00,3.76,
2.683,0.16,-1.74,-2.01,-0.63,1.00,3.76,
2.683,0.16,-1.74,-2.01,-0.63,1.00,3.76,
2.691,0.16,-1.74,-2.01,-1.04,0.86,5.74,
2.692,0.16,-1.74,-2.01,-1.04,0.86,5.74,
2.692,0.00,0.54,-2.06,-1.04,0.86,5.74,
2.693,0.00,0.54,-2.06,-1.04,0.86,5.74,
2.702,0.00,0.54,-2.06,-1.30,0.60,6.25,
2.703,0.00,0.54,-2.06,-1.30,0.60,6.25,
2.703,-1.74,0.86,-1.78,-1.30,0.60,6.25,
2.704,-1.74,0.86,-1.78,-1.30,0.60,6.25,
2.711,-1.74,0.86,-1.78,-1.23,0.40,5.62,
2.712,-1.74,0.86,-1.78,-1.23,0.40,5.62,
2.713,-2.13,0.71,0.22,-1.23,0.40,5.62,
2.713,-2.13,0.71,0.22,-1.23,0.40,5.62,
2.72,-2.13,0.71,0.22,-1.23,0.40,5.62,
2.722,-2.13,0.71,0.22,-1.23,0.40,5.62,
2.723,-2.13,0.71,0.22,-1.23,0.40,5.62,
2.723,-2.13,0.71,0.22,-1.23,0.40,5.62,
2.729,-2.13,0.71,0.22,-1.15,-0.11,4.54,
2.73,-2.13,0.71,0.22,-1.15,-0.11,4.54,
2.731,-2.65,0.06,2.30,-1.15,-0.11,4.54,
2.731,-2.65,0.06,2.30,-1.15,-0.11,4.54,
2.739,-2.65,0.06,2.30,-1.23,-0.54,3.47,
2.74,-2.65,0.06,2.30,-1.23,-0.54,3.47,
2.741,-0.80,0.32,2.49,-1.23,-0.54,3.47,
2.741,-0.80,0.32,2.49,-1.23,-0.54,3.47,
2.748,-0.80,0.32,2.49,-1.25,-0.71,2.60,
2.749,-0.80,0.32,2.49,-1.25,-0.71,2.60,
2.749,-0.29,0.78,2.03,-1.25,-0.71,2.60,
2.75,-0.29,0.78,2.03,-1.25,-0.71,2.60,
2.758,-0.29,0.78,2.03,-1.13,-0.52,1.87,
2.759,-0.29,0.78,2.03,-1.13,-0.52,1.87,
2.76,1.16,0.91,0.39,-1.13,-0.52,1.87,
2.76,1.16,0.91,0.39,-1.13,-0.52,1.87,
2.767,1.16,0.91,0.39,-0.95,-0.06,1.17,
2.769,1.16,0.91,0.39,-0.95,-0.06,1.17,
2.769,1.32,0.73,0.01,-0.95,-0.06,1.17,
2.77,1.32,0.73,0.01,-0.95,-0.06,1.17,
2.777,1.32,0.73,0.01,-0.79,0.47,0.50,
2.778,1.32,0.73,0.01,-0.79,0.47,0.50,
2.778,1.31,0.21,-0.23,-0.79,0.47,0.50,
2.779,1.31,0.21,-0.23,-0.79,0.47,0.50,
2.787,1.31,0.21,-0.23,-0.64,0.90,-0.04,
2.788,1.31,0.21,-0.23,-0.64,0.90,-0.04,
2.789,0.95,-1.39,-0.02,-0.64,0.90,-0.04,
2.789,0.95,-1.39,-0.02,-0.64,0.90,-0.04,
2.796,0.95,-1.39,-0.02,-0.47,1.14,-0.31,
2.797,0.95,-1.39,-0.02,-0.47,1.14,-0.31,
2.798,0.51,-1.50,0.39,-0.47,1.14,-0.31,
2.798,0.51,-1.50,0.39,-0.47,1.14,-0.31,
2.806,0.51,-1.50,0.39,-0.23,1.20,-0.25,
2.807,0.51,-1.50,0.39,-0.23,1.20,-0.25,
2.807,0.22,-1.43,0.71,-0.23,1.20,-0.25,
2.808,0.22,-1.43,0.71,-0.23,1.20,-0.25,
2.815,0.22,-1.43,0.71,0.05,1.14,0.05,
2.816,0.22,-1.43,0.71,0.05,1.14,0.05,
2.817,-0.11,-1.58,0.63,0.05,1.14,0.05,
2.817,-0.11,-1.58,0.63,0.05,1.14,0.05,
2.825,-0.11,-1.58,0.63,0.31,1.00,0.42,
2.826,-0.11,-1.58,0.63,0.31,1.00,0.42,
2.826,-0.39,-3.28,0.27,0.31,1.00,0.42,
2.827,-0.39,-3.28,0.27,0.31,1.00,0.42,
2.834,-0.39,-3.28,0.27,0.53,0.81,0.78,
2.835,-0.39,-3.28,0.27,0.53,0.81,0.78,
2.835,-0.88,-5.99,0.08,0.53,0.81,0.78,
2.836,-0.88,-5.99,0.08,0.53,0.81,0.78,
2.844,-0.88,-5.99,0.08,0.78,0.58,1.25,
2.845,-0.88,-5.99,0.08,0.78,0.58,1.25,
2.846,-2.60,-9.57,0.39,0.78,0.58,1.25,
2.846,-2.60,-9.57,0.39,0.78,0.58,1.25,
2.853,-2.60,-9.57,0.39,1.21,0.31,2.09,
2.854,-2.60,-9.57,0.39,1.21,0.31,2.09,
2.855,-2.89,-11.82,1.01,1.21,0.31,2.09,
2.855,-2.89,-11.82,1.01,1.21,0.31,2.09,
2.863,-2.89,-11.82,1.01,1.96,0.02,3.41,
2.864,-2.89,-11.82,1.01,1.96,0.02,3.41,
2.864,-2.97,-12.14,1.57,1.96,0.02,3.41,
2.865,-2.97,-12.14,1.57,1.96,0.02,3.41,
2.873,-2.97,-12.14,1.57,3.01,-0.20,4.91,
2.874,-2.97,-12.14,1.57,3.01,-0.20,4.91,
2.874,-1.32,-12.16,1.57,3.01,-0.20,4.91,
2.875,-1.32,-12.16,1.57,3.01,-0.20,4.91,
2.882,-1.32,-12.16,1.57,4.10,-0.29,6.04,
2.882,-1.32,-12.16,1.57,4.10,-0.29,6.04,
2.882,0.70,-11.57,1.01,4.10,-0.29,6.04,
2.883,0.70,-11.57,1.01,4.10,-0.29,6.04,
2.891,0.70,-11.57,1.01,4.91,-0.21,6.42,
2.892,0.70,-11.57,1.01,4.91,-0.21,6.42,
2.892,2.57,-9.64,-0.47,4.91,-0.21,6.42,
2.892,2.57,-9.64,-0.47,4.91,-0.21,6.42,
2.901,2.57,-9.64,-0.47,5.18,0.03,5.99,
2.902,2.57,-9.64,-0.47,5.18,0.03,5.99,
2.903,2.86,-7.99,-0.46,5.18,0.03,5.99,
2.903,2.86,-7.99,-0.46,5.18,0.03,5.99,
2.912,2.86,-7.99,-0.46,4.87,0.35,4.97,
2.912,2.86,-7.99,-0.46,4.87,0.35,4.97,
2.913,3.02,-6.20,-0.23,4.87,0.35,4.97,
2.914,3.02,-6.20,-0.23,4.87,0.35,4.97,
2.92,3.02,-6.20,-0.23,4.87,0.35,4.97,
2.921,3.02,-6.20,-0.23,4.87,0.35,4.97,
2.922,3.02,-6.20,-0.23,4.87,0.35,4.97,
2.922,3.02,-6.20,-0.23,4.87,0.35,4.97,
2.93,3.02,-6.20,-0.23,4.12,0.65,3.68,
2.93,3.02,-6.20,-0.23,4.12,0.65,3.68,
2.931,1.00,-2.84,0.24,4.12,0.65,3.68,
2.931,1.00,-2.84,0.24,4.12,0.65,3.68,
2.939,1.00,-2.84,0.24,3.13,0.84,2.37,
2.94,1.00,-2.84,0.24,3.13,0.84,2.37,
2.941,-0.85,-2.42,0.36,3.13,0.84,2.37,
2.941,-0.85,-2.42,0.36,3.13,0.84,2.37,
2.948,-0.85,-2.42,0.36,2.08,0.85,1.24,
2.949,-0.85,-2.42,0.36,2.08,0.85,1.24,
2.95,-1.12,-1.89,0.41,2.08,0.85,1.24,
2.95,-1.12,-1.89,0.41,2.08,0.85,1.24,
2.958,-1.12,-1.89,0.41,1.06,0.66,0.36,
2.959,-1.12,-1.89,0.41,1.06,0.66,0.36,
2.96,-1.48,-1.39,0.44,1.06,0.66,0.36,
2.96,-1.48,-1.39,0.44,1.06,0.66,0.36,
2.968,-1.48,-1.39,0.44,0.12,0.30,-0.25,
2.969,-1.48,-1.39,0.44,0.12,0.30,-0.25,
2.97,-1.79,-0.98,0.46,0.12,0.30,-0.25,
2.97,-1.79,-0.98,0.46,0.12,0.30,-0.25,
2.977,-1.79,-0.98,0.46,-0.67,-0.11,-0.65,
2.978,-1.79,-0.98,0.46,-0.67,-0.11,-0.65,
2.978,-1.99,-0.69,0.45,-0.67,-0.11,-0.65,
2.979,-1.99,-0.69,0.45,-0.67,-0.11,-0.65,
2.987,-1.99,-0.69,0.45,-1.31,-0.50,-0.92,
2.988,-1.99,-0.69,0.45,-1.31,-0.50,-0.92,
2.989,-2.06,-0.53,0.38,-1.31,-0.50,-0.92,
2.99,-2.06,-0.53,0.38,-1.31,-0.50,-0.92,
2.996,-2.06,-0.53,0.38,-1.82,-0.84,-1.12,
2.998,-2.06,-0.53,0.38,-1.82,-0.84,-1.12,
2.999,-2.12,-0.44,0.29,-1.82,-0.84,-1.12,
2.999,-2.12,-0.44,0.29,-1.82,-0.84,-1.12,
3.005,-2.12,-0.44,0.29,-2.20,-1.12,-1.25,
3.006,-2.12,-0.44,0.29,-2.20,-1.12,-1.25,
3.007,-2.15,-0.40,0.21,-2.20,-1.12,-1.25,
3.007,-2.15,-0.40,0.21,-2.20,-1.12,-1.25,
3.015,-2.15,-0.40,0.21,-2.47,-1.32,-1.30,
3.016,-2.15,-0.40,0.21,-2.47,-1.32,-1.30,
3.017,-2.12,-0.41,0.16,-2.47,-1.32,-1.30,
3.017,-2.12,-0.41,0.16,-2.47,-1.32,-1.30,
3.025,-2.12,-0.41,0.16,-2.62,-1.46,-1.29,
3.025,-2.12,-0.41,0.16,-2.62,-1.46,-1.29,
3.026,-2.07,-0.40,0.20,-2.62,-1.46,-1.29,
3.027,-2.07,-0.40,0.20,-2.62,-1.46,-1.29,
3.039,-2.07,-0.40,0.20,-2.66,-1.52,-1.23,
3.04,-2.07,-0.40,0.20,-2.66,-1.52,-1.23,
3.041,-1.92,-0.39,0.29,-2.66,-1.52,-1.23,
3.042,-1.92,-0.39,0.29,-2.66,-1.52,-1.23,
3.046,-1.92,-0.39,0.29,-2.60,-1.51,-1.13,
3.046,-1.92,-0.39,0.29,-2.60,-1.51,-1.13,
3.047,-1.67,-0.36,0.36,-2.60,-1.51,-1.13,
3.047,-1.67,-0.36,0.36,-2.60,-1.51,-1.13,
3.053,-1.67,-0.36,0.36,-2.46,-1.43,-1.01,
3.054,-1.67,-0.36,0.36,-2.46,-1.43,-1.01,
3.054,-1.39,-0.34,0.40,-2.46,-1.43,-1.01,
3.055,-1.39,-0.34,0.40,-2.46,-1.43,-1.01,
3.063,-1.39,-0.34,0.40,-2.28,-1.27,-0.89,
3.064,-1.39,-0.34,0.40,-2.28,-1.27,-0.89,
3.064,-1.06,-0.32,0.35,-2.28,-1.27,-0.89,
3.065,-1.06,-0.32,0.35,-2.28,-1.27,-0.89,
3.072,-1.06,-0.32,0.35,-2.05,-1.05,-0.81,
3.073,-1.06,-0.32,0.35,-2.05,-1.05,-0.81,
3.074,-0.75,-0.28,0.25,-2.05,-1.05,-0.81,
3.074,-0.75,-0.28,0.25,-2.05,-1.05,-0.81,
3.082,-0.75,-0.28,0.25,-1.80,-0.78,-0.77,
3.082,-0.75,-0.28,0.25,-1.80,-0.78,-0.77,
3.083,-0.49,-0.19,0.16,-1.80,-0.78,-0.77,
3.083,-0.49,-0.19,0.16,-1.80,-0.78,-0.77,
3.091,-0.49,-0.19,0.16,-1.54,-0.50,-0.78,
3.092,-0.49,-0.19,0.16,-1.54,-0.50,-0.78,
3.093,-0.32,-0.06,0.09,-1.54,-0.50,-0.78,
3.094,-0.32,-0.06,0.09,-1.54,-0.50,-0.78,
3.102,-0.32,-0.06,0.09,-1.30,-0.23,-0.80,
3.103,-0.32,-0.06,0.09,-1.30,-0.23,-0.80,
3.104,-0.22,0.09,0.06,-1.30,-0.23,-0.80,
3.105,-0.22,0.09,0.06,-1.30,-0.23,-0.80,
3.111,-0.22,0.09,0.06,-1.30,-0.23,-0.80,
3.112,-0.22,0.09,0.06,-1.30,-0.23,-0.80,
3.113,-0.22,0.09,0.06,-1.30,-0.23,-0.80,
3.114,-0.22,0.09,0.06,-1.30,-0.23,-0.80,
3.121,-0.22,0.09,0.06,-1.10,0.01,-0.81,
3.122,-0.22,0.09,0.06,-1.10,0.01,-0.81,
3.122,-0.24,0.33,0.05,-1.10,0.01,-0.81,
3.123,-0.24,0.33,0.05,-1.10,0.01,-0.81,
3.129,-0.24,0.33,0.05,-0.96,0.20,-0.81,
3.13,-0.24,0.33,0.05,-0.96,0.20,-0.81,
3.131,-0.26,0.46,0.06,-0.96,0.20,-0.81,
3.131,-0.26,0.46,0.06,-0.96,0.20,-0.81,
3.139,-0.26,0.46,0.06,-0.86,0.32,-0.79,
3.14,-0.26,0.46,0.06,-0.86,0.32,-0.79,
3.14,-0.28,0.59,0.08,-0.86,0.32,-0.79,
3.141,-0.28,0.59,0.08,-0.86,0.32,-0.79,
3.149,-0.28,0.59,0.08,-0.80,0.38,-0.76,
3.15,-0.28,0.59,0.08,-0.80,0.38,-0.76,
3.15,-0.29,0.68,0.14,-0.80,0.38,-0.76,
3.151,-0.29,0.68,0.14,-0.80,0.38,-0.76,
3.158,-0.29,0.68,0.14,-0.78,0.40,-0.71,
3.159,-0.29,0.68,0.14,-0.78,0.40,-0.71,
3.159,-0.26,0.71,0.21,-0.78,0.40,-0.71,
3.16,-0.26,0.71,0.21,-0.78,0.40,-0.71,
3.167,-0.26,0.71,0.21,-0.76,0.38,-0.64,
3.168,-0.26,0.71,0.21,-0.76,0.38,-0.64,
3.168,-0.23,0.74,0.34,-0.76,0.38,-0.64,
3.169,-0.23,0.74,0.34,-0.76,0.38,-0.64,
3.184,-0.23,0.74,0.34,-0.74,0.37,-0.55,
3.185,-0.23,0.74,0.34,-0.74,0.37,-0.55,
3.186,-0.19,0.72,0.54,-0.74,0.37,-0.55,
3.187,-0.19,0.72,0.54,-0.74,0.37,-0.55,
3.187,-0.19,0.72,0.54,-0.71,0.36,-0.44,
3.188,-0.19,0.72,0.54,-0.71,0.36,-0.44,
3.188,-0.12,0.70,0.76,-0.71,0.36,-0.44,
3.189,-0.12,0.70,0.76,-0.71,0.36,-0.44,
3.196,-0.12,0.70,0.76,-0.67,0.38,-0.32,
3.197,-0.12,0.70,0.76,-0.67,0.38,-0.32,
3.197,-0.05,0.76,0.95,-0.67,0.38,-0.32,
3.198,-0.05,0.76,0.95,-0.67,0.38,-0.32,
3.206,-0.05,0.76,0.95,-0.62,0.42,-0.22,
3.207,-0.05,0.76,0.95,-0.62,0.42,-0.22,
3.207,0.03,0.83,1.08,-0.62,0.42,-0.22,
3.208,0.03,0.83,1.08,-0.62,0.42,-0.22,
3.215,0.03,0.83,1.08,-0.55,0.49,-0.14,
3.215,0.03,0.83,1.08,-0.55,0.49,-0.14,
3.216,0.15,0.92,1.12,-0.55,0.49,-0.14,
3.217,0.15,0.92,1.12,-0.55,0.49,-0.14,
3.225,0.15,0.92,1.12,-0.50,0.57,-0.10,
3.226,0.15,0.92,1.12,-0.50,0.57,-0.10,
3.226,0.26,0.99,1.14,-0.50,0.57,-0.10,
3.227,0.26,0.99,1.14,-0.50,0.57,-0.10,
3.234,0.26,0.99,1.14,-0.46,0.65,-0.09,
3.235,0.26,0.99,1.14,-0.46,0.65,-0.09,
3.236,0.41,1.01,1.23,-0.46,0.65,-0.09,
3.238,0.41,1.01,1.23,-0.46,0.65,-0.09,
3.244,0.41,1.01,1.23,-0.44,0.73,-0.11,
3.246,0.41,1.01,1.23,-0.44,0.73,-0.11,
3.247,0.65,0.99,1.43,-0.44,0.73,-0.11,
3.248,0.65,0.99,1.43,-0.44,0.73,-0.11,
3.259,0.65,0.99,1.43,-0.45,0.80,-0.15,
3.26,0.65,0.99,1.43,-0.45,0.80,-0.15,
3.26,0.93,0.95,1.68,-0.45,0.80,-0.15,
3.261,0.93,0.95,1.68,-0.45,0.80,-0.15,
3.262,0.93,0.95,1.68,-0.45,0.90,-0.19,
3.263,0.93,0.95,1.68,-0.45,0.90,-0.19,
3.263,1.25,0.84,1.91,-0.45,0.90,-0.19,
3.264,1.25,0.84,1.91,-0.45,0.90,-0.19,
3.272,1.25,0.84,1.91,-0.43,1.03,-0.24,
3.273,1.25,0.84,1.91,-0.43,1.03,-0.24,
3.274,1.58,0.70,2.05,-0.43,1.03,-0.24,
3.274,1.58,0.70,2.05,-0.43,1.03,-0.24,
3.282,1.58,0.70,2.05,-0.38,1.22,-0.27,
3.283,1.58,0.70,2.05,-0.38,1.22,-0.27,
3.283,1.84,0.57,2.07,-0.38,1.22,-0.27,
3.284,1.84,0.57,2.07,-0.38,1.22,-0.27,
3.291,1.84,0.57,2.07,-0.30,1.43,-0.30,
3.292,1.84,0.57,2.07,-0.30,1.43,-0.30,
3.293,2.08,0.38,1.99,-0.30,1.43,-0.30,
3.294,2.08,0.38,1.99,-0.30,1.43,-0.30,
3.302,2.08,0.38,1.99,-0.20,1.64,-0.29,
3.303,2.08,0.38,1.99,-0.20,1.64,-0.29,
3.303,2.31,0.22,1.93,-0.20,1.64,-0.29,
3.304,2.31,0.22,1.93,-0.20,1.64,-0.29,
3.311,2.31,0.22,1.93,-0.20,1.64,-0.29,
3.312,2.31,0.22,1.93,-0.20,1.64,-0.29,
3.312,2.31,0.22,1.93,-0.20,1.64,-0.29,
3.313,2.31,0.22,1.93,-0.20,1.64,-0.29,
3.32,2.31,0.22,1.93,-0.09,1.80,-0.25,
3.321,2.31,0.22,1.93,-0.09,1.80,-0.25,
3.321,2.87,-0.00,1.84,-0.09,1.80,-0.25,
3.322,2.87,-0.00,1.84,-0.09,1.80,-0.25,
3.335,2.87,-0.00,1.84,0.02,1.91,-0.18,
3.336,2.87,-0.00,1.84,0.02,1.91,-0.18,
3.336,3.17,-0.01,1.81,0.02,1.91,-0.18,
3.337,3.17,-0.01,1.81,0.02,1.91,-0.18,
3.339,3.17,-0.01,1.81,0.13,1.99,-0.10,
3.339,3.17,-0.01,1.81,0.13,1.99,-0.10,
3.34,3.44,0.05,1.73,0.13,1.99,-0.10,
3.34,3.44,0.05,1.73,0.13,1.99,-0.10,
3.348,3.44,0.05,1.73,0.21,2.04,-0.04,
3.349,3.44,0.05,1.73,0.21,2.04,-0.04,
3.349,3.60,0.16,1.58,0.21,2.04,-0.04,
3.35,3.60,0.16,1.58,0.21,2.04,-0.04,
3.358,3.60,0.16,1.58,0.26,2.06,-0.00,
3.358,3.60,0.16,1.58,0.26,2.06,-0.00,
3.359,3.62,0.22,1.31,0.26,2.06,-0.00,
3.359,3.62,0.22,1.31,0.26,2.06,-0.00,
3.367,3.62,0.22,1.31,0.26,2.03,-0.00,
3.369,3.62,0.22,1.31,0.26,2.03,-0.00,
3.369,3.45,0.21,0.97,0.26,2.03,-0.00,
3.369,3.45,0.21,0.97,0.26,2.03,-0.00,
3.377,3.45,0.21,0.97,0.22,1.92,-0.04,
3.378,3.45,0.21,0.97,0.22,1.92,-0.04,
3.379,3.13,0.13,0.69,0.22,1.92,-0.04,
3.379,3.13,0.13,0.69,0.22,1.92,-0.04,
3.387,3.13,0.13,0.69,0.17,1.71,-0.07,
3.388,3.13,0.13,0.69,0.17,1.71,-0.07,
3.389,2.69,0.01,0.62,0.17,1.71,-0.07,
3.389,2.69,0.01,0.62,0.17,1.71,-0.07,
3.396,2.69,0.01,0.62,0.09,1.43,-0.07,
3.396,2.69,0.01,0.62,0.09,1.43,-0.07,
3.397,2.24,-0.08,0.75,0.09,1.43,-0.07,
3.397,2.24,-0.08,0.75,0.09,1.43,-0.07,
3.405,2.24,-0.08,0.75,0.02,1.09,-0.03,
3.406,2.24,-0.08,0.75,0.02,1.09,-0.03,
3.406,1.79,-0.06,1.04,0.02,1.09,-0.03,
3.407,1.79,-0.06,1.04,0.02,1.09,-0.03,
3.415,1.79,-0.06,1.04,-0.03,0.75,0.05,
3.415,1.37,0.05,1.35,-0.03,0.75,0.05,
3.416,1.37,0.05,1.35,-0.03,0.75,0.05,
3.416,1.37,0.05,1.35,-0.03,0.75,0.05,
3.424,1.37,0.05,1.35,-0.06,0.45,0.13,
3.425,1.37,0.05,1.35,-0.06,0.45,0.13,
3.426,1.09,0.20,1.53,-0.06,0.45,0.13,
3.426,1.09,0.20,1.53,-0.06,0.45,0.13,
3.434,1.09,0.20,1.53,-0.07,0.21,0.19,
3.435,1.09,0.20,1.53,-0.07,0.21,0.19,
3.435,0.88,0.31,1.58,-0.07,0.21,0.19,
3.436,0.88,0.31,1.58,-0.07,0.21,0.19,
3.444,0.88,0.31,1.58,-0.08,0.03,0.22,
3.445,0.88,0.31,1.58,-0.08,0.03,0.22,
3.445,0.76,0.37,1.51,-0.08,0.03,0.22,
3.446,0.76,0.37,1.51,-0.08,0.03,0.22,
3.454,0.76,0.37,1.51,-0.10,-0.10,0.20,
3.455,0.76,0.37,1.51,-0.10,-0.10,0.20,
3.456,0.71,0.39,1.33,-0.10,-0.10,0.20,
3.456,0.71,0.39,1.33,-0.10,-0.10,0.20,
3.467,0.71,0.39,1.33,-0.13,-0.19,0.16,
3.468,0.71,0.39,1.33,-0.13,-0.19,0.16,
3.469,0.68,0.33,1.10,-0.13,-0.19,0.16,
3.469,0.68,0.33,1.10,-0.13,-0.19,0.16,
3.472,0.68,0.33,1.10,-0.15,-0.27,0.10,
3.472,0.68,0.33,1.10,-0.15,-0.27,0.10,
3.473,0.67,0.25,0.84,-0.15,-0.27,0.10,
3.473,0.67,0.25,0.84,-0.15,-0.27,0.10,
3.482,0.67,0.25,0.84,-0.17,-0.34,0.05,
3.483,0.67,0.25,0.84,-0.17,-0.34,0.05,
3.483,0.72,0.13,0.61,-0.17,-0.34,0.05,
3.483,0.72,0.13,0.61,-0.17,-0.34,0.05,
3.491,0.72,0.13,0.61,-0.19,-0.42,0.03,
3.491,0.72,0.13,0.61,-0.19,-0.42,0.03,
3.491,0.75,-0.01,0.43,-0.19,-0.42,0.03,
3.492,0.75,-0.01,0.43,-0.19,-0.42,0.03,
3.501,0.75,-0.01,0.43,-0.19,-0.49,0.03,
3.502,0.75,-0.01,0.43,-0.19,-0.49,0.03,
3.503,0.74,-0.10,0.27,-0.19,-0.49,0.03,
3.504,0.74,-0.10,0.27,-0.19,-0.49,0.03,
3.51,0.74,-0.10,0.27,-0.19,-0.49,0.03,
3.511,0.74,-0.10,0.27,-0.19,-0.49,0.03,
3.512,0.74,-0.10,0.27,-0.19,-0.49,0.03,
3.512,0.74,-0.10,0.27,-0.19,-0.49,0.03,
3.52,0.74,-0.10,0.27,-0.17,-0.54,0.06,
3.521,0.74,-0.10,0.27,-0.17,-0.54,0.06,
3.521,0.58,-0.24,0.06,-0.17,-0.54,0.06,
3.522,0.58,-0.24,0.06,-0.17,-0.54,0.06,
3.529,0.58,-0.24,0.06,-0.15,-0.57,0.12,
3.53,0.58,-0.24,0.06,-0.15,-0.57,0.12,
3.531,0.41,-0.26,-0.01,-0.15,-0.57,0.12,
3.531,0.41,-0.26,-0.01,-0.15,-0.57,0.12,
3.539,0.41,-0.26,-0.01,-0.12,-0.60,0.18,
3.54,0.41,-0.26,-0.01,-0.12,-0.60,0.18,
3.54,0.21,-0.29,-0.01,-0.12,-0.60,0.18,
3.541,0.21,-0.29,-0.01,-0.12,-0.60,0.18,
3.549,0.21,-0.29,-0.01,-0.08,-0.63,0.26,
3.55,0.21,-0.29,-0.01,-0.08,-0.63,0.26,
3.55,-0.01,-0.29,0.07,-0.08,-0.63,0.26,
3.551,-0.01,-0.29,0.07,-0.08,-0.63,0.26,
3.558,-0.01,-0.29,0.07,-0.05,-0.66,0.31,
3.558,-0.01,-0.29,0.07,-0.05,-0.66,0.31,
3.559,-0.27,-0.27,0.15,-0.05,-0.66,0.31,
3.559,-0.27,-0.27,0.15,-0.05,-0.66,0.31,
3.567,-0.27,-0.27,0.15,-0.02,-0.69,0.35,
3.568,-0.27,-0.27,0.15,-0.02,-0.69,0.35,
3.568,-0.51,-0.24,0.22,-0.02,-0.69,0.35,
3.569,-0.51,-0.24,0.22,-0.02,-0.69,0.35,
3.577,-0.51,-0.24,0.22,0.01,-0.71,0.37,
3.577,-0.51,-0.24,0.22,0.01,-0.71,0.37,
3.578,-0.74,-0.16,0.22,0.01,-0.71,0.37,
3.578,-0.74,-0.16,0.22,0.01,-0.71,0.37,
3.586,-0.74,-0.16,0.22,0.04,-0.72,0.37,
3.588,-0.74,-0.16,0.22,0.04,-0.72,0.37,
3.588,-0.90,-0.10,0.17,0.04,-0.72,0.37,
3.589,-0.90,-0.10,0.17,0.04,-0.72,0.37,
3.598,-0.90,-0.10,0.17,0.05,-0.74,0.36,
3.599,-0.90,-0.10,0.17,0.05,-0.74,0.36,
3.6,-1.01,-0.09,0.11,0.05,-0.74,0.36,
3.601,-1.01,-0.09,0.11,0.05,-0.74,0.36,
3.606,-1.01,-0.09,0.11,0.04,-0.76,0.35,
3.607,-1.01,-0.09,0.11,0.04,-0.76,0.35,
3.607,-1.05,-0.09,0.04,0.04,-0.76,0.35,
3.608,-1.05,-0.09,0.04,0.04,-0.76,0.35,
3.615,-1.05,-0.09,0.04,0.01,-0.78,0.34,
3.616,-1.05,-0.09,0.04,0.01,-0.78,0.34,
3.616,-1.07,-0.14,-0.04,0.01,-0.78,0.34,
3.617,-1.07,-0.14,-0.04,0.01,-0.78,0.34,
3.637,-1.07,-0.14,-0.04,-0.02,-0.79,0.33,
3.638,-1.07,-0.14,-0.04,-0.02,-0.79,0.33,
3.639,-1.12,-0.17,-0.12,-0.02,-0.79,0.33,
3.64,-1.12,-0.17,-0.12,-0.02,-0.79,0.33,
3.641,-1.12,-0.17,-0.12,-0.04,-0.78,0.31,
3.641,-1.12,-0.17,-0.12,-0.04,-0.78,0.31,
3.642,-1.20,-0.18,-0.24,-0.04,-0.78,0.31,
3.643,-1.20,-0.18,-0.24,-0.04,-0.78,0.31,
3.644,-1.20,-0.18,-0.24,-0.05,-0.76,0.30,
3.645,-1.20,-0.18,-0.24,-0.05,-0.76,0.30,
3.645,-1.31,-0.19,-0.37,-0.05,-0.76,0.30,
3.646,-1.31,-0.19,-0.37,-0.05,-0.76,0.30,
3.656,-1.31,-0.19,-0.37,-0.05,-0.75,0.29,
3.657,-1.31,-0.19,-0.37,-0.05,-0.75,0.29,
3.657,-1.37,-0.18,-0.46,-0.05,-0.75,0.29,
3.658,-1.37,-0.18,-0.46,-0.05,-0.75,0.29,
3.665,-1.37,-0.18,-0.46,-0.05,-0.74,0.29,
3.666,-1.37,-0.18,-0.46,-0.05,-0.74,0.29,
3.666,-1.36,-0.17,-0.50,-0.05,-0.74,0.29,
3.667,-1.36,-0.17,-0.50,-0.05,-0.74,0.29,
3.672,-1.36,-0.17,-0.50,-0.06,-0.74,0.29,
3.673,-1.36,-0.17,-0.50,-0.06,-0.74,0.29,
3.673,-1.30,-0.18,-0.48,-0.06,-0.74,0.29,
3.674,-1.30,-0.18,-0.48,-0.06,-0.74,0.29,
3.681,-1.30,-0.18,-0.48,-0.07,-0.73,0.28,
3.682,-1.30,-0.18,-0.48,-0.07,-0.73,0.28,
3.682,-1.23,-0.19,-0.43,-0.07,-0.73,0.28,
3.682,-1.23,-0.19,-0.43,-0.07,-0.73,0.28,
3.691,-1.23,-0.19,-0.43,-0.07,-0.70,0.27,
3.691,-1.23,-0.19,-0.43,-0.07,-0.70,0.27,
3.692,-1.20,-0.20,-0.37,-0.07,-0.70,0.27,
3.692,-1.20,-0.20,-0.37,-0.07,-0.70,0.27,
3.701,-1.20,-0.20,-0.37,-0.07,-0.70,0.27,
3.702,-1.20,-0.20,-0.37,-0.07,-0.70,0.27,
3.702,-1.20,-0.20,-0.37,-0.07,-0.70,0.27,
3.703,-1.20,-0.20,-0.37,-0.07,-0.70,0.27,
3.711,-1.20,-0.20,-0.37,-0.06,-0.64,0.24,
3.711,-1.20,-0.20,-0.37,-0.06,-0.64,0.24,
3.712,-1.17,-0.16,-0.30,-0.06,-0.64,0.24,
3.712,-1.17,-0.16,-0.30,-0.06,-0.64,0.24,
3.72,-1.17,-0.16,-0.30,-0.04,-0.56,0.19,
3.721,-1.17,-0.16,-0.30,-0.04,-0.56,0.19,
3.721,-1.15,-0.10,-0.28,-0.04,-0.56,0.19,
3.722,-1.15,-0.10,-0.28,-0.04,-0.56,0.19,
3.736,-1.15,-0.10,-0.28,-0.01,-0.46,0.14,
3.737,-1.15,-0.10,-0.28,-0.01,-0.46,0.14,
3.737,-1.09,-0.04,-0.26,-0.01,-0.46,0.14,
3.738,-1.09,-0.04,-0.26,-0.01,-0.46,0.14,
3.739,-1.09,-0.04,-0.26,0.01,-0.36,0.09,
3.739,-1.09,-0.04,-0.26,0.01,-0.36,0.09,
3.74,-1.02,0.02,-0.26,0.01,-0.36,0.09,
3.74,-1.02,0.02,-0.26,0.01,-0.36,0.09,
3.752,-1.02,0.02,-0.26,0.02,-0.28,0.03,
3.753,-1.02,0.02,-0.26,0.02,-0.28,0.03,
3.753,-0.95,0.05,-0.24,0.02,-0.28,0.03,
3.753,-0.95,0.05,-0.24,0.02,-0.28,0.03,
3.758,-0.95,0.05,-0.24,0.02,-0.21,-0.02,
3.758,-0.95,0.05,-0.24,0.02,-0.21,-0.02,
3.759,-0.88,0.07,-0.21,0.02,-0.21,-0.02,
3.759,-0.88,0.07,-0.21,0.02,-0.21,-0.02,
3.768,-0.88,0.07,-0.21,0.00,-0.14,-0.06,
3.769,-0.88,0.07,-0.21,0.00,-0.14,-0.06,
3.77,-0.80,0.07,-0.15,0.00,-0.14,-0.06,
3.77,-0.80,0.07,-0.15,0.00,-0.14,-0.06,
3.777,-0.80,0.07,-0.15,-0.01,-0.09,-0.10,
3.778,-0.80,0.07,-0.15,-0.01,-0.09,-0.10,
3.779,-0.73,0.05,-0.13,-0.01,-0.09,-0.10,
3.779,-0.73,0.05,-0.13,-0.01,-0.09,-0.10,
3.787,-0.73,0.05,-0.13,-0.02,-0.03,-0.12,
3.788,-0.73,0.05,-0.13,-0.02,-0.03,-0.12,
3.789,-0.68,0.02,-0.10,-0.02,-0.03,-0.12,
3.789,-0.68,0.02,-0.10,-0.02,-0.03,-0.12,
3.797,-0.68,0.02,-0.10,-0.02,0.02,-0.14,
3.798,-0.68,0.02,-0.10,-0.02,0.02,-0.14,
3.799,-0.60,0.01,-0.12,-0.02,0.02,-0.14,
3.8,-0.60,0.01,-0.12,-0.02,0.02,-0.14,
3.807,-0.60,0.01,-0.12,-0.01,0.06,-0.15,
3.807,-0.60,0.01,-0.12,-0.01,0.06,-0.15,
3.808,-0.57,0.02,-0.14,-0.01,0.06,-0.15,
3.808,-0.57,0.02,-0.14,-0.01,0.06,-0.15,
3.815,-0.57,0.02,-0.14,0.01,0.09,-0.15,
3.816,-0.57,0.02,-0.14,0.01,0.09,-0.15,
3.816,-0.53,0.06,-0.14,0.01,0.09,-0.15,
3.817,-0.53,0.06,-0.14,0.01,0.09,-0.15,
3.825,-0.53,0.06,-0.14,0.02,0.11,-0.14,
3.826,-0.53,0.06,-0.14,0.02,0.11,-0.14,
3.827,-0.50,0.09,-0.13,0.02,0.11,-0.14,
3.828,-0.50,0.09,-0.13,0.02,0.11,-0.14,
3.834,-0.50,0.09,-0.13,0.03,0.11,-0.14,
3.835,-0.50,0.09,-0.13,0.03,0.11,-0.14,
3.836,-0.50,0.11,-0.07,0.03,0.11,-0.14,
3.836,-0.50,0.11,-0.07,0.03,0.11,-0.14,
3.844,-0.50,0.11,-0.07,0.03,0.10,-0.13,
3.844,-0.50,0.11,-0.07,0.03,0.10,-0.13,
3.845,-0.50,0.11,-0.00,0.03,0.10,-0.13,
3.846,-0.50,0.11,-0.00,0.03,0.10,-0.13,
3.853,-0.50,0.11,-0.00,0.02,0.09,-0.12,
3.855,-0.50,0.11,-0.00,0.02,0.09,-0.12,
3.855,-0.51,0.10,0.07,0.02,0.09,-0.12,
3.856,-0.51,0.10,0.07,0.02,0.09,-0.12,
3.873,-0.51,0.10,0.07,0.00,0.07,-0.10,
3.874,-0.51,0.10,0.07,0.00,0.07,-0.10,
3.874,-0.51,0.12,0.14,0.00,0.07,-0.10,
3.875,-0.51,0.12,0.14,0.00,0.07,-0.10,
3.875,-0.51,0.12,0.14,-0.01,0.05,-0.08,
3.876,-0.51,0.12,0.14,-0.01,0.05,-0.08,
3.876,-0.47,0.13,0.17,-0.01,0.05,-0.08,
3.876,-0.47,0.13,0.17,-0.01,0.05,-0.08,
3.881,-0.47,0.13,0.17,-0.02,0.04,-0.07,
3.882,-0.47,0.13,0.17,-0.02,0.04,-0.07,
3.882,-0.41,0.15,0.18,-0.02,0.04,-0.07,
3.883,-0.41,0.15,0.18,-0.02,0.04,-0.07,
3.892,-0.41,0.15,0.18,-0.01,0.04,-0.06,
3.893,-0.41,0.15,0.18,-0.01,0.04,-0.06,
3.893,-0.33,0.17,0.19,-0.01,0.04,-0.06,
3.894,-0.33,0.17,0.19,-0.01,0.04,-0.06,
3.902,-0.33,0.17,0.19,-0.01,0.03,-0.05,
3.903,-0.33,0.17,0.19,-0.01,0.03,-0.05,
3.904,-0.27,0.18,0.18,-0.01,0.03,-0.05,
3.905,-0.27,0.18,0.18,-0.01,0.03,-0.05,
3.91,-0.27,0.18,0.18,-0.01,0.03,-0.05,
3.911,-0.27,0.18,0.18,-0.01,0.03,-0.05,
3.912,-0.27,0.18,0.18,-0.01,0.03,-0.05,
3.912,-0.27,0.18,0.18,-0.01,0.03,-0.05,
3.921,-0.27,0.18,0.18,-0.01,0.03,-0.05,
3.922,-0.27,0.18,0.18,-0.01,0.03,-0.05,
3.922,-0.24,0.22,0.18,-0.01,0.03,-0.05,
3.923,-0.24,0.22,0.18,-0.01,0.03,-0.05,
3.929,-0.24,0.22,0.18,-0.00,0.03,-0.07,
3.93,-0.24,0.22,0.18,-0.00,0.03,-0.07,
3.93,-0.20,0.24,0.20,-0.00,0.03,-0.07,
3.931,-0.20,0.24,0.20,-0.00,0.03,-0.07,
3.939,-0.20,0.24,0.20,-0.01,0.04,-0.09,
3.94,-0.20,0.24,0.20,-0.01,0.04,-0.09,
3.94,-0.15,0.26,0.22,-0.01,0.04,-0.09,
3.941,-0.15,0.26,0.22,-0.01,0.04,-0.09,
3.951,-0.15,0.26,0.22,-0.02,0.05,-0.09,
3.952,-0.15,0.26,0.22,-0.02,0.05,-0.09,
3.952,-0.08,0.29,0.24,-0.02,0.05,-0.09,
3.953,-0.08,0.29,0.24,-0.02,0.05,-0.09,
3.958,-0.08,0.29,0.24,-0.05,0.06,-0.09,
3.959,-0.08,0.29,0.24,-0.05,0.06,-0.09,
3.959,-0.06,0.25,0.27,-0.05,0.06,-0.09,
3.96,-0.06,0.25,0.27,-0.05,0.06,-0.09,
3.968,-0.06,0.25,0.27,-0.06,0.07,-0.10,
3.969,-0.06,0.25,0.27,-0.06,0.07,-0.10,
3.969,-0.06,0.23,0.29,-0.06,0.07,-0.10,
3.97,-0.06,0.23,0.29,-0.06,0.07,-0.10,
3.978,-0.06,0.23,0.29,-0.06,0.08,-0.11,
3.978,-0.06,0.23,0.29,-0.06,0.08,-0.11,
3.979,-0.06,0.21,0.31,-0.06,0.08,-0.11,
3.98,-0.06,0.21,0.31,-0.06,0.08,-0.11,
3.987,-0.06,0.21,0.31,-0.04,0.09,-0.13,
3.988,-0.06,0.21,0.31,-0.04,0.09,-0.13,
3.989,-0.07,0.19,0.32,-0.04,0.09,-0.13,
3.99,-0.07,0.19,0.32,-0.04,0.09,-0.13,
3.998,-0.07,0.19,0.32,-0.03,0.09,-0.13,
4.0,-0.07,0.19,0.32,-0.03,0.09,-0.13,
4.001,-0.08,0.20,0.33,-0.03,0.09,-0.13,
4.002,-0.08,0.20,0.33,-0.03,0.09,-0.13,
4.006,-0.08,0.20,0.33,-0.02,0.08,-0.11,
4.007,-0.08,0.20,0.33,-0.02,0.08,-0.11,
4.008,-0.06,0.19,0.35,-0.02,0.08,-0.11,
4.008,-0.06,0.19,0.35,-0.02,0.08,-0.11,
4.015,-0.06,0.19,0.35,-0.02,0.07,-0.09,
4.017,-0.06,0.19,0.35,-0.02,0.07,-0.09,
4.019,-0.06,0.19,0.35,-0.02,0.07,-0.09,
4.02,-0.06,0.19,0.35,-0.02,0.07,-0.09,
4.024,-0.06,0.19,0.35,-0.02,0.06,-0.06,
4.026,-0.06,0.19,0.35,-0.02,0.06,-0.06,
4.027,-0.06,0.18,0.35,-0.02,0.06,-0.06,
4.027,-0.06,0.18,0.35,-0.02,0.06,-0.06,
4.034,-0.06,0.18,0.35,-0.02,0.06,-0.03,
4.035,-0.06,0.18,0.35,-0.02,0.06,-0.03,
4.036,-0.07,0.18,0.35,-0.02,0.06,-0.03,
4.037,-0.07,0.18,0.35,-0.02,0.06,-0.03,
4.045,-0.07,0.18,0.35,-0.02,0.05,-0.02,
4.046,-0.07,0.18,0.35,-0.02,0.05,-0.02,
4.047,-0.07,0.17,0.35,-0.02,0.05,-0.02,
4.048,-0.07,0.17,0.35,-0.02,0.05,-0.02,
4.058,-0.07,0.17,0.35,-0.02,0.04,-0.01,
4.06,-0.07,0.17,0.35,-0.02,0.04,-0.01,
4.06,-0.08,0.16,0.34,-0.02,0.04,-0.01,
4.062,-0.08,0.16,0.34,-0.02,0.04,-0.01,
4.069,-0.08,0.16,0.34,-0.01,0.03,-0.01,
4.069,-0.08,0.16,0.34,-0.01,0.03,-0.01,
4.07,-0.09,0.16,0.34,-0.01,0.03,-0.01,
4.07,-0.09,0.16,0.34,-0.01,0.03,-0.01,
4.072,-0.09,0.16,0.34,-0.01,0.03,-0.01,
4.072,-0.09,0.16,0.34,-0.01,0.03,-0.01,
4.072,-0.09,0.15,0.34,-0.01,0.03,-0.01,
4.073,-0.09,0.15,0.34,-0.01,0.03,-0.01,
4.082,-0.09,0.15,0.34,-0.01,0.02,-0.01,
4.083,-0.09,0.15,0.34,-0.01,0.02,-0.01,
4.084,-0.10,0.14,0.34,-0.01,0.02,-0.01,
4.084,-0.10,0.14,0.34,-0.01,0.02,-0.01,
4.092,-0.10,0.14,0.34,-0.01,0.02,-0.01,
4.093,-0.10,0.14,0.34,-0.01,0.02,-0.01,
4.093,-0.10,0.14,0.33,-0.01,0.02,-0.01,
4.094,-0.10,0.14,0.33,-0.01,0.02,-0.01,
4.102,-0.10,0.14,0.33,-0.01,0.02,-0.01,
4.103,-0.10,0.14,0.33,-0.01,0.02,-0.01,
4.104,-0.11,0.13,0.33,-0.01,0.02,-0.01,
4.104,-0.11,0.13,0.33,-0.01,0.02,-0.01,
4.11,-0.11,0.13,0.33,-0.01,0.02,-0.01,
4.111,-0.11,0.13,0.33,-0.01,0.02,-0.01,
4.112,-0.11,0.13,0.33,-0.01,0.02,-0.01,
4.112,-0.11,0.13,0.33,-0.01,0.02,-0.01,
4.12,-0.11,0.13,0.33,-0.00,0.01,-0.00,
4.121,-0.11,0.13,0.33,-0.00,0.01,-0.00,
4.121,-0.12,0.13,0.32,-0.00,0.01,-0.00,
4.122,-0.12,0.13,0.32,-0.00,0.01,-0.00,
4.136,-0.12,0.13,0.32,-0.00,0.01,-0.00,
4.137,-0.12,0.13,0.32,-0.00,0.01,-0.00,
4.138,-0.12,0.12,0.32,-0.00,0.01,-0.00,
4.139,-0.12,0.12,0.32,-0.00,0.01,-0.00,
4.139,-0.12,0.12,0.32,-0.00,0.01,-0.00,
4.14,-0.12,0.12,0.32,-0.00,0.01,-0.00,
4.14,-0.13,0.11,0.32,-0.00,0.01,-0.00,
4.141,-0.13,0.11,0.32,-0.00,0.01,-0.00,
4.148,-0.13,0.11,0.32,-0.00,0.01,-0.00,
4.149,-0.13,0.11,0.32,-0.00,0.01,-0.00,
4.149,-0.14,0.11,0.31,-0.00,0.01,-0.00,
4.15,-0.14,0.11,0.31,-0.00,0.01,-0.00,
4.158,-0.14,0.11,0.31,-0.00,0.01,-0.00,
4.159,-0.14,0.11,0.31,-0.00,0.01,-0.00,
4.16,-0.14,0.10,0.31,-0.00,0.01,-0.00,
4.16,-0.14,0.10,0.31,-0.00,0.01,-0.00,
4.168,-0.14,0.10,0.31,-0.00,0.00,-0.00,
4.169,-0.14,0.10,0.31,-0.00,0.00,-0.00,
4.17,-0.15,0.10,0.31,-0.00,0.00,-0.00,
4.171,-0.15,0.10,0.31,-0.00,0.00,-0.00,
4.178,-0.15,0.10,0.31,-0.00,0.00,-0.00,
4.178,-0.15,0.10,0.31,-0.00,0.00,-0.00,
4.179,-0.16,0.09,0.30,-0.00,0.00,-0.00,
4.18,-0.16,0.09,0.30,-0.00,0.00,-0.00,
4.187,-0.16,0.09,0.30,0.00,-0.00,-0.00,
4.189,-0.16,0.09,0.30,0.00,-0.00,-0.00,
4.19,-0.16,0.09,0.30,0.00,-0.00,-0.00,
4.191,-0.16,0.09,0.30,0.00,-0.00,-0.00,
4.197,-0.16,0.09,0.30,0.00,0.00,0.00,
4.198,-0.16,0.09,0.30,0.00,0.00,0.00,
4.198,-0.17,0.09,0.30,0.00,0.00,0.00,
4.199,-0.17,0.09,0.30,0.00,0.00,0.00,
4.205,-0.17,0.09,0.30,0.00,0.00,-0.00,
4.207,-0.17,0.09,0.30,0.00,0.00,-0.00,
4.208,-0.17,0.08,0.29,0.00,0.00,-0.00,
4.209,-0.17,0.08,0.29,0.00,0.00,-0.00,
4.215,-0.17,0.08,0.29,-0.00,0.00,-0.00,
4.216,-0.17,0.08,0.29,-0.00,0.00,-0.00,
4.218,-0.18,0.08,0.29,-0.00,0.00,-0.00,
4.219,-0.18,0.08,0.29,-0.00,0.00,-0.00,
4.224,-0.18,0.08,0.29,0.00,0.00,-0.00,
4.225,-0.18,0.08,0.29,0.00,0.00,-0.00,
4.226,-0.18,0.08,0.29,0.00,0.00,-0.00,
4.226,-0.18,0.08,0.29,0.00,0.00,-0.00,
4.234,-0.18,0.08,0.29,0.00,-0.00,-0.00,
4.235,-0.18,0.08,0.29,0.00,-0.00,-0.00,
4.236,-0.18,0.07,0.29,0.00,-0.00,-0.00,
4.236,-0.18,0.07,0.29,0.00,-0.00,-0.00,
4.244,-0.18,0.07,0.29,0.00,0.00,-0.00,
4.244,-0.18,0.07,0.29,0.00,0.00,-0.00,
4.245,-0.19,0.07,0.28,0.00,0.00,-0.00,
4.246,-0.19,0.07,0.28,0.00,0.00,-0.00,
4.254,-0.19,0.07,0.28,0.00,-0.00,-0.00,
4.255,-0.19,0.07,0.28,0.00,-0.00,-0.00,
4.255,-0.19,0.07,0.28,0.00,-0.00,-0.00,
4.256,-0.19,0.07,0.28,0.00,-0.00,-0.00,
4.275,-0.19,0.07,0.28,0.00,-0.00,-0.00,
4.276,-0.19,0.07,0.28,0.00,-0.00,-0.00,
4.276,-0.19,0.06,0.28,0.00,-0.00,-0.00,
4.276,-0.19,0.06,0.28,0.00,-0.00,-0.00,
4.277,-0.19,0.06,0.28,-0.00,-0.00,-0.00,
4.277,-0.19,0.06,0.28,-0.00,-0.00,-0.00,
4.277,-0.41,0.06,0.13,-0.00,-0.00,-0.00,
4.278,-0.41,0.06,0.13,-0.00,-0.00,-0.00,
4.283,-0.41,0.06,0.13,-0.00,0.00,0.00,
4.283,-0.41,0.06,0.13,-0.00,0.00,0.00,
4.284,-0.42,0.05,0.12,-0.00,0.00,0.00,
4.284,-0.42,0.05,0.12,-0.00,0.00,0.00,
4.293,-0.42,0.05,0.12,-0.00,0.00,0.00,
4.294,-0.42,0.05,0.12,-0.00,0.00,0.00,
4.294,-0.40,0.02,0.14,-0.00,0.00,0.00,
4.295,-0.40,0.02,0.14,-0.00,0.00,0.00,
4.302,-0.40,0.02,0.14,0.00,0.00,-0.00,
4.303,-0.40,0.02,0.14,0.00,0.00,-0.00,
4.304,-0.36,-0.00,0.16,0.00,0.00,-0.00,
4.305,-0.36,-0.00,0.16,0.00,0.00,-0.00,
4.31,-0.36,-0.00,0.16,0.00,0.00,-0.00,
4.311,-0.36,-0.00,0.16,0.00,0.00,-0.00,
4.311,-0.36,-0.00,0.16,0.00,0.00,-0.00,
4.312,-0.36,-0.00,0.16,0.00,0.00,-0.00,
4.32,-0.36,-0.00,0.16,0.00,-0.00,0.00,
4.321,-0.36,-0.00,0.16,0.00,-0.00,0.00,
4.322,-0.34,-0.01,0.19,0.00,-0.00,0.00,
4.323,-0.34,-0.01,0.19,0.00,-0.00,0.00,
4.336,-0.34,-0.01,0.19,-0.00,0.00,-0.00,
4.337,-0.34,-0.01,0.19,-0.00,0.00,-0.00,
4.338,-0.37,0.01,0.17,-0.00,0.00,-0.00,
4.339,-0.37,0.01,0.17,-0.00,0.00,-0.00,
4.339,-0.37,0.01,0.17,-0.00,0.00,0.00,
4.34,-0.37,0.01,0.17,-0.00,0.00,0.00,
4.34,-0.37,0.04,0.16,-0.00,0.00,0.00,
4.341,-0.37,0.04,0.16,-0.00,0.00,0.00,
4.353,-0.37,0.04,0.16,-0.00,-0.00,0.00,
4.354,-0.37,0.04,0.16,-0.00,-0.00,0.00,
4.355,-0.36,0.07,0.15,-0.00,-0.00,0.00,
4.355,-0.36,0.07,0.15,-0.00,-0.00,0.00,
4.358,-0.36,0.07,0.15,-0.00,0.00,-0.00,
4.358,-0.36,0.07,0.15,-0.00,0.00,-0.00,
4.359,-0.36,0.10,0.13,-0.00,0.00,-0.00,
4.359,-0.36,0.10,0.13,-0.00,0.00,-0.00,
4.367,-0.36,0.10,0.13,-0.00,0.00,-0.00,
4.369,-0.36,0.10,0.13,-0.00,0.00,-0.00,
4.37,-0.32,0.10,0.13,-0.00,0.00,-0.00,
4.371,-0.32,0.10,0.13,-0.00,0.00,-0.00,
4.377,-0.32,0.10,0.13,-0.00,0.00,-0.00,
4.377,-0.32,0.10,0.13,-0.00,0.00,-0.00,
4.378,-0.28,0.08,0.13,-0.00,0.00,-0.00,
4.378,-0.28,0.08,0.13,-0.00,0.00,-0.00,
4.387,-0.28,0.08,0.13,0.00,-0.00,0.00,
4.388,-0.28,0.08,0.13,0.00,-0.00,0.00,
4.389,-0.28,0.08,0.13,0.00,-0.00,0.00,
4.39,-0.28,0.08,0.13,0.00,-0.00,0.00,
4.397,-0.28,0.08,0.13,0.00,0.00,-0.00,
4.398,-0.28,0.08,0.13,0.00,0.00,-0.00,
4.398,-0.28,0.08,0.13,0.00,0.00,-0.00,
4.399,-0.28,0.08,0.13,0.00,0.00,-0.00,
4.406,-0.28,0.08,0.13,-0.00,0.00,0.00,
4.407,-0.28,0.08,0.13,-0.00,0.00,0.00,
4.407,-0.28,0.08,0.13,-0.00,0.00,0.00,
4.408,-0.28,0.08,0.13,-0.00,0.00,0.00,
4.415,-0.28,0.08,0.13,0.00,0.00,-0.00,
4.417,-0.28,0.08,0.13,0.00,0.00,-0.00,
4.418,-0.28,0.08,0.13,0.00,0.00,-0.00,
4.419,-0.28,0.08,0.13,0.00,0.00,-0.00,
4.424,-0.28,0.08,0.13,-0.00,0.00,-0.00,
4.425,-0.28,0.08,0.13,-0.00,0.00,-0.00,
4.425,-0.27,0.08,0.14,-0.00,0.00,-0.00,
4.426,-0.27,0.08,0.14,-0.00,0.00,-0.00,
4.435,-0.27,0.08,0.14,-0.00,-0.00,0.00,
4.437,-0.27,0.08,0.14,-0.00,-0.00,0.00,
4.438,-0.27,0.08,0.14,-0.00,-0.00,0.00,
4.439,-0.27,0.08,0.14,-0.00,-0.00,0.00,
4.443,-0.27,0.08,0.14,-0.00,0.00,0.00,
4.444,-0.27,0.08,0.14,-0.00,0.00,0.00,
4.444,-0.27,0.08,0.14,-0.00,0.00,0.00,
4.445,-0.27,0.08,0.14,-0.00,0.00,0.00,
4.453,-0.27,0.08,0.14,0.00,-0.00,-0.00,
4.454,-0.27,0.08,0.14,0.00,-0.00,-0.00,
4.455,-0.26,0.08,0.14,0.00,-0.00,-0.00,
4.455,-0.26,0.08,0.14,0.00,-0.00,-0.00,
4.47,-0.26,0.08,0.14,0.00,-0.00,0.00,
4.471,-0.26,0.08,0.14,0.00,-0.00,0.00,
4.471,-0.26,0.08,0.15,0.00,-0.00,0.00,
4.471,-0.26,0.08,0.15,0.00,-0.00,0.00,
4.472,-0.26,0.08,0.15,-0.00,-0.00,-0.00,
4.472,-0.26,0.08,0.15,-0.00,-0.00,-0.00,
4.473,-0.26,0.08,0.15,-0.00,-0.00,-0.00,
4.473,-0.26,0.08,0.15,-0.00,-0.00,-0.00,
4.481,-0.26,0.08,0.15,-0.00,-0.00,0.00,
4.482,-0.26,0.08,0.15,-0.00,-0.00,0.00,
4.483,-0.25,0.08,0.15,-0.00,-0.00,0.00,
4.483,-0.25,0.08,0.15,-0.00,-0.00,0.00,
4.493,-0.25,0.08,0.15,-0.00,0.00,-0.00,
4.494,-0.25,0.08,0.15,-0.00,0.00,-0.00,
4.495,-0.25,0.08,0.16,-0.00,0.00,-0.00,
4.496,-0.25,0.08,0.16,-0.00,0.00,-0.00,
4.501,-0.25,0.08,0.16,0.00,0.00,0.00,
4.503,-0.25,0.08,0.16,0.00,0.00,0.00,
4.504,-0.24,0.08,0.16,0.00,0.00,0.00,
4.505,-0.24,0.08,0.16,0.00,0.00,0.00,
4.51,-0.24,0.08,0.16,0.00,0.00,0.00,
4.511,-0.24,0.08,0.16,0.00,0.00,0.00,
4.511,-0.24,0.08,0.16,0.00,0.00,0.00,
4.512,-0.24,0.08,0.16,0.00,0.00,0.00,
4.52,-0.24,0.08,0.16,-0.00,0.00,0.00,
4.521,-0.24,0.08,0.16,-0.00,0.00,0.00,
4.522,-0.24,0.08,0.16,-0.00,0.00,0.00,
4.523,-0.24,0.08,0.16,-0.00,0.00,0.00,
4.535,-0.24,0.08,0.16,0.00,0.00,-0.00,
4.536,-0.24,0.08,0.16,0.00,0.00,-0.00,
4.536,-0.24,0.07,0.17,0.00,0.00,-0.00,
4.537,-0.24,0.07,0.17,0.00,0.00,-0.00,
4.538,-0.24,0.07,0.17,0.00,-0.00,-0.00,
4.54,-0.24,0.07,0.17,0.00,-0.00,-0.00,
4.541,-0.23,0.07,0.17,0.00,-0.00,-0.00,
4.542,-0.23,0.07,0.17,0.00,-0.00,-0.00,
4.548,-0.23,0.07,0.17,0.00,-0.00,0.00,
4.549,-0.23,0.07,0.17,0.00,-0.00,0.00,
4.549,-0.23,0.07,0.17,0.00,-0.00,0.00,
4.55,-0.23,0.07,0.17,0.00,-0.00,0.00,
4.558,-0.23,0.07,0.17,-0.00,-0.00,-0.00,
4.559,-0.23,0.07,0.17,-0.00,-0.00,-0.00,
4.56,-0.23,0.07,0.17,-0.00,-0.00,-0.00,
4.56,-0.23,0.07,0.17,-0.00,-0.00,-0.00,
4.567,-0.23,0.07,0.17,0.00,0.00,0.00,
4.568,-0.23,0.07,0.17,0.00,0.00,0.00,
4.568,-0.22,0.07,0.18,0.00,0.00,0.00,
4.569,-0.22,0.07,0.18,0.00,0.00,0.00,
4.578,-0.22,0.07,0.18,0.00,-0.00,0.00,
4.579,-0.22,0.07,0.18,0.00,-0.00,0.00,
4.58,-0.22,0.07,0.18,0.00,-0.00,0.00,
4.581,-0.22,0.07,0.18,0.00,-0.00,0.00,
4.586,-0.22,0.07,0.18,0.00,0.00,0.00,
4.587,-0.22,0.07,0.18,0.00,0.00,0.00,
4.588,-0.21,0.07,0.18,0.00,0.00,0.00,
4.588,-0.21,0.07,0.18,0.00,0.00,0.00,
4.597,-0.21,0.07,0.18,-0.00,-0.00,-0.00,
4.598,-0.21,0.07,0.18,-0.00,-0.00,-0.00,
4.598,-0.21,0.07,0.19,-0.00,-0.00,-0.00,
4.599,-0.21,0.07,0.19,-0.00,-0.00,-0.00,
4.605,-0.21,0.07,0.19,0.00,0.00,0.00,
4.606,-0.21,0.07,0.19,0.00,0.00,0.00,
4.607,-0.21,0.06,0.19,0.00,0.00,0.00,
4.607,-0.21,0.06,0.19,0.00,0.00,0.00,
4.615,-0.21,0.06,0.19,-0.00,-0.00,-0.00,
4.616,-0.21,0.06,0.19,-0.00,-0.00,-0.00,
4.618,-0.20,0.06,0.19,-0.00,-0.00,-0.00,
4.618,-0.20,0.06,0.19,-0.00,-0.00,-0.00,
4.624,-0.20,0.06,0.19,-0.00,0.00,0.00,
4.625,-0.20,0.06,0.19,-0.00,0.00,0.00,
4.626,-0.20,0.06,0.20,-0.00,0.00,0.00,
4.627,-0.20,0.06,0.20,-0.00,0.00,0.00,
4.655,-0.20,0.06,0.20,-0.00,0.00,0.00,
4.656,-0.20,0.06,0.20,-0.00,0.00,0.00,
4.657,-0.20,0.06,0.20,-0.00,0.00,0.00,
4.657,-0.20,0.06,0.20,-0.00,0.00,0.00,
4.658,-0.20,0.06,0.20,-0.00,-0.00,-0.00,
4.658,-0.20,0.06,0.20,-0.00,-0.00,-0.00,
4.658,-0.19,0.06,0.20,-0.00,-0.00,-0.00,
4.659,-0.19,0.06,0.20,-0.00,-0.00,-0.00,
4.659,-0.19,0.06,0.20,0.00,0.00,0.00,
4.659,-0.19,0.06,0.20,0.00,0.00,0.00,
4.659,-0.19,0.06,0.21,0.00,0.00,0.00,
4.66,-0.19,0.06,0.21,0.00,0.00,0.00,
4.675,-0.19,0.06,0.21,-0.00,0.00,0.00,
4.676,-0.19,0.06,0.21,-0.00,0.00,0.00,
4.676,-0.18,0.06,0.21,-0.00,0.00,0.00,
4.677,-0.18,0.06,0.21,-0.00,0.00,0.00,
4.677,-0.18,0.06,0.21,-0.00,-0.00,-0.00,
4.678,-0.18,0.06,0.21,-0.00,-0.00,-0.00,
4.678,-0.18,0.05,0.21,-0.00,-0.00,-0.00,
4.678,-0.18,0.05,0.21,-0.00,-0.00,-0.00,
4.683,-0.18,0.05,0.21,-0.00,-0.00,0.00,
4.684,-0.18,0.05,0.21,-0.00,-0.00,0.00,
4.685,-0.18,0.05,0.21,-0.00,-0.00,0.00,
4.686,-0.18,0.05,0.21,-0.00,-0.00,0.00,
4.692,-0.18,0.05,0.21,0.00,0.00,-0.00,
4.693,-0.18,0.05,0.21,0.00,0.00,-0.00,
4.693,-0.17,0.05,0.22,0.00,0.00,-0.00,
4.694,-0.17,0.05,0.22,0.00,0.00,-0.00,
4.701,-0.17,0.05,0.22,0.00,0.00,-0.00,
4.702,-0.17,0.05,0.22,0.00,0.00,-0.00,
4.703,-0.17,0.05,0.22,0.00,0.00,-0.00,
4.703,-0.17,0.05,0.22,0.00,0.00,-0.00,
4.71,-0.17,0.05,0.22,0.00,-0.00,-0.00,
4.711,-0.17,0.05,0.22,0.00,-0.00,-0.00,
4.712,-0.17,0.05,0.22,0.00,-0.00,-0.00,
4.712,-0.17,0.05,0.22,0.00,-0.00,-0.00,
4.72,-0.17,0.05,0.22,-0.00,-0.00,0.00,
4.721,-0.17,0.05,0.22,-0.00,-0.00,0.00,
4.722,-0.17,0.05,0.22,-0.00,-0.00,0.00,
4.723,-0.17,0.05,0.22,-0.00,-0.00,0.00,
4.73,-0.17,0.05,0.22,0.00,0.00,0.00,
4.731,-0.17,0.05,0.22,0.00,0.00,0.00,
4.732,-0.17,0.05,0.22,0.00,0.00,0.00,
4.732,-0.17,0.05,0.22,0.00,0.00,0.00,
4.739,-0.17,0.05,0.22,-0.00,0.00,-0.00,
4.74,-0.17,0.05,0.22,-0.00,0.00,-0.00,
4.74,-0.17,0.05,0.22,-0.00,0.00,-0.00,
4.741,-0.17,0.05,0.22,-0.00,0.00,-0.00,
4.748,-0.17,0.05,0.22,0.00,0.00,0.00,
4.749,-0.17,0.05,0.22,0.00,0.00,0.00,
4.75,-0.17,0.05,0.22,0.00,0.00,0.00,
4.751,-0.17,0.05,0.22,0.00,0.00,0.00,
4.758,-0.17,0.05,0.22,0.00,-0.00,-0.00,
4.759,-0.17,0.05,0.22,0.00,-0.00,-0.00,
4.759,-0.17,0.04,0.22,0.00,-0.00,-0.00,
4.76,-0.17,0.04,0.22,0.00,-0.00,-0.00,
4.768,-0.17,0.04,0.22,-0.00,-0.00,0.00,
4.77,-0.17,0.04,0.22,-0.00,-0.00,0.00,
4.77,-0.17,0.04,0.23,-0.00,-0.00,0.00,
4.771,-0.17,0.04,0.23,-0.00,-0.00,0.00,
4.791,-0.17,0.04,0.23,0.00,-0.00,-0.00,
4.792,-0.17,0.04,0.23,0.00,-0.00,-0.00,
4.792,-0.17,0.04,0.23,0.00,-0.00,-0.00,
4.793,-0.17,0.04,0.23,0.00,-0.00,-0.00,
4.793,-0.17,0.04,0.23,-0.00,-0.00,0.00,
4.794,-0.17,0.04,0.23,-0.00,-0.00,0.00,
4.794,-0.17,0.04,0.23,-0.00,-0.00,0.00,
4.794,-0.17,0.04,0.23,-0.00,-0.00,0.00,
4.798,-0.17,0.04,0.23,-0.00,-0.00,0.00,
4.799,-0.17,0.04,0.23,-0.00,-0.00,0.00,
4.799,-0.17,0.04,0.23,-0.00,-0.00,0.00,
4.799,-0.17,0.04,0.23,-0.00,-0.00,0.00,
4.806,-0.17,0.04,0.23,0.00,0.00,0.00,
4.807,-0.17,0.04,0.23,0.00,0.00,0.00,
4.807,-0.17,0.04,0.23,0.00,0.00,0.00,
4.808,-0.17,0.04,0.23,0.00,0.00,0.00,
4.815,-0.17,0.04,0.23,-0.00,-0.00,0.00,
4.816,-0.17,0.04,0.23,-0.00,-0.00,0.00,
4.816,-0.17,0.04,0.23,-0.00,-0.00,0.00,
4.817,-0.17,0.04,0.23,-0.00,-0.00,0.00,
4.825,-0.17,0.04,0.23,0.00,-0.00,-0.00,
4.826,-0.17,0.04,0.23,0.00,-0.00,-0.00,
4.826,-0.17,0.04,0.23,0.00,-0.00,-0.00,
4.827,-0.17,0.04,0.23,0.00,-0.00,-0.00,
4.834,-0.17,0.04,0.23,0.00,-0.00,-0.00,
4.835,-0.17,0.04,0.23,0.00,-0.00,-0.00,
4.835,-0.17,0.04,0.23,0.00,-0.00,-0.00,
4.836,-0.17,0.04,0.23,0.00,-0.00,-0.00,
4.843,-0.17,0.04,0.23,0.00,-0.00,-0.00,
4.844,-0.17,0.04,0.23,0.00,-0.00,-0.00,
4.844,-0.17,0.04,0.23,0.00,-0.00,-0.00,
4.845,-0.17,0.04,0.23,0.00,-0.00,-0.00,
4.853,-0.17,0.04,0.23,-0.00,-0.00,-0.00,
4.854,-0.17,0.04,0.23,-0.00,-0.00,-0.00,
4.854,-0.17,0.04,0.23,-0.00,-0.00,-0.00,
4.855,-0.17,0.04,0.23,-0.00,-0.00,-0.00,
4.863,-0.17,0.04,0.23,0.00,-0.00,-0.00,
4.863,-0.17,0.04,0.23,0.00,-0.00,-0.00,
4.864,-0.17,0.04,0.23,0.00,-0.00,-0.00,
4.864,-0.17,0.04,0.23,0.00,-0.00,-0.00,
4.871,-0.17,0.04,0.23,-0.00,-0.00,0.00,
4.872,-0.17,0.04,0.23,-0.00,-0.00,0.00,
4.873,-0.17,0.04,0.23,-0.00,-0.00,0.00,
4.873,-0.17,0.04,0.23,-0.00,-0.00,0.00,
4.881,-0.17,0.04,0.23,-0.00,-0.00,0.00,
4.882,-0.17,0.04,0.23,-0.00,-0.00,0.00,
4.882,-0.17,0.04,0.23,-0.00,-0.00,0.00,
4.882,-0.17,0.04,0.23,-0.00,-0.00,0.00,
4.892,-0.17,0.04,0.23,-0.00,-0.00,-0.00,
4.893,-0.17,0.04,0.23,-0.00,-0.00,-0.00,
4.894,-0.17,0.04,0.23,-0.00,-0.00,-0.00,
4.894,-0.17,0.04,0.23,-0.00,-0.00,-0.00,
4.901,-0.17,0.04,0.23,-0.00,0.00,0.00,
4.902,-0.17,0.04,0.23,-0.00,0.00,0.00,
4.903,-0.17,0.04,0.23,-0.00,0.00,0.00,
4.903,-0.17,0.04,0.23,-0.00,0.00,0.00,
4.91,-0.17,0.04,0.23,-0.00,0.00,0.00,
4.911,-0.17,0.04,0.23,-0.00,0.00,0.00,
4.911,-0.17,0.04,0.23,-0.00,0.00,0.00,
4.912,-0.17,0.04,0.23,-0.00,0.00,0.00,
4.92,-0.17,0.04,0.23,0.00,-0.00,-0.00,
4.921,-0.17,0.04,0.23,0.00,-0.00,-0.00,
4.921,-0.17,0.04,0.23,0.00,-0.00,-0.00,
4.922,-0.17,0.04,0.23,0.00,-0.00,-0.00,
4.929,-0.17,0.04,0.23,0.00,0.00,-0.00,
4.93,-0.17,0.04,0.23,0.00,0.00,-0.00,
4.93,-0.17,0.04,0.23,0.00,0.00,-0.00,
4.93,-0.17,0.04,0.23,0.00,0.00,-0.00,
4.939,-0.17,0.04,0.23,0.00,0.00,-0.00,
4.939,-0.17,0.04,0.23,0.00,0.00,-0.00,
4.94,-0.17,0.04,0.23,0.00,0.00,-0.00,
4.94,-0.17,0.04,0.23,0.00,0.00,-0.00,
4.948,-0.17,0.04,0.23,0.00,-0.00,0.00,
4.948,-0.17,0.04,0.23,0.00,-0.00,0.00,
4.949,-0.17,0.04,0.23,0.00,-0.00,0.00,
4.949,-0.17,0.04,0.23,0.00,-0.00,0.00,
4.958,-0.17,0.04,0.23,-0.00,-0.00,-0.00,
4.959,-0.17,0.04,0.23,-0.00,-0.00,-0.00,
4.96,-0.17,0.04,0.23,-0.00,-0.00,-0.00,
4.961,-0.17,0.04,0.23,-0.00,-0.00,-0.00,
4.968,-0.17,0.04,0.23,0.00,-0.00,-0.00,
4.969,-0.17,0.04,0.23,0.00,-0.00,-0.00,
4.97,-0.17,0.04,0.23,0.00,-0.00,-0.00,
4.97,-0.17,0.04,0.23,0.00,-0.00,-0.00,
4.978,-0.17,0.04,0.23,0.00,0.00,-0.00,
4.979,-0.17,0.04,0.23,0.00,0.00,-0.00,
4.979,-0.17,0.04,0.23,0.00,0.00,-0.00,
4.98,-0.17,0.04,0.23,0.00,0.00,-0.00,
4.986,-0.17,0.04,0.23,0.00,-0.00,-0.00,
4.987,-0.17,0.04,0.23,0.00,-0.00,-0.00,
4.987,-0.17,0.04,0.23,0.00,-0.00,-0.00,
4.988,-0.17,0.04,0.23,0.00,-0.00,-0.00,
4.996,-0.17,0.04,0.23,-0.00,-0.00,-0.00,
4.997,-0.17,0.04,0.23,-0.00,-0.00,-0.00,
4.998,-0.17,0.04,0.23,-0.00,-0.00,-0.00,
4.998,-0.17,0.04,0.23,-0.00,-0.00,-0.00,
5.006,-0.17,0.04,0.23,-0.00,-0.00,0.00,
5.007,-0.17,0.04,0.23,-0.00,-0.00,0.00,
5.008,-0.17,0.04,0.23,-0.00,-0.00,0.00,
5.009,-0.17,0.04,0.23,-0.00,-0.00,0.00,
5.014,-0.17,0.04,0.23,0.00,-0.00,-0.00,
5.016,-0.17,0.04,0.23,0.00,-0.00,-0.00,
5.017,-0.17,0.04,0.23,0.00,-0.00,-0.00,
5.018,-0.17,0.04,0.23,0.00,-0.00,-0.00,
5.024,-0.17,0.04,0.23,-0.00,-0.00,0.00,
5.025,-0.17,0.04,0.23,-0.00,-0.00,0.00,
5.026,-0.17,0.04,0.23,-0.00,-0.00,0.00,
5.026,-0.17,0.04,0.23,-0.00,-0.00,0.00,
5.034,-0.17,0.04,0.23,-0.00,0.00,-0.00,
5.035,-0.17,0.04,0.23,-0.00,0.00,-0.00,
5.035,-0.17,0.04,0.23,-0.00,0.00,-0.00,
5.036,-0.17,0.04,0.23,-0.00,0.00,-0.00,
5.043,-0.17,0.04,0.23,0.00,-0.00,0.00,
5.044,-0.17,0.04,0.23,0.00,-0.00,0.00,
5.045,-0.17,0.04,0.23,0.00,-0.00,0.00,
5.045,-0.17,0.04,0.23,0.00,-0.00,0.00,
5.053,-0.17,0.04,0.23,-0.00,-0.00,0.00,
5.055,-0.17,0.04,0.23,-0.00,-0.00,0.00,
5.055,-0.17,0.04,0.23,-0.00,-0.00,0.00,
5.056,-0.17,0.04,0.23,-0.00,-0.00,0.00,
5.074,-0.17,0.04,0.23,0.00,0.00,0.00,
5.075,-0.17,0.04,0.23,0.00,0.00,0.00,
5.076,-0.17,0.04,0.23,0.00,0.00,0.00,
5.076,-0.17,0.04,0.23,0.00,0.00,0.00,
5.076,-0.17,0.04,0.23,-0.00,-0.00,0.00,
5.076,-0.17,0.04,0.23,-0.00,-0.00,0.00,
5.077,-0.17,0.04,0.23,-0.00,-0.00,0.00,
5.077,-0.17,0.04,0.23,-0.00,-0.00,0.00,
5.081,-0.17,0.04,0.23,0.00,-0.00,0.00,
5.082,-0.17,0.04,0.23,0.00,-0.00,0.00,
5.082,-0.17,0.04,0.23,0.00,-0.00,0.00,
5.082,-0.17,0.04,0.23,0.00,-0.00,0.00,
5.092,-0.17,0.04,0.23,-0.00,-0.00,-0.00,
5.093,-0.17,0.04,0.23,-0.00,-0.00,-0.00,
5.093,-0.17,0.04,0.23,-0.00,-0.00,-0.00,
5.094,-0.17,0.04,0.23,-0.00,-0.00,-0.00,
5.102,-0.17,0.04,0.23,0.00,-0.00,0.00,
5.103,-0.17,0.04,0.23,0.00,-0.00,0.00,
5.104,-0.17,0.04,0.23,0.00,-0.00,0.00,
5.104,-0.17,0.04,0.23,0.00,-0.00,0.00,
5.11,-0.17,0.04,0.23,0.00,-0.00,0.00,
5.111,-0.17,0.04,0.23,0.00,-0.00,0.00,
5.112,-0.17,0.04,0.23,0.00,-0.00,0.00,
5.112,-0.17,0.04,0.23,0.00,-0.00,0.00,
5.119,-0.17,0.04,0.23,-0.00,0.00,0.00,
5.12,-0.17,0.04,0.23,-0.00,0.00,0.00,
5.121,-0.17,0.04,0.23,-0.00,0.00,0.00,
5.121,-0.17,0.04,0.23,-0.00,0.00,0.00,
5.13,-0.17,0.04,0.23,-0.00,-0.00,-0.00,
5.131,-0.17,0.04,0.23,-0.00,-0.00,-0.00,
5.131,-0.17,0.04,0.23,-0.00,-0.00,-0.00,
5.132,-0.17,0.04,0.23,-0.00,-0.00,-0.00,
5.139,-0.17,0.04,0.23,-0.00,0.00,0.00,
5.14,-0.17,0.04,0.23,-0.00,0.00,0.00,
5.141,-0.17,0.04,0.23,-0.00,0.00,0.00,
5.141,-0.17,0.04,0.23,-0.00,0.00,0.00,
5.149,-0.17,0.04,0.23,0.00,0.00,0.00,
5.15,-0.17,0.04,0.23,0.00,0.00,0.00,
5.15,-0.17,0.04,0.23,0.00,0.00,0.00,
5.151,-0.17,0.04,0.23,0.00,0.00,0.00,
5.158,-0.17,0.04,0.23,0.00,0.00,0.00,
5.159,-0.17,0.04,0.23,0.00,0.00,0.00,
5.159,-0.17,0.04,0.23,0.00,0.00,0.00,
5.16,-0.17,0.04,0.23,0.00,0.00,0.00,
5.168,-0.17,0.04,0.23,-0.00,0.00,-0.00,
5.17,-0.17,0.04,0.23,-0.00,0.00,-0.00,
5.17,-0.17,0.04,0.23,-0.00,0.00,-0.00,
5.171,-0.17,0.04,0.23,-0.00,0.00,-0.00,
5.177,-0.17,0.04,0.23,-0.00,-0.00,-0.00,
5.178,-0.17,0.04,0.23,-0.00,-0.00,-0.00,
5.179,-0.17,0.04,0.23,-0.00,-0.00,-0.00,
5.179,-0.17,0.04,0.23,-0.00,-0.00,-0.00,
5.187,-0.17,0.04,0.23,0.00,0.00,-0.00,
5.187,-0.17,0.04,0.23,0.00,0.00,-0.00,
5.188,-0.17,0.04,0.23,0.00,0.00,-0.00,
5.188,-0.17,0.04,0.23,0.00,0.00,-0.00,
5.196,-0.17,0.04,0.23,0.00,-0.00,0.00,
5.197,-0.17,0.04,0.23,0.00,-0.00,0.00,
5.198,-0.17,0.04,0.23,0.00,-0.00,0.00,
5.198,-0.17,0.04,0.23,0.00,-0.00,0.00,
5.205,-0.17,0.04,0.23,0.00,-0.00,0.00,
5.206,-0.17,0.04,0.23,0.00,-0.00,0.00,
5.207,-0.17,0.04,0.23,0.00,-0.00,0.00,
5.207,-0.17,0.04,0.23,0.00,-0.00,0.00,
5.215,-0.17,0.04,0.23,-0.00,0.00,-0.00,
5.216,-0.17,0.04,0.23,-0.00,0.00,-0.00,
5.217,-0.17,0.04,0.23,-0.00,0.00,-0.00,
5.217,-0.17,0.04,0.23,-0.00,0.00,-0.00,
5.225,-0.17,0.04,0.23,-0.00,0.00,-0.00,
5.226,-0.17,0.04,0.23,-0.00,0.00,-0.00,
5.226,-0.17,0.04,0.23,-0.00,0.00,-0.00,
5.227,-0.17,0.04,0.23,-0.00,0.00,-0.00,
5.235,-0.17,0.04,0.23,-0.00,-0.00,0.00,
5.237,-0.17,0.04,0.23,-0.00,-0.00,0.00,
5.237,-0.17,0.04,0.23,-0.00,-0.00,0.00,
5.238,-0.17,0.04,0.23,-0.00,-0.00,0.00,
5.244,-0.17,0.04,0.23,0.00,-0.00,0.00,
5.244,-0.17,0.04,0.23,0.00,-0.00,0.00,
5.245,-0.17,0.04,0.23,0.00,-0.00,0.00,
5.245,-0.17,0.04,0.23,0.00,-0.00,0.00,
5.252,-0.17,0.04,0.23,0.00,-0.00,-0.00,
5.253,-0.17,0.04,0.23,0.00,-0.00,-0.00,
5.253,-0.17,0.04,0.23,0.00,-0.00,-0.00,
5.254,-0.17,0.04,0.23,0.00,-0.00,-0.00,
5.266,-0.17,0.04,0.23,0.00,-0.00,0.00,
5.267,-0.17,0.04,0.23,0.00,-0.00,0.00,
5.267,-0.17,0.04,0.23,0.00,-0.00,0.00,
5.268,-0.17,0.04,0.23,0.00,-0.00,0.00,
5.272,-0.17,0.04,0.23,0.00,0.00,0.00,
5.273,-0.17,0.04,0.23,0.00,0.00,0.00,
5.273,-0.17,0.04,0.23,0.00,0.00,0.00,
5.274,-0.17,0.04,0.23,0.00,0.00,0.00,
5.281,-0.17,0.04,0.23,0.00,0.00,0.00,
5.282,-0.17,0.04,0.23,0.00,0.00,0.00,
5.282,-0.17,0.04,0.23,0.00,0.00,0.00,
5.282,-0.17,0.04,0.23,0.00,0.00,0.00,
5.292,-0.17,0.04,0.23,-0.00,0.00,-0.00,
5.293,-0.17,0.04,0.23,-0.00,0.00,-0.00,
5.293,-0.17,0.04,0.23,-0.00,0.00,-0.00,
5.294,-0.17,0.04,0.23,-0.00,0.00,-0.00,
5.301,-0.17,0.04,0.23,-0.00,0.00,-0.00,
5.302,-0.17,0.04,0.23,-0.00,0.00,-0.00,
5.303,-0.17,0.04,0.23,-0.00,0.00,-0.00,
5.303,-0.17,0.04,0.23,-0.00,0.00,-0.00,
5.31,-0.17,0.04,0.23,-0.00,0.00,-0.00,
5.311,-0.17,0.04,0.23,-0.00,0.00,-0.00,
5.311,-0.17,0.04,0.23,-0.00,0.00,-0.00,
5.312,-0.17,0.04,0.23,-0.00,0.00,-0.00,
5.32,-0.17,0.04,0.23,0.00,-0.00,-0.00,
5.321,-0.17,0.04,0.23,0.00,-0.00,-0.00,
5.322,-0.17,0.04,0.23,0.00,-0.00,-0.00,
5.322,-0.17,0.04,0.23,0.00,-0.00,-0.00,
5.33,-0.17,0.04,0.23,0.00,-0.00,0.00,
5.331,-0.17,0.04,0.23,0.00,-0.00,0.00,
5.331,-0.17,0.04,0.23,0.00,-0.00,0.00,
5.332,-0.17,0.04,0.23,0.00,-0.00,0.00,
5.338,-0.17,0.04,0.23,-0.00,0.00,0.00,
5.339,-0.17,0.04,0.23,-0.00,0.00,0.00,
5.34,-0.17,0.04,0.23,-0.00,0.00,0.00,
5.34,-0.17,0.04,0.23,-0.00,0.00,0.00,
5.348,-0.17,0.04,0.23,-0.00,-0.00,-0.00,
5.349,-0.17,0.04,0.23,-0.00,-0.00,-0.00,
5.35,-0.17,0.04,0.23,-0.00,-0.00,-0.00,
5.35,-0.17,0.04,0.23,-0.00,-0.00,-0.00,
5.358,-0.17,0.04,0.23,0.00,0.00,-0.00,
5.359,-0.17,0.04,0.23,0.00,0.00,-0.00,
5.36,-0.17,0.04,0.23,0.00,0.00,-0.00,
5.36,-0.17,0.04,0.23,0.00,0.00,-0.00,
5.367,-0.17,0.04,0.23,0.00,-0.00,0.00,
5.369,-0.17,0.04,0.23,0.00,-0.00,0.00,
5.369,-0.17,0.04,0.23,0.00,-0.00,0.00,
5.37,-0.17,0.04,0.23,0.00,-0.00,0.00,
5.377,-0.17,0.04,0.23,0.00,0.00,0.00,
5.377,-0.17,0.04,0.23,0.00,0.00,0.00,
5.377,-0.17,0.04,0.23,0.00,0.00,0.00,
5.378,-0.17,0.04,0.23,0.00,0.00,0.00,
5.387,-0.17,0.04,0.23,-0.00,0.00,-0.00,
5.387,-0.17,0.04,0.23,-0.00,0.00,-0.00,
5.388,-0.17,0.04,0.23,-0.00,0.00,-0.00,
5.388,-0.17,0.04,0.23,-0.00,0.00,-0.00,
5.396,-0.17,0.04,0.23,0.00,0.00,0.00,
5.397,-0.17,0.04,0.23,0.00,0.00,0.00,
5.397,-0.17,0.04,0.23,0.00,0.00,0.00,
5.398,-0.17,0.04,0.23,0.00,0.00,0.00,
5.406,-0.17,0.04,0.23,0.00,-0.00,-0.00,
5.407,-0.17,0.04,0.23,0.00,-0.00,-0.00,
5.407,-0.17,0.04,0.23,0.00,-0.00,-0.00,
5.408,-0.17,0.04,0.23,0.00,-0.00,-0.00,
5.415,-0.17,0.04,0.23,-0.00,-0.00,-0.00,
5.416,-0.17,0.04,0.23,-0.00,-0.00,-0.00,
5.417,-0.17,0.04,0.23,-0.00,-0.00,-0.00,
5.417,-0.17,0.04,0.23,-0.00,-0.00,-0.00,
5.425,-0.17,0.04,0.23,-0.00,0.00,0.00,
5.426,-0.17,0.04,0.23,-0.00,0.00,0.00,
5.426,-0.17,0.04,0.23,-0.00,0.00,0.00,
5.427,-0.17,0.04,0.23,-0.00,0.00,0.00,
5.434,-0.17,0.04,0.23,-0.00,-0.00,0.00,
5.435,-0.17,0.04,0.23,-0.00,-0.00,0.00,
5.436,-0.17,0.04,0.23,-0.00,-0.00,0.00,
5.436,-0.17,0.04,0.23,-0.00,-0.00,0.00,
5.443,-0.17,0.04,0.23,-0.00,-0.00,-0.00,
5.444,-0.17,0.04,0.23,-0.00,-0.00,-0.00,
5.444,-0.17,0.04,0.23,-0.00,-0.00,-0.00,
5.445,-0.17,0.04,0.23,-0.00,-0.00,-0.00,
5.457,-0.17,0.04,0.23,-0.00,-0.00,0.00,
5.458,-0.17,0.04,0.23,-0.00,-0.00,0.00,
5.459,-0.17,0.04,0.23,-0.00,-0.00,0.00,
5.459,-0.17,0.04,0.23,-0.00,-0.00,0.00,
5.464,-0.17,0.04,0.23,-0.00,-0.00,0.00,
5.465,-0.17,0.04,0.23,-0.00,-0.00,0.00,
5.466,-0.17,0.04,0.23,-0.00,-0.00,0.00,
5.466,-0.17,0.04,0.23,-0.00,-0.00,0.00,
5.472,-0.17,0.04,0.23,0.00,-0.00,0.00,
5.472,-0.17,0.04,0.23,0.00,-0.00,0.00,
5.473,-0.17,0.04,0.23,0.00,-0.00,0.00,
5.473,-0.17,0.04,0.23,0.00,-0.00,0.00,
5.481,-0.17,0.04,0.23,-0.00,-0.00,-0.00,
5.482,-0.17,0.04,0.23,-0.00,-0.00,-0.00,
5.483,-0.17,0.04,0.23,-0.00,-0.00,-0.00,
5.484,-0.17,0.04,0.23,-0.00,-0.00,-0.00,
5.491,-0.17,0.04,0.23,-0.00,0.00,-0.00,
5.491,-0.17,0.04,0.23,-0.00,0.00,-0.00,
5.492,-0.17,0.04,0.23,-0.00,0.00,-0.00,
5.492,-0.17,0.04,0.23,-0.00,0.00,-0.00,
5.501,-0.17,0.04,0.23,-0.00,0.00,-0.00,
5.502,-0.17,0.04,0.23,-0.00,0.00,-0.00,
5.503,-0.17,0.04,0.23,-0.00,0.00,-0.00,
5.503,-0.17,0.04,0.23,-0.00,0.00,-0.00,
5.51,-0.17,0.04,0.23,-0.00,0.00,-0.00,
5.511,-0.17,0.04,0.23,-0.00,0.00,-0.00,
5.512,-0.17,0.04,0.23,-0.00,0.00,-0.00,
5.512,-0.17,0.04,0.23,-0.00,0.00,-0.00,
5.52,-0.17,0.04,0.23,0.00,0.00,-0.00,
5.521,-0.17,0.04,0.23,0.00,0.00,-0.00,
5.522,-0.17,0.04,0.23,0.00,0.00,-0.00,
5.522,-0.17,0.04,0.23,0.00,0.00,-0.00,
5.529,-0.17,0.04,0.23,-0.00,0.00,-0.00,
5.53,-0.17,0.04,0.23,-0.00,0.00,-0.00,
5.53,-0.17,0.04,0.23,-0.00,0.00,-0.00,
5.531,-0.17,0.04,0.23,-0.00,0.00,-0.00,
5.539,-0.17,0.04,0.23,0.00,0.00,-0.00,
5.539,-0.17,0.04,0.23,0.00,0.00,-0.00,
5.54,-0.17,0.04,0.23,0.00,0.00,-0.00,
5.54,-0.17,0.04,0.23,0.00,0.00,-0.00,
5.549,-0.17,0.04,0.23,-0.00,0.00,-0.00,
5.551,-0.17,0.04,0.23,-0.00,0.00,-0.00,
5.552,-0.17,0.04,0.23,-0.00,0.00,-0.00,
5.552,-0.17,0.04,0.23,-0.00,0.00,-0.00,
5.558,-0.17,0.04,0.23,-0.00,-0.00,-0.00,
5.559,-0.17,0.04,0.23,-0.00,-0.00,-0.00,
5.56,-0.17,0.04,0.23,-0.00,-0.00,-0.00,
5.561,-0.17,0.04,0.23,-0.00,-0.00,-0.00,
5.572,-0.17,0.04,0.23,-0.00,0.00,-0.00,
5.573,-0.17,0.04,0.23,-0.00,0.00,-0.00,
5.574,-0.17,0.04,0.23,-0.00,0.00,-0.00,
5.574,-0.17,0.04,0.23,-0.00,0.00,-0.00,
5.577,-0.17,0.04,0.23,-0.00,0.00,0.00,
5.578,-0.17,0.04,0.23,-0.00,0.00,0.00,
5.578,-0.17,0.04,0.23,-0.00,0.00,0.00,
5.579,-0.17,0.04,0.23,-0.00,0.00,0.00,
5.591,-0.17,0.04,0.23,0.00,0.00,-0.00,
5.592,-0.17,0.04,0.23,0.00,0.00,-0.00,
5.592,-0.17,0.04,0.23,0.00,0.00,-0.00,
5.592,-0.17,0.04,0.23,0.00,0.00,-0.00,
5.599,-0.17,0.04,0.23,0.00,-0.00,0.00,
5.6,-0.17,0.04,0.23,0.00,-0.00,0.00,
5.6,-0.17,0.04,0.23,0.00,-0.00,0.00,
5.601,-0.17,0.04,0.23,0.00,-0.00,0.00,
5.605,-0.17,0.04,0.23,-0.00,0.00,0.00,
5.606,-0.17,0.04,0.23,-0.00,0.00,0.00,
5.606,-0.17,0.04,0.23,-0.00,0.00,0.00,
5.606,-0.17,0.04,0.23,-0.00,0.00,0.00,
5.614,-0.17,0.04,0.23,0.00,-0.00,-0.00,
5.615,-0.17,0.04,0.23,0.00,-0.00,-0.00,
5.615,-0.17,0.04,0.23,0.00,-0.00,-0.00,
5.616,-0.17,0.04,0.23,0.00,-0.00,-0.00,
5.625,-0.17,0.04,0.23,-0.00,0.00,-0.00,
5.625,-0.17,0.04,0.23,-0.00,0.00,-0.00,
5.626,-0.17,0.04,0.23,-0.00,0.00,-0.00,
5.626,-0.17,0.04,0.23,-0.00,0.00,-0.00,
5.65,-0.17,0.04,0.23,0.00,0.00,0.00,
5.652,-0.17,0.04,0.23,0.00,0.00,0.00,
5.652,-0.17,0.04,0.23,0.00,0.00,0.00,
5.653,-0.17,0.04,0.23,0.00,0.00,0.00,
5.653,-0.17,0.04,0.23,-0.00,0.00,0.00,
5.654,-0.17,0.04,0.23,-0.00,0.00,0.00,
5.654,-0.17,0.04,0.23,-0.00,0.00,0.00,
5.655,-0.17,0.04,0.23,-0.00,0.00,0.00,
5.656,-0.17,0.04,0.23,0.00,0.00,0.00,
5.656,-0.17,0.04,0.23,0.00,0.00,0.00,
5.657,-0.17,0.04,0.23,0.00,0.00,0.00,
5.657,-0.17,0.04,0.23,0.00,0.00,0.00,
5.663,-0.17,0.04,0.23,-0.00,-0.00,-0.00,
5.664,-0.17,0.04,0.23,-0.00,-0.00,-0.00,
5.665,-0.17,0.04,0.23,-0.00,-0.00,-0.00,
5.665,-0.17,0.04,0.23,-0.00,-0.00,-0.00,
5.671,-0.17,0.04,0.23,-0.00,-0.00,0.00,
5.672,-0.17,0.04,0.23,-0.00,-0.00,0.00,
5.673,-0.17,0.04,0.23,-0.00,-0.00,0.00,
5.673,-0.17,0.04,0.23,-0.00,-0.00,0.00,
5.681,-0.17,0.04,0.23,-0.00,0.00,0.00,
5.682,-0.17,0.04,0.23,-0.00,0.00,0.00,
5.683,-0.17,0.04,0.23,-0.00,0.00,0.00,
5.683,-0.17,0.04,0.23,-0.00,0.00,0.00,
5.692,-0.17,0.04,0.23,0.00,0.00,-0.00,
5.693,-0.17,0.04,0.23,0.00,0.00,-0.00,
5.693,-0.17,0.04,0.23,0.00,0.00,-0.00,
5.694,-0.17,0.04,0.23,0.00,0.00,-0.00,
5.701,-0.17,0.04,0.23,0.00,0.00,-0.00,
5.702,-0.17,0.04,0.23,0.00,0.00,-0.00,
5.703,-0.17,0.04,0.23,0.00,0.00,-0.00,
5.703,-0.17,0.04,0.23,0.00,0.00,-0.00,
5.71,-0.17,0.04,0.23,0.00,0.00,0.00,
5.71,-0.17,0.04,0.23,0.00,0.00,0.00,
5.71,-0.17,0.04,0.23,0.00,0.00,0.00,
5.711,-0.17,0.04,0.23,0.00,0.00,0.00,
5.719,-0.17,0.04,0.23,-0.00,0.00,-0.00,
5.72,-0.17,0.04,0.23,-0.00,0.00,-0.00,
5.72,-0.17,0.04,0.23,-0.00,0.00,-0.00,
5.721,-0.17,0.04,0.23,-0.00,0.00,-0.00,
5.729,-0.17,0.04,0.23,0.00,-0.00,0.00,
5.73,-0.17,0.04,0.23,0.00,-0.00,0.00,
5.73,-0.17,0.04,0.23,0.00,-0.00,0.00,
5.73,-0.17,0.04,0.23,0.00,-0.00,0.00,
5.738,-0.17,0.04,0.23,-0.00,0.00,0.00,
5.739,-0.17,0.04,0.23,-0.00,0.00,0.00,
5.739,-0.17,0.04,0.23,-0.00,0.00,0.00,
5.74,-0.17,0.04,0.23,-0.00,0.00,0.00,
5.747,-0.17,0.04,0.23,-0.00,-0.00,-0.00,
5.748,-0.17,0.04,0.23,-0.00,-0.00,-0.00,
5.749,-0.17,0.04,0.23,-0.00,-0.00,-0.00,
5.749,-0.17,0.04,0.23,-0.00,-0.00,-0.00,
5.758,-0.17,0.04,0.23,0.00,-0.00,0.00,
5.758,-0.17,0.04,0.23,0.00,-0.00,0.00,
5.759,-0.17,0.04,0.23,0.00,-0.00,0.00,
5.76,-0.17,0.04,0.23,0.00,-0.00,0.00,
5.767,-0.17,0.04,0.23,-0.00,-0.00,-0.00,
5.769,-0.17,0.04,0.23,-0.00,-0.00,-0.00,
5.769,-0.17,0.04,0.23,-0.00,-0.00,-0.00,
5.77,-0.17,0.04,0.23,-0.00,-0.00,-0.00,
5.777,-0.17,0.04,0.23,0.00,0.00,0.00,
5.777,-0.17,0.04,0.23,0.00,0.00,0.00,
5.778,-0.17,0.04,0.23,0.00,0.00,0.00,
5.778,-0.17,0.04,0.23,0.00,0.00,0.00,
5.786,-0.17,0.04,0.23,-0.00,-0.00,0.00,
5.787,-0.17,0.04,0.23,-0.00,-0.00,0.00,
5.787,-0.17,0.04,0.23,-0.00,-0.00,0.00,
5.788,-0.17,0.04,0.23,-0.00,-0.00,0.00,
5.795,-0.17,0.04,0.23,-0.00,-0.00,0.00,
5.796,-0.17,0.04,0.23,-0.00,-0.00,0.00,
5.796,0.07,-0.28,0.36,-0.00,-0.00,0.00,
5.796,0.07,-0.28,0.36,-0.00,-0.00,0.00,
5.806,0.07,-0.28,0.36,0.00,0.00,-0.00,
5.807,0.07,-0.28,0.36,0.00,0.00,-0.00,
5.807,0.01,-0.31,0.42,0.00,0.00,-0.00,
5.808,0.01,-0.31,0.42,0.00,0.00,-0.00,
5.815,0.01,-0.31,0.42,-0.00,0.00,-0.00,
5.816,0.01,-0.31,0.42,-0.00,0.00,-0.00,
5.816,-0.06,-0.36,0.43,-0.00,0.00,-0.00,
5.817,-0.06,-0.36,0.43,-0.00,0.00,-0.00,
5.825,-0.06,-0.36,0.43,0.00,0.00,-0.00,
5.826,-0.06,-0.36,0.43,0.00,0.00,-0.00,
5.826,-0.12,-0.43,0.42,0.00,0.00,-0.00,
5.827,-0.12,-0.43,0.42,0.00,0.00,-0.00,
5.833,-0.12,-0.43,0.42,-0.00,-0.00,-0.00,
5.834,-0.12,-0.43,0.42,-0.00,-0.00,-0.00,
5.835,-0.09,-0.50,0.39,-0.00,-0.00,-0.00,
5.835,-0.09,-0.50,0.39,-0.00,-0.00,-0.00,
5.844,-0.09,-0.50,0.39,-0.00,0.00,-0.00,
5.845,-0.09,-0.50,0.39,-0.00,0.00,-0.00,
5.845,-0.04,-0.59,0.38,-0.00,0.00,-0.00,
5.846,-0.04,-0.59,0.38,-0.00,0.00,-0.00,
5.853,-0.04,-0.59,0.38,-0.00,0.00,-0.00,
5.854,-0.04,-0.59,0.38,-0.00,0.00,-0.00,
5.854,0.04,-0.64,0.32,-0.00,0.00,-0.00,
5.854,0.04,-0.64,0.32,-0.00,0.00,-0.00,
5.871,0.04,-0.64,0.32,-0.00,-0.00,0.00,
5.872,0.04,-0.64,0.32,-0.00,-0.00,0.00,
5.872,0.12,-0.68,0.29,-0.00,-0.00,0.00,
5.872,0.12,-0.68,0.29,-0.00,-0.00,0.00,
5.873,0.12,-0.68,0.29,-0.00,-0.00,-0.00,
5.873,0.12,-0.68,0.29,-0.00,-0.00,-0.00,
5.873,0.15,-0.69,0.28,-0.00,-0.00,-0.00,
5.874,0.15,-0.69,0.28,-0.00,-0.00,-0.00,
5.881,0.15,-0.69,0.28,0.34,0.16,0.33,
5.882,0.15,-0.69,0.28,0.34,0.16,0.33,
5.883,0.18,-0.64,0.33,0.34,0.16,0.33,
5.883,0.18,-0.64,0.33,0.34,0.16,0.33,
5.892,0.18,-0.64,0.33,0.35,0.17,0.33,
5.894,0.18,-0.64,0.33,0.35,0.17,0.33,
5.895,0.22,-0.53,0.46,0.35,0.17,0.33,
5.896,0.22,-0.53,0.46,0.35,0.17,0.33,
5.9,0.22,-0.53,0.46,0.35,0.17,0.33,
5.902,0.22,-0.53,0.46,0.35,0.17,0.33,
5.903,0.22,-0.53,0.46,0.35,0.17,0.33,
5.904,0.22,-0.53,0.46,0.35,0.17,0.33,
5.909,0.22,-0.53,0.46,0.35,0.19,0.30,
5.91,0.22,-0.53,0.46,0.35,0.19,0.30,
5.91,0.32,-0.30,0.55,0.35,0.19,0.30,
5.911,0.32,-0.30,0.55,0.35,0.19,0.30,
5.92,0.32,-0.30,0.55,0.34,0.20,0.25,
5.92,0.32,-0.30,0.55,0.34,0.20,0.25,
5.921,0.24,-0.20,0.42,0.34,0.20,0.25,
5.921,0.24,-0.20,0.42,0.34,0.20,0.25,
5.929,0.24,-0.20,0.42,0.29,0.23,0.16,
5.929,0.24,-0.20,0.42,0.29,0.23,0.16,
5.929,0.04,-0.14,0.25,0.29,0.23,0.16,
5.93,0.04,-0.14,0.25,0.29,0.23,0.16,
5.938,0.04,-0.14,0.25,0.22,0.23,0.06,
5.939,0.04,-0.14,0.25,0.22,0.23,0.06,
5.939,-0.25,-0.07,0.11,0.22,0.23,0.06,
5.94,-0.25,-0.07,0.11,0.22,0.23,0.06,
5.955,-0.25,-0.07,0.11,0.12,0.20,-0.02,
5.956,-0.25,-0.07,0.11,0.12,0.20,-0.02,
5.957,-0.43,0.02,0.03,0.12,0.20,-0.02,
5.957,-0.43,0.02,0.03,0.12,0.20,-0.02,
5.958,-0.43,0.02,0.03,0.01,0.10,-0.07,
5.958,-0.43,0.02,0.03,0.01,0.10,-0.07,
5.959,-0.47,0.11,0.07,0.01,0.10,-0.07,
5.959,-0.47,0.11,0.07,0.01,0.10,-0.07,
5.969,-0.47,0.11,0.07,-0.10,-0.04,-0.09,
5.97,-0.47,0.11,0.07,-0.10,-0.04,-0.09,
5.971,-0.35,0.19,0.17,-0.10,-0.04,-0.09,
5.971,-0.35,0.19,0.17,-0.10,-0.04,-0.09,
5.976,-0.35,0.19,0.17,-0.21,-0.18,-0.10,
5.976,-0.35,0.19,0.17,-0.21,-0.18,-0.10,
5.977,-0.11,0.28,0.29,-0.21,-0.18,-0.10,
5.977,-0.11,0.28,0.29,-0.21,-0.18,-0.10,
5.986,-0.11,0.28,0.29,-0.29,-0.27,-0.13,
5.987,-0.11,0.28,0.29,-0.29,-0.27,-0.13,
5.987,0.10,0.33,0.38,-0.29,-0.27,-0.13,
5.987,0.10,0.33,0.38,-0.29,-0.27,-0.13,
5.995,0.10,0.33,0.38,-0.34,-0.29,-0.17,
5.996,0.10,0.33,0.38,-0.34,-0.29,-0.17,
5.996,0.26,0.37,0.45,-0.34,-0.29,-0.17,
5.996,0.26,0.37,0.45,-0.34,-0.29,-0.17,
6.005,0.26,0.37,0.45,-0.37,-0.22,-0.25,
6.005,0.26,0.37,0.45,-0.37,-0.22,-0.25,
6.006,0.35,0.40,0.52,-0.37,-0.22,-0.25,
6.006,0.35,0.40,0.52,-0.37,-0.22,-0.25,
6.014,0.35,0.40,0.52,-0.36,-0.10,-0.34,
6.015,0.35,0.40,0.52,-0.36,-0.10,-0.34,
6.016,0.36,0.44,0.57,-0.36,-0.10,-0.34,
6.016,0.36,0.44,0.57,-0.36,-0.10,-0.34,
6.024,0.36,0.44,0.57,-0.34,0.05,-0.42,
6.024,0.36,0.44,0.57,-0.34,0.05,-0.42,
6.025,0.31,0.49,0.63,-0.34,0.05,-0.42,
6.026,0.31,0.49,0.63,-0.34,0.05,-0.42,
6.034,0.31,0.49,0.63,-0.31,0.18,-0.48,
6.034,0.31,0.49,0.63,-0.31,0.18,-0.48,
6.035,0.27,0.55,0.68,-0.31,0.18,-0.48,
6.035,0.27,0.55,0.68,-0.31,0.18,-0.48,
6.043,0.27,0.55,0.68,-0.28,0.28,-0.52,
6.043,0.27,0.55,0.68,-0.28,0.28,-0.52,
6.044,0.21,0.61,0.71,-0.28,0.28,-0.52,
6.045,0.21,0.61,0.71,-0.28,0.28,-0.52,
6.053,0.21,0.61,0.71,-0.27,0.35,-0.53,
6.055,0.21,0.61,0.71,-0.27,0.35,-0.53,
6.055,0.15,0.64,0.75,-0.27,0.35,-0.53,
6.056,0.15,0.64,0.75,-0.27,0.35,-0.53,
6.063,0.15,0.64,0.75,-0.27,0.38,-0.52,
6.064,0.15,0.64,0.75,-0.27,0.38,-0.52,
6.065,0.09,0.67,0.76,-0.27,0.38,-0.52,
6.065,0.09,0.67,0.76,-0.27,0.38,-0.52,
6.071,0.09,0.67,0.76,-0.27,0.39,-0.51,
6.072,0.09,0.67,0.76,-0.27,0.39,-0.51,
6.072,0.03,0.71,0.79,-0.27,0.39,-0.51,
6.073,0.03,0.71,0.79,-0.27,0.39,-0.51,
6.082,0.03,0.71,0.79,-0.26,0.37,-0.50,
6.083,0.03,0.71,0.79,-0.26,0.37,-0.50,
6.083,-0.03,0.74,0.79,-0.26,0.37,-0.50,
6.084,-0.03,0.74,0.79,-0.26,0.37,-0.50,
6.092,-0.03,0.74,0.79,-0.26,0.34,-0.48,
6.093,-0.03,0.74,0.79,-0.26,0.34,-0.48,
6.094,-0.06,0.75,0.77,-0.26,0.34,-0.48,
6.094,-0.06,0.75,0.77,-0.26,0.34,-0.48,
6.1,-0.06,0.75,0.77,-0.26,0.34,-0.48,
6.101,-0.06,0.75,0.77,-0.26,0.34,-0.48,
6.101,-0.06,0.75,0.77,-0.26,0.34,-0.48,
6.102,-0.06,0.75,0.77,-0.26,0.34,-0.48,
6.11,-0.06,0.75,0.77,-0.26,0.30,-0.46,
6.111,-0.06,0.75,0.77,-0.26,0.30,-0.46,
6.111,-0.04,0.71,0.75,-0.26,0.30,-0.46,
6.112,-0.04,0.71,0.75,-0.26,0.30,-0.46,
6.12,-0.04,0.71,0.75,-0.25,0.25,-0.43,
6.121,-0.04,0.71,0.75,-0.25,0.25,-0.43,
6.122,0.06,0.66,0.73,-0.25,0.25,-0.43,
6.122,0.06,0.66,0.73,-0.25,0.25,-0.43,
6.13,0.06,0.66,0.73,-0.24,0.21,-0.39,
6.13,0.06,0.66,0.73,-0.24,0.21,-0.39,
6.131,0.17,0.62,0.72,-0.24,0.21,-0.39,
6.131,0.17,0.62,0.72,-0.24,0.21,-0.39,
6.139,0.17,0.62,0.72,-0.22,0.18,-0.34,
6.14,0.17,0.62,0.72,-0.22,0.18,-0.34,
6.14,0.35,0.56,0.71,-0.22,0.18,-0.34,
6.141,0.35,0.56,0.71,-0.22,0.18,-0.34,
6.15,0.35,0.56,0.71,-0.19,0.18,-0.30,
6.151,0.35,0.56,0.71,-0.19,0.18,-0.30,
6.151,0.51,0.51,0.69,-0.19,0.18,-0.30,
6.152,0.51,0.51,0.69,-0.19,0.18,-0.30,
6.157,0.51,0.51,0.69,-0.15,0.21,-0.26,
6.158,0.51,0.51,0.69,-0.15,0.21,-0.26,
6.158,0.64,0.43,0.67,-0.15,0.21,-0.26,
6.159,0.64,0.43,0.67,-0.15,0.21,-0.26,
6.17,0.64,0.43,0.67,-0.10,0.27,-0.22,
6.171,0.64,0.43,0.67,-0.10,0.27,-0.22,
6.171,0.73,0.37,0.63,-0.10,0.27,-0.22,
6.171,0.73,0.37,0.63,-0.10,0.27,-0.22,
6.177,0.73,0.37,0.63,-0.05,0.34,-0.18,
6.177,0.73,0.37,0.63,-0.05,0.34,-0.18,
6.178,0.78,0.33,0.57,-0.05,0.34,-0.18,
6.178,0.78,0.33,0.57,-0.05,0.34,-0.18,
6.186,0.78,0.33,0.57,0.01,0.41,-0.15,
6.187,0.78,0.33,0.57,0.01,0.41,-0.15,
6.187,0.77,0.32,0.55,0.01,0.41,-0.15,
6.188,0.77,0.32,0.55,0.01,0.41,-0.15,
6.195,0.77,0.32,0.55,0.07,0.46,-0.13,
6.196,0.77,0.32,0.55,0.07,0.46,-0.13,
6.197,0.69,0.34,0.56,0.07,0.46,-0.13,
6.197,0.69,0.34,0.56,0.07,0.46,-0.13,
6.205,0.69,0.34,0.56,0.11,0.48,-0.11,
6.206,0.69,0.34,0.56,0.11,0.48,-0.11,
6.207,0.54,0.35,0.57,0.11,0.48,-0.11,
6.207,0.54,0.35,0.57,0.11,0.48,-0.11,
6.214,0.54,0.35,0.57,0.12,0.48,-0.08,
6.215,0.54,0.35,0.57,0.12,0.48,-0.08,
6.216,0.28,0.31,0.59,0.12,0.48,-0.08,
6.217,0.28,0.31,0.59,0.12,0.48,-0.08,
6.224,0.28,0.31,0.59,0.12,0.44,-0.05,
6.225,0.28,0.31,0.59,0.12,0.44,-0.05,
6.226,-0.04,0.27,0.57,0.12,0.44,-0.05,
6.227,-0.04,0.27,0.57,0.12,0.44,-0.05,
6.233,-0.04,0.27,0.57,0.11,0.37,-0.02,
6.234,-0.04,0.27,0.57,0.11,0.37,-0.02,
6.235,-0.35,0.24,0.59,0.11,0.37,-0.02,
6.236,-0.35,0.24,0.59,0.11,0.37,-0.02,
6.243,-0.35,0.24,0.59,0.08,0.25,0.03,
6.243,-0.35,0.24,0.59,0.08,0.25,0.03,
6.244,-0.63,0.19,0.66,0.08,0.25,0.03,
6.244,-0.63,0.19,0.66,0.08,0.25,0.03,
6.252,-0.63,0.19,0.66,0.05,0.10,0.09,
6.253,-0.63,0.19,0.66,0.05,0.10,0.09,
6.254,-0.78,0.20,0.76,0.05,0.10,0.09,
6.254,-0.78,0.20,0.76,0.05,0.10,0.09,
6.263,-0.78,0.20,0.76,0.01,-0.07,0.17,
6.264,-0.87,0.19,0.84,0.01,-0.07,0.17,
6.264,-0.87,0.19,0.84,0.01,-0.07,0.17,
6.264,-0.87,0.19,0.84,0.01,-0.07,0.17,
6.271,-0.87,0.19,0.84,-0.02,-0.22,0.25,
6.272,-0.87,0.19,0.84,-0.02,-0.22,0.25,
6.272,-0.85,0.16,0.85,-0.02,-0.22,0.25,
6.273,-0.85,0.16,0.85,-0.02,-0.22,0.25,
6.281,-0.85,0.16,0.85,-0.05,-0.33,0.32,
6.282,-0.85,0.16,0.85,-0.05,-0.33,0.32,
6.283,-0.75,0.11,0.79,-0.05,-0.33,0.32,
6.283,-0.75,0.11,0.79,-0.05,-0.33,0.32,
6.291,-0.75,0.11,0.79,-0.06,-0.40,0.35,
6.292,-0.75,0.11,0.79,-0.06,-0.40,0.35,
6.292,-0.64,0.04,0.69,-0.06,-0.40,0.35,
6.293,-0.64,0.04,0.69,-0.06,-0.40,0.35,
6.301,-0.64,0.04,0.69,-0.06,-0.40,0.35,
6.302,-0.64,0.04,0.69,-0.06,-0.40,0.35,
6.303,-0.64,0.04,0.69,-0.06,-0.40,0.35,
6.303,-0.64,0.04,0.69,-0.06,-0.40,0.35,
6.312,-0.64,0.04,0.69,-0.05,-0.42,0.37,
6.313,-0.64,0.04,0.69,-0.05,-0.42,0.37,
6.313,-0.38,-0.07,0.44,-0.05,-0.42,0.37,
6.314,-0.38,-0.07,0.44,-0.05,-0.42,0.37,
6.32,-0.38,-0.07,0.44,-0.04,-0.40,0.36,
6.32,-0.38,-0.07,0.44,-0.04,-0.40,0.36,
6.321,-0.25,-0.14,0.33,-0.04,-0.40,0.36,
6.322,-0.25,-0.14,0.33,-0.04,-0.40,0.36,
6.329,-0.25,-0.14,0.33,-0.00,-0.36,0.34,
6.33,-0.25,-0.14,0.33,-0.00,-0.36,0.34,
6.33,-0.12,-0.25,0.21,-0.00,-0.36,0.34,
6.331,-0.12,-0.25,0.21,-0.00,-0.36,0.34,
6.338,-0.12,-0.25,0.21,0.04,-0.30,0.32,
6.339,-0.12,-0.25,0.21,0.04,-0.30,0.32,
6.34,0.01,-0.40,0.11,0.04,-0.30,0.32,
6.34,0.01,-0.40,0.11,0.04,-0.30,0.32,
6.349,0.01,-0.40,0.11,0.08,-0.22,0.30,
6.35,0.01,-0.40,0.11,0.08,-0.22,0.30,
6.351,0.12,-0.56,0.04,0.08,-0.22,0.30,
6.351,0.12,-0.56,0.04,0.08,-0.22,0.30,
6.357,0.12,-0.56,0.04,0.13,-0.15,0.31,
6.358,0.12,-0.56,0.04,0.13,-0.15,0.31,
6.358,0.18,-0.68,0.00,0.13,-0.15,0.31,
6.359,0.18,-0.68,0.00,0.13,-0.15,0.31,
6.367,0.18,-0.68,0.00,0.17,-0.08,0.33,
6.368,0.18,-0.68,0.00,0.17,-0.08,0.33,
6.369,0.19,-0.77,-0.02,0.17,-0.08,0.33,
6.37,0.19,-0.77,-0.02,0.17,-0.08,0.33,
6.377,0.19,-0.77,-0.02,0.21,-0.01,0.37,
6.377,0.19,-0.77,-0.02,0.21,-0.01,0.37,
6.378,0.12,-0.81,-0.02,0.21,-0.01,0.37,
6.378,0.12,-0.81,-0.02,0.21,-0.01,0.37,
6.386,0.12,-0.81,-0.02,0.25,0.05,0.41,
6.387,0.12,-0.81,-0.02,0.25,0.05,0.41,
6.387,0.01,-0.80,-0.01,0.25,0.05,0.41,
6.387,0.01,-0.80,-0.01,0.25,0.05,0.41,
6.395,0.01,-0.80,-0.01,0.28,0.08,0.44,
6.396,0.01,-0.80,-0.01,0.28,0.08,0.44,
6.397,-0.12,-0.78,-0.05,0.28,0.08,0.44,
6.397,-0.12,-0.78,-0.05,0.28,0.08,0.44,
6.405,-0.12,-0.78,-0.05,0.30,0.09,0.45,
6.406,-0.12,-0.78,-0.05,0.30,0.09,0.45,
6.407,-0.31,-0.76,-0.08,0.30,0.09,0.45,
6.408,-0.31,-0.76,-0.08,0.30,0.09,0.45,
6.415,-0.31,-0.76,-0.08,0.29,0.07,0.45,
6.416,-0.31,-0.76,-0.08,0.29,0.07,0.45,
6.416,-0.48,-0.71,-0.17,0.29,0.07,0.45,
6.417,-0.48,-0.71,-0.17,0.29,0.07,0.45,
6.424,-0.48,-0.71,-0.17,0.27,0.01,0.44,
6.425,-0.48,-0.71,-0.17,0.27,0.01,0.44,
6.426,-0.59,-0.65,-0.33,0.27,0.01,0.44,
6.426,-0.59,-0.65,-0.33,0.27,0.01,0.44,
6.434,-0.59,-0.65,-0.33,0.22,-0.07,0.43,
6.435,-0.59,-0.65,-0.33,0.22,-0.07,0.43,
6.436,-0.68,-0.59,-0.58,0.22,-0.07,0.43,
6.437,-0.68,-0.59,-0.58,0.22,-0.07,0.43,
6.443,-0.68,-0.59,-0.58,0.14,-0.18,0.43,
6.443,-0.68,-0.59,-0.58,0.14,-0.18,0.43,
6.444,-0.62,-0.55,-1.01,0.14,-0.18,0.43,
6.444,-0.62,-0.55,-1.01,0.14,-0.18,0.43,
6.453,-0.62,-0.55,-1.01,0.05,-0.30,0.43,
6.453,-0.62,-0.55,-1.01,0.05,-0.30,0.43,
6.454,-0.48,-0.57,-1.44,0.05,-0.30,0.43,
6.454,-0.48,-0.57,-1.44,0.05,-0.30,0.43,
6.469,-0.48,-0.57,-1.44,-0.05,-0.43,0.42,
6.47,-0.48,-0.57,-1.44,-0.05,-0.43,0.42,
6.47,-0.26,-0.62,-1.84,-0.05,-0.43,0.42,
6.471,-0.26,-0.62,-1.84,-0.05,-0.43,0.42,
6.471,-0.26,-0.62,-1.84,-0.15,-0.57,0.40,
6.471,-0.26,-0.62,-1.84,-0.15,-0.57,0.40,
6.471,0.11,-0.69,-2.12,-0.15,-0.57,0.40,
6.472,0.11,-0.69,-2.12,-0.15,-0.57,0.40,
6.482,0.11,-0.69,-2.12,-0.24,-0.67,0.38,
6.483,0.11,-0.69,-2.12,-0.24,-0.67,0.38,
6.483,0.58,-0.70,-2.16,-0.24,-0.67,0.38,
6.483,0.58,-0.70,-2.16,-0.24,-0.67,0.38,
6.491,0.58,-0.70,-2.16,-0.24,-0.67,0.38,
6.492,0.58,-0.70,-2.16,-0.24,-0.67,0.38,
6.492,0.58,-0.70,-2.16,-0.24,-0.67,0.38,
6.493,0.58,-0.70,-2.16,-0.24,-0.67,0.38,
6.503,0.58,-0.70,-2.16,-0.31,-0.65,0.29,
6.504,0.58,-0.70,-2.16,-0.31,-0.65,0.29,
6.504,1.24,-0.30,-1.37,-0.31,-0.65,0.29,
6.505,1.24,-0.30,-1.37,-0.31,-0.65,0.29,
6.511,1.24,-0.30,-1.37,-0.31,-0.65,0.29,
6.512,1.24,-0.30,-1.37,-0.31,-0.65,0.29,
6.513,1.24,-0.30,-1.37,-0.31,-0.65,0.29,
6.513,1.24,-0.30,-1.37,-0.31,-0.65,0.29,
6.52,1.24,-0.30,-1.37,-0.29,-0.46,0.16,
6.52,1.24,-0.30,-1.37,-0.29,-0.46,0.16,
6.521,-0.74,0.83,-0.17,-0.29,-0.46,0.16,
6.521,-0.74,0.83,-0.17,-0.29,-0.46,0.16,
6.529,-0.74,0.83,-0.17,-0.28,-0.22,-0.01,
6.53,-0.74,0.83,-0.17,-0.28,-0.22,-0.01,
6.53,-1.09,1.43,0.12,-0.28,-0.22,-0.01,
6.531,-1.09,1.43,0.12,-0.28,-0.22,-0.01,
6.538,-1.09,1.43,0.12,-0.32,-0.04,-0.20,
6.539,-1.09,1.43,0.12,-0.32,-0.04,-0.20,
6.539,-1.52,1.82,0.21,-0.32,-0.04,-0.20,
6.54,-1.52,1.82,0.21,-0.32,-0.04,-0.20,
6.549,-1.52,1.82,0.21,-0.46,-0.02,-0.42,
6.55,-1.52,1.82,0.21,-0.46,-0.02,-0.42,
6.551,-1.56,1.91,0.27,-0.46,-0.02,-0.42,
6.551,-1.56,1.91,0.27,-0.46,-0.02,-0.42,
6.557,-1.56,1.91,0.27,-0.66,-0.11,-0.66,
6.558,-1.56,1.91,0.27,-0.66,-0.11,-0.66,
6.559,-1.19,1.73,0.30,-0.66,-0.11,-0.66,
6.559,-1.19,1.73,0.30,-0.66,-0.11,-0.66,
6.567,-1.19,1.73,0.30,-0.85,-0.24,-0.90,
6.568,-1.19,1.73,0.30,-0.85,-0.24,-0.90,
6.569,-0.55,1.36,0.14,-0.85,-0.24,-0.90,
6.57,-0.55,1.36,0.14,-0.85,-0.24,-0.90,
6.583,-0.55,1.36,0.14,-0.76,-0.32,-1.10,
6.584,-0.55,1.36,0.14,-0.76,-0.32,-1.10,
6.584,0.87,0.94,-0.14,-0.76,-0.32,-1.10,
6.585,0.87,0.94,-0.14,-0.76,-0.32,-1.10,
6.585,0.87,0.94,-0.14,-0.57,-0.27,-1.24,
6.585,0.87,0.94,-0.14,-0.57,-0.27,-1.24,
6.586,0.99,0.53,-0.37,-0.57,-0.27,-1.24,
6.586,0.99,0.53,-0.37,-0.57,-0.27,-1.24,
6.595,0.99,0.53,-0.37,-0.44,-0.06,-1.28,
6.596,0.99,0.53,-0.37,-0.44,-0.06,-1.28,
6.596,0.99,0.12,-0.54,-0.44,-0.06,-1.28,
6.596,0.99,0.12,-0.54,-0.44,-0.06,-1.28,
6.605,0.99,0.12,-0.54,-0.20,0.24,-1.22,
6.606,0.99,0.12,-0.54,-0.20,0.24,-1.22,
6.607,0.87,-0.22,-0.64,-0.20,0.24,-1.22,
6.607,0.87,-0.22,-0.64,-0.20,0.24,-1.22,
6.614,0.87,-0.22,-0.64,0.09,0.49,-1.05,
6.615,0.87,-0.22,-0.64,0.09,0.49,-1.05,
6.616,0.63,-0.52,-0.59,0.09,0.49,-1.05,
6.616,0.63,-0.52,-0.59,0.09,0.49,-1.05,
6.624,0.63,-0.52,-0.59,0.36,0.63,-0.78,
6.625,0.63,-0.52,-0.59,0.36,0.63,-0.78,
6.625,0.25,-0.80,-0.55,0.36,0.63,-0.78,
6.626,0.25,-0.80,-0.55,0.36,0.63,-0.78,
6.649,0.25,-0.80,-0.55,0.59,0.64,-0.46,
6.65,0.25,-0.80,-0.55,0.59,0.64,-0.46,
6.651,-0.19,-1.08,-0.48,0.59,0.64,-0.46,
6.651,-0.19,-1.08,-0.48,0.59,0.64,-0.46,
6.651,-0.19,-1.08,-0.48,0.78,0.55,-0.12,
6.652,-0.19,-1.08,-0.48,0.78,0.55,-0.12,
6.652,-0.67,-1.41,-0.31,0.78,0.55,-0.12,
6.653,-0.67,-1.41,-0.31,0.78,0.55,-0.12,
6.654,-0.67,-1.41,-0.31,0.92,0.39,0.22,
6.654,-0.67,-1.41,-0.31,0.92,0.39,0.22,
6.655,-1.09,-1.82,-0.16,0.92,0.39,0.22,
6.655,-1.09,-1.82,-0.16,0.92,0.39,0.22,
6.661,-1.09,-1.82,-0.16,1.04,0.19,0.58,
6.662,-1.09,-1.82,-0.16,1.04,0.19,0.58,
6.662,-1.40,-2.26,-0.13,1.04,0.19,0.58,
6.663,-1.40,-2.26,-0.13,1.04,0.19,0.58,
6.671,-1.40,-2.26,-0.13,1.14,-0.03,0.95,
6.672,-1.40,-2.26,-0.13,1.14,-0.03,0.95,
6.672,-1.61,-2.71,-0.06,1.14,-0.03,0.95,
6.672,-1.61,-2.71,-0.06,1.14,-0.03,0.95,
6.682,-1.61,-2.71,-0.06,1.25,-0.25,1.34,
6.683,-1.61,-2.71,-0.06,1.25,-0.25,1.34,
6.683,-1.71,-3.09,0.02,1.25,-0.25,1.34,
6.684,-1.71,-3.09,0.02,1.25,-0.25,1.34,
6.69,-1.71,-3.09,0.02,1.25,-0.25,1.34,
6.691,-1.71,-3.09,0.02,1.25,-0.25,1.34,
6.691,-1.71,-3.09,0.02,1.25,-0.25,1.34,
6.692,-1.71,-3.09,0.02,1.25,-0.25,1.34,
6.7,-1.71,-3.09,0.02,1.37,-0.44,1.73,
6.702,-1.71,-3.09,0.02,1.37,-0.44,1.73,
6.702,-1.78,-3.66,0.09,1.37,-0.44,1.73,
6.703,-1.78,-3.66,0.09,1.37,-0.44,1.73,
6.71,-1.78,-3.66,0.09,1.51,-0.59,2.10,
6.711,-1.78,-3.66,0.09,1.51,-0.59,2.10,
6.711,-1.78,-3.79,0.10,1.51,-0.59,2.10,
6.712,-1.78,-3.79,0.10,1.51,-0.59,2.10,
6.719,-1.78,-3.79,0.10,1.67,-0.67,2.41,
6.72,-1.78,-3.79,0.10,1.67,-0.67,2.41,
6.721,-1.84,-3.93,0.15,1.67,-0.67,2.41,
6.722,-1.84,-3.93,0.15,1.67,-0.67,2.41,
6.729,-1.84,-3.93,0.15,1.81,-0.71,2.64,
6.73,-1.84,-3.93,0.15,1.81,-0.71,2.64,
6.73,-1.93,-4.07,0.21,1.81,-0.71,2.64,
6.731,-1.93,-4.07,0.21,1.81,-0.71,2.64,
6.738,-1.93,-4.07,0.21,1.92,-0.70,2.77,
6.739,-1.93,-4.07,0.21,1.92,-0.70,2.77,
6.739,-2.03,-4.22,0.33,1.92,-0.70,2.77,
6.74,-2.03,-4.22,0.33,1.92,-0.70,2.77,
6.747,-2.03,-4.22,0.33,1.97,-0.67,2.82,
6.748,-2.03,-4.22,0.33,1.97,-0.67,2.82,
6.748,-2.12,-4.36,0.44,1.97,-0.67,2.82,
6.749,-2.12,-4.36,0.44,1.97,-0.67,2.82,
6.757,-2.12,-4.36,0.44,1.98,-0.64,2.80,
6.758,-2.12,-4.36,0.44,1.98,-0.64,2.80,
6.758,-2.17,-4.48,0.56,1.98,-0.64,2.80,
6.759,-2.17,-4.48,0.56,1.98,-0.64,2.80,
6.767,-2.17,-4.48,0.56,1.96,-0.59,2.75,
6.768,-2.17,-4.48,0.56,1.96,-0.59,2.75,
6.769,-2.22,-4.62,0.71,1.96,-0.59,2.75,
6.77,-2.22,-4.62,0.71,1.96,-0.59,2.75,
6.776,-2.22,-4.62,0.71,1.94,-0.54,2.66,
6.777,-2.22,-4.62,0.71,1.94,-0.54,2.66,
6.777,-2.27,-4.74,0.85,1.94,-0.54,2.66,
6.778,-2.27,-4.74,0.85,1.94,-0.54,2.66,
6.786,-2.27,-4.74,0.85,1.91,-0.49,2.56,
6.787,-2.27,-4.74,0.85,1.91,-0.49,2.56,
6.787,-2.31,-4.87,1.01,1.91,-0.49,2.56,
6.787,-2.31,-4.87,1.01,1.91,-0.49,2.56,
6.795,-2.31,-4.87,1.01,1.88,-0.43,2.45,
6.796,-2.31,-4.87,1.01,1.88,-0.43,2.45,
6.796,-2.33,-4.97,1.12,1.88,-0.43,2.45,
6.796,-2.33,-4.97,1.12,1.88,-0.43,2.45,
6.805,-2.33,-4.97,1.12,1.85,-0.35,2.34,
6.806,-2.33,-4.97,1.12,1.85,-0.35,2.34,
6.807,-2.33,-5.02,1.25,1.85,-0.35,2.34,
6.807,-2.33,-5.02,1.25,1.85,-0.35,2.34,
6.814,-2.33,-5.02,1.25,1.82,-0.28,2.24,
6.815,-2.33,-5.02,1.25,1.82,-0.28,2.24,
6.816,-2.30,-5.01,1.38,1.82,-0.28,2.24,
6.816,-2.30,-5.01,1.38,1.82,-0.28,2.24,
6.824,-2.30,-5.01,1.38,1.80,-0.20,2.13,
6.825,-2.30,-5.01,1.38,1.80,-0.20,2.13,
6.826,-2.24,-4.96,1.52,1.80,-0.20,2.13,
6.826,-2.24,-4.96,1.52,1.80,-0.20,2.13,
6.833,-2.24,-4.96,1.52,1.77,-0.13,2.00,
6.834,-2.24,-4.96,1.52,1.77,-0.13,2.00,
6.835,-2.12,-4.86,1.62,1.77,-0.13,2.00,
6.835,-2.12,-4.86,1.62,1.77,-0.13,2.00,
6.842,-2.12,-4.86,1.62,1.73,-0.06,1.86,
6.843,-2.12,-4.86,1.62,1.73,-0.06,1.86,
6.844,-1.96,-4.71,1.68,1.73,-0.06,1.86,
6.844,-1.96,-4.71,1.68,1.73,-0.06,1.86,
6.852,-1.96,-4.71,1.68,1.68,0.00,1.70,
6.854,-1.96,-4.71,1.68,1.68,0.00,1.70,
6.855,-1.75,-4.54,1.73,1.68,0.00,1.70,
6.855,-1.75,-4.54,1.73,1.68,0.00,1.70,
6.863,-1.75,-4.54,1.73,1.62,0.07,1.51,
6.864,-1.75,-4.54,1.73,1.62,0.07,1.51,
6.865,-1.59,-4.37,1.77,1.62,0.07,1.51,
6.865,-1.59,-4.37,1.77,1.62,0.07,1.51,
6.871,-1.59,-4.37,1.77,1.54,0.14,1.30,
6.872,-1.59,-4.37,1.77,1.54,0.14,1.30,
6.872,-1.46,-4.18,1.82,1.54,0.14,1.30,
6.873,-1.46,-4.18,1.82,1.54,0.14,1.30,
6.881,-1.46,-4.18,1.82,1.44,0.20,1.07,
6.882,-1.46,-4.18,1.82,1.44,0.20,1.07,
6.883,-1.36,-4.01,1.88,1.44,0.20,1.07,
6.883,-1.36,-4.01,1.88,1.44,0.20,1.07,
6.891,-1.36,-4.01,1.88,1.44,0.20,1.07,
6.892,-1.36,-4.01,1.88,1.44,0.20,1.07,
6.892,-1.36,-4.01,1.88,1.44,0.20,1.07,
6.893,-1.36,-4.01,1.88,1.44,0.20,1.07,
6.901,-1.36,-4.01,1.88,1.33,0.26,0.85,
6.902,-1.36,-4.01,1.88,1.33,0.26,0.85,
6.903,-1.44,-3.78,2.04,1.33,0.26,0.85,
6.904,-1.44,-3.78,2.04,1.33,0.26,0.85,
6.909,-1.44,-3.78,2.04,1.23,0.30,0.65,
6.91,-1.44,-3.78,2.04,1.23,0.30,0.65,
6.911,-1.50,-3.57,2.17,1.23,0.30,0.65,
6.911,-1.50,-3.57,2.17,1.23,0.30,0.65,
6.919,-1.50,-3.57,2.17,1.13,0.32,0.49,
6.92,-1.50,-3.57,2.17,1.13,0.32,0.49,
6.92,-1.58,-3.35,2.31,1.13,0.32,0.49,
6.92,-1.58,-3.35,2.31,1.13,0.32,0.49,
6.928,-1.58,-3.35,2.31,1.05,0.32,0.37,
6.929,-1.58,-3.35,2.31,1.05,0.32,0.37,
6.929,-1.63,-3.11,2.42,1.05,0.32,0.37,
6.929,-1.63,-3.11,2.42,1.05,0.32,0.37,
6.938,-1.63,-3.11,2.42,0.99,0.29,0.30,
6.939,-1.63,-3.11,2.42,0.99,0.29,0.30,
6.939,-1.66,-2.90,2.48,0.99,0.29,0.30,
6.939,-1.66,-2.90,2.48,0.99,0.29,0.30,
6.947,-1.66,-2.90,2.48,0.94,0.26,0.26,
6.948,-1.66,-2.90,2.48,0.94,0.26,0.26,
6.948,-1.66,-2.72,2.46,0.94,0.26,0.26,
6.948,-1.66,-2.72,2.46,0.94,0.26,0.26,
6.958,-1.66,-2.72,2.46,0.89,0.21,0.26,
6.959,-1.66,-2.72,2.46,0.89,0.21,0.26,
6.959,-1.65,-2.60,2.40,0.89,0.21,0.26,
6.96,-1.65,-2.60,2.40,0.89,0.21,0.26,
6.967,-1.65,-2.60,2.40,0.84,0.17,0.28,
6.968,-1.65,-2.60,2.40,0.84,0.17,0.28,
6.968,-1.61,-2.49,2.34,0.84,0.17,0.28,
6.969,-1.61,-2.49,2.34,0.84,0.17,0.28,
6.976,-1.61,-2.49,2.34,0.78,0.13,0.31,
6.977,-1.61,-2.49,2.34,0.78,0.13,0.31,
6.977,-1.58,-2.42,2.28,0.78,0.13,0.31,
6.978,-1.58,-2.42,2.28,0.78,0.13,0.31,
6.989,-1.58,-2.42,2.28,0.72,0.09,0.34,
6.99,-1.58,-2.42,2.28,0.72,0.09,0.34,
6.99,-1.56,-2.35,2.25,0.72,0.09,0.34,
6.991,-1.56,-2.35,2.25,0.72,0.09,0.34,
6.996,-1.56,-2.35,2.25,0.67,0.05,0.38,
6.997,-1.56,-2.35,2.25,0.67,0.05,0.38,
6.998,-1.54,-2.30,2.25,0.67,0.05,0.38,
6.998,-1.54,-2.30,2.25,0.67,0.05,0.38,
7.005,-1.54,-2.30,2.25,0.63,0.02,0.42,
7.006,-1.54,-2.30,2.25,0.63,0.02,0.42,
7.007,-1.56,-2.25,2.27,0.63,0.02,0.42,
7.007,-1.56,-2.25,2.27,0.63,0.02,0.42,
7.014,-1.56,-2.25,2.27,0.62,-0.01,0.47,
7.015,-1.56,-2.25,2.27,0.62,-0.01,0.47,
7.016,-1.61,-2.21,2.28,0.62,-0.01,0.47,
7.016,-1.61,-2.21,2.28,0.62,-0.01,0.47,
7.024,-1.61,-2.21,2.28,0.62,-0.02,0.53,
7.024,-1.61,-2.21,2.28,0.62,-0.02,0.53,
7.025,-1.65,-2.13,2.29,0.62,-0.02,0.53,
7.026,-1.65,-2.13,2.29,0.62,-0.02,0.53,
7.033,-1.65,-2.13,2.29,0.64,-0.03,0.60,
7.034,-1.65,-2.13,2.29,0.64,-0.03,0.60,
7.035,-1.68,-2.03,2.29,0.64,-0.03,0.60,
7.036,-1.68,-2.03,2.29,0.64,-0.03,0.60,
7.042,-1.68,-2.03,2.29,0.67,-0.04,0.68,
7.043,-1.68,-2.03,2.29,0.67,-0.04,0.68,
7.043,-1.68,-1.94,2.30,0.67,-0.04,0.68,
7.044,-1.68,-1.94,2.30,0.67,-0.04,0.68,
7.051,-1.68,-1.94,2.30,0.71,-0.04,0.76,
7.052,-1.68,-1.94,2.30,0.71,-0.04,0.76,
7.053,-1.66,-1.84,2.36,0.71,-0.04,0.76,
7.053,-1.66,-1.84,2.36,0.71,-0.04,0.76,
7.064,-1.66,-1.84,2.36,0.75,-0.05,0.83,
7.065,-1.66,-1.84,2.36,0.75,-0.05,0.83,
7.065,-1.64,-1.73,2.42,0.75,-0.05,0.83,
7.065,-1.64,-1.73,2.42,0.75,-0.05,0.83,
7.072,-1.64,-1.73,2.42,0.80,-0.05,0.88,
7.073,-1.64,-1.73,2.42,0.80,-0.05,0.88,
7.073,-1.61,-1.61,2.52,0.80,-0.05,0.88,
7.073,-1.61,-1.61,2.52,0.80,-0.05,0.88,
7.081,-1.61,-1.61,2.52,0.85,-0.04,0.91,
7.082,-1.61,-1.61,2.52,0.85,-0.04,0.91,
7.082,-1.59,-1.50,2.64,0.85,-0.04,0.91,
7.082,-1.59,-1.50,2.64,0.85,-0.04,0.91,
7.09,-1.59,-1.50,2.64,0.85,-0.04,0.91,
7.091,-1.59,-1.50,2.64,0.85,-0.04,0.91,
7.091,-1.59,-1.50,2.64,0.85,-0.04,0.91,
7.092,-1.59,-1.50,2.64,0.85,-0.04,0.91,
7.1,-1.59,-1.50,2.64,0.92,-0.03,0.91,
7.101,-1.59,-1.50,2.64,0.92,-0.03,0.91,
7.102,-1.58,-1.42,2.92,0.92,-0.03,0.91,
7.103,-1.58,-1.42,2.92,0.92,-0.03,0.91,
7.109,-1.58,-1.42,2.92,1.00,-0.02,0.89,
7.11,-1.58,-1.42,2.92,1.00,-0.02,0.89,
7.11,-1.55,-1.39,2.97,1.00,-0.02,0.89,
7.111,-1.55,-1.39,2.97,1.00,-0.02,0.89,
7.119,-1.55,-1.39,2.97,1.10,0.00,0.86,
7.12,-1.55,-1.39,2.97,1.10,0.00,0.86,
7.121,-1.45,-1.40,3.11,1.10,0.00,0.86,
7.121,-1.45,-1.40,3.11,1.10,0.00,0.86,
7.128,-1.45,-1.40,3.11,1.23,0.04,0.82,
7.129,-1.45,-1.40,3.11,1.23,0.04,0.82,
7.13,-1.04,-1.42,3.28,1.23,0.04,0.82,
7.13,-1.04,-1.42,3.28,1.23,0.04,0.82,
7.138,-1.04,-1.42,3.28,1.36,0.09,0.76,
7.138,-1.04,-1.42,3.28,1.36,0.09,0.76,
7.139,1.03,-1.40,3.39,1.36,0.09,0.76,
7.14,1.03,-1.40,3.39,1.36,0.09,0.76,
7.147,1.03,-1.40,3.39,1.50,0.14,0.59,
7.148,1.03,-1.40,3.39,1.50,0.14,0.59,
7.149,1.28,-1.28,3.61,1.50,0.14,0.59,
7.149,1.28,-1.28,3.61,1.50,0.14,0.59,
7.157,1.28,-1.28,3.61,1.68,0.17,0.18,
7.158,1.28,-1.28,3.61,1.68,0.17,0.18,
7.159,1.15,-0.96,3.74,1.68,0.17,0.18,
7.16,1.15,-0.96,3.74,1.68,0.17,0.18,
