
time,ax,ay,az,wx,wy,wz,
0.002,0.20,0.19,0.90,-0.04,0.03,-0.02,
0.003,0.20,0.19,0.90,-0.04,0.03,-0.02,
0.003,0.04,0.06,0.41,-0.04,0.03,-0.02,
0.003,0.04,0.06,0.41,-0.04,0.03,-0.02,
0.004,0.04,0.06,0.41,-0.09,-0.05,-0.04,
0.004,0.04,0.06,0.41,-0.09,-0.05,-0.04,
0.004,-0.06,0.02,0.11,-0.09,-0.05,-0.04,
0.005,-0.06,0.02,0.11,-0.09,-0.05,-0.04,
0.018,-0.06,0.02,0.11,-0.13,-0.07,-0.00,
0.02,-0.06,0.02,0.11,-0.13,-0.07,-0.00,
0.022,-0.13,-0.00,-0.09,-0.13,-0.07,-0.00,
0.023,-0.13,-0.00,-0.09,-0.13,-0.07,-0.00,
0.025,-0.13,-0.00,-0.09,-0.13,-0.07,-0.00,
0.026,-0.13,-0.00,-0.09,-0.13,-0.07,-0.00,
0.027,-0.13,-0.00,-0.09,-0.13,-0.07,-0.00,
0.028,-0.13,-0.00,-0.09,-0.13,-0.07,-0.00,
0.036,-0.13,-0.00,-0.09,-0.11,-0.02,0.02,
0.037,-0.13,-0.00,-0.09,-0.11,-0.02,0.02,
0.037,-0.08,0.13,0.01,-0.11,-0.02,0.02,
0.037,-0.08,0.13,0.01,-0.11,-0.02,0.02,
0.043,-0.08,0.13,0.01,-0.07,0.03,0.04,
0.044,-0.08,0.13,0.01,-0.07,0.03,0.04,
0.044,0.02,0.17,0.20,-0.07,0.03,0.04,
0.044,0.02,0.17,0.20,-0.07,0.03,0.04,
0.049,0.02,0.17,0.20,-0.03,0.07,0.05,
0.05,0.08,0.19,0.37,-0.03,0.07,0.05,
0.05,0.08,0.19,0.37,-0.03,0.07,0.05,
0.05,0.08,0.19,0.37,-0.03,0.07,0.05,
0.059,0.08,0.19,0.37,0.00,0.09,0.09,
0.06,0.08,0.19,0.37,0.00,0.09,0.09,
0.06,0.12,0.15,0.46,0.00,0.09,0.09,
0.06,0.12,0.15,0.46,0.00,0.09,0.09,
0.068,0.12,0.15,0.46,0.02,0.08,0.13,
0.069,0.12,0.15,0.46,0.02,0.08,0.13,
0.069,0.11,0.08,0.48,0.02,0.08,0.13,
0.069,0.11,0.08,0.48,0.02,0.08,0.13,
0.078,0.11,0.08,0.48,0.02,0.05,0.16,
0.078,0.11,0.08,0.48,0.02,0.05,0.16,
0.078,0.05,0.02,0.41,0.02,0.05,0.16,
0.079,0.05,0.02,0.41,0.02,0.05,0.16,
0.087,0.05,0.02,0.41,-0.00,0.01,0.14,
0.088,0.05,0.02,0.41,-0.00,0.01,0.14,
0.088,-0.04,-0.04,0.31,-0.00,0.01,0.14,
0.088,-0.04,-0.04,0.31,-0.00,0.01,0.14,
0.097,-0.04,-0.04,0.31,-0.03,-0.03,0.09,
0.098,-0.04,-0.04,0.31,-0.03,-0.03,0.09,
0.098,-0.12,-0.05,0.23,-0.03,-0.03,0.09,
0.099,-0.12,-0.05,0.23,-0.03,-0.03,0.09,
0.106,-0.12,-0.05,0.23,-0.06,-0.06,0.02,
0.107,-0.12,-0.05,0.23,-0.06,-0.06,0.02,
0.107,-0.16,-0.03,0.19,-0.06,-0.06,0.02,
0.108,-0.16,-0.03,0.19,-0.06,-0.06,0.02,
0.116,-0.16,-0.03,0.19,-0.09,-0.05,-0.04,
0.117,-0.16,-0.03,0.19,-0.09,-0.05,-0.04,
0.117,-0.15,0.02,0.19,-0.09,-0.05,-0.04,
0.118,-0.15,0.02,0.19,-0.09,-0.05,-0.04,
0.125,-0.15,0.02,0.19,-0.09,-0.01,-0.07,
0.126,-0.15,0.02,0.19,-0.09,-0.01,-0.07,
0.127,-0.10,0.07,0.19,-0.09,-0.01,-0.07,
0.127,-0.10,0.07,0.19,-0.09,-0.01,-0.07,
0.134,-0.10,0.07,0.19,-0.08,0.03,-0.07,
0.135,-0.10,0.07,0.19,-0.08,0.03,-0.07,
0.135,-0.07,0.08,0.15,-0.08,0.03,-0.07,
0.136,-0.07,0.08,0.15,-0.08,0.03,-0.07,
0.144,-0.07,0.08,0.15,-0.06,0.06,-0.06,
0.145,-0.07,0.08,0.15,-0.06,0.06,-0.06,
0.145,-0.04,0.07,0.05,-0.06,0.06,-0.06,
0.145,-0.04,0.07,0.05,-0.06,0.06,-0.06,
0.162,-0.04,0.07,0.05,-0.03,0.07,-0.04,
0.163,-0.04,0.07,0.05,-0.03,0.07,-0.04,
0.163,-0.03,0.07,-0.03,-0.03,0.07,-0.04,
0.164,-0.03,0.07,-0.03,-0.03,0.07,-0.04,
0.164,-0.03,0.07,-0.03,-0.03,0.07,-0.04,
0.165,-0.03,0.07,-0.03,-0.03,0.07,-0.04,
0.165,-0.03,0.07,-0.03,-0.03,0.07,-0.04,
0.166,-0.03,0.07,-0.03,-0.03,0.07,-0.04,
0.173,-0.03,0.07,-0.03,0.00,0.06,-0.01,
0.173,-0.03,0.07,-0.03,0.00,0.06,-0.01,
0.174,-0.01,0.08,-0.08,0.00,0.06,-0.01,
0.174,-0.01,0.08,-0.08,0.00,0.06,-0.01,
0.182,-0.01,0.08,-0.08,0.03,0.05,0.01,
0.183,-0.01,0.08,-0.08,0.03,0.05,0.01,
0.183,-0.01,0.11,-0.03,0.03,0.05,0.01,
0.184,-0.01,0.11,-0.03,0.03,0.05,0.01,
0.192,-0.01,0.11,-0.03,0.06,0.04,0.03,
0.193,-0.01,0.11,-0.03,0.06,0.04,0.03,
0.194,-0.02,0.10,0.03,0.06,0.04,0.03,
0.194,-0.02,0.10,0.03,0.06,0.04,0.03,
0.201,-0.02,0.10,0.03,0.09,0.02,0.03,
0.202,-0.02,0.10,0.03,0.09,0.02,0.03,
0.202,-0.04,0.12,0.13,0.09,0.02,0.03,
0.203,-0.04,0.12,0.13,0.09,0.02,0.03,
0.211,-0.04,0.12,0.13,0.10,0.01,0.03,
0.212,-0.04,0.12,0.13,0.10,0.01,0.03,
0.212,-0.07,0.14,0.23,0.10,0.01,0.03,
0.213,-0.07,0.14,0.23,0.10,0.01,0.03,
0.22,-0.07,0.14,0.23,0.10,0.00,0.03,
0.221,-0.07,0.14,0.23,0.10,0.00,0.03,
0.221,-0.09,0.14,0.37,0.10,0.00,0.03,
0.221,-0.09,0.14,0.37,0.10,0.00,0.03,
0.23,-0.09,0.14,0.37,0.09,0.01,0.03,
0.23,-0.09,0.14,0.37,0.09,0.01,0.03,
0.231,-0.10,0.16,0.53,0.09,0.01,0.03,
0.231,-0.10,0.16,0.53,0.09,0.01,0.03,
0.239,-0.10,0.16,0.53,0.07,0.02,0.03,
0.24,-0.10,0.16,0.53,0.07,0.02,0.03,
0.24,-0.12,0.15,0.64,0.07,0.02,0.03,
0.241,-0.12,0.15,0.64,0.07,0.02,0.03,
0.249,-0.12,0.15,0.64,0.04,0.03,0.03,
0.25,-0.12,0.15,0.64,0.04,0.03,0.03,
0.251,-0.13,0.12,0.70,0.04,0.03,0.03,
0.251,-0.13,0.12,0.70,0.04,0.03,0.03,
0.262,-0.13,0.12,0.70,0.00,0.04,0.01,
0.263,-0.13,0.12,0.70,0.00,0.04,0.01,
0.264,-0.12,0.09,0.65,0.00,0.04,0.01,
0.264,-0.12,0.09,0.65,0.00,0.04,0.01,
0.268,-0.12,0.09,0.65,-0.04,0.05,-0.01,
0.269,-0.12,0.09,0.65,-0.04,0.05,-0.01,
0.27,-0.11,0.04,0.53,-0.04,0.05,-0.01,
0.27,-0.11,0.04,0.53,-0.04,0.05,-0.01,
0.28,-0.11,0.04,0.53,-0.07,0.05,-0.02,
0.281,-0.11,0.04,0.53,-0.07,0.05,-0.02,
0.282,-0.09,0.02,0.38,-0.07,0.05,-0.02,
0.282,-0.09,0.02,0.38,-0.07,0.05,-0.02,
0.288,-0.09,0.02,0.38,-0.10,0.05,-0.04,
0.289,-0.09,0.02,0.38,-0.10,0.05,-0.04,
0.289,-0.06,0.02,0.22,-0.10,0.05,-0.04,
0.29,-0.06,0.02,0.22,-0.10,0.05,-0.04,
0.297,-0.06,0.02,0.22,-0.11,0.03,-0.08,
0.298,-0.06,0.02,0.22,-0.11,0.03,-0.08,
0.299,-0.06,0.04,0.11,-0.11,0.03,-0.08,
0.299,-0.06,0.04,0.11,-0.11,0.03,-0.08,
0.306,-0.06,0.04,0.11,-0.11,0.01,-0.11,
0.307,-0.06,0.04,0.11,-0.11,0.01,-0.11,
0.308,-0.03,0.06,0.04,-0.11,0.01,-0.11,
0.308,-0.03,0.06,0.04,-0.11,0.01,-0.11,
0.316,-0.03,0.06,0.04,-0.08,-0.01,-0.12,
0.317,-0.03,0.06,0.04,-0.08,-0.01,-0.12,
0.317,0.01,0.07,0.05,-0.08,-0.01,-0.12,
0.318,0.01,0.07,0.05,-0.08,-0.01,-0.12,
0.326,0.01,0.07,0.05,-0.05,-0.02,-0.12,
0.327,0.01,0.07,0.05,-0.05,-0.02,-0.12,
0.328,0.05,0.06,0.07,-0.05,-0.02,-0.12,
0.329,0.05,0.06,0.07,-0.05,-0.02,-0.12,
0.335,0.05,0.06,0.07,-0.01,-0.04,-0.11,
0.335,0.05,0.06,0.07,-0.01,-0.04,-0.11,
0.336,0.09,0.05,0.09,-0.01,-0.04,-0.11,
0.336,0.09,0.05,0.09,-0.01,-0.04,-0.11,
0.346,0.09,0.05,0.09,0.02,-0.06,-0.10,
0.346,0.09,0.05,0.09,0.02,-0.06,-0.10,
0.347,0.11,0.04,0.19,0.02,-0.06,-0.10,
0.347,0.11,0.04,0.19,0.02,-0.06,-0.10,
0.362,0.11,0.04,0.19,0.04,-0.08,-0.08,
0.363,0.11,0.04,0.19,0.04,-0.08,-0.08,
0.363,0.14,0.02,0.30,0.04,-0.08,-0.08,
0.363,0.14,0.02,0.30,0.04,-0.08,-0.08,
0.364,0.14,0.02,0.30,0.04,-0.08,-0.08,
0.364,0.14,0.02,0.30,0.04,-0.08,-0.08,
0.364,0.14,0.02,0.30,0.04,-0.08,-0.08,
0.365,0.14,0.02,0.30,0.04,-0.08,-0.08,
0.373,0.14,0.02,0.30,0.04,-0.11,-0.07,
0.374,0.14,0.02,0.30,0.04,-0.11,-0.07,
0.374,0.20,-0.02,0.59,0.04,-0.11,-0.07,
0.374,0.20,-0.02,0.59,0.04,-0.11,-0.07,
0.383,0.20,-0.02,0.59,0.02,-0.14,-0.06,
0.383,0.20,-0.02,0.59,0.02,-0.14,-0.06,
0.384,0.23,-0.04,0.63,0.02,-0.14,-0.06,
0.384,0.23,-0.04,0.63,0.02,-0.14,-0.06,
0.393,0.23,-0.04,0.63,-0.02,-0.16,-0.06,
0.394,0.23,-0.04,0.63,-0.02,-0.16,-0.06,
0.394,0.23,-0.07,0.57,-0.02,-0.16,-0.06,
0.394,0.23,-0.07,0.57,-0.02,-0.16,-0.06,
0.402,0.23,-0.07,0.57,-0.07,-0.19,-0.06,
0.402,0.23,-0.07,0.57,-0.07,-0.19,-0.06,
0.403,0.22,-0.09,0.43,-0.07,-0.19,-0.06,
0.403,0.22,-0.09,0.43,-0.07,-0.19,-0.06,
0.411,0.22,-0.09,0.43,-0.12,-0.21,-0.07,
0.412,0.22,-0.09,0.43,-0.12,-0.21,-0.07,
0.412,0.21,-0.11,0.23,-0.12,-0.21,-0.07,
0.413,0.21,-0.11,0.23,-0.12,-0.21,-0.07,
0.42,0.21,-0.11,0.23,-0.15,-0.22,-0.07,
0.421,0.21,-0.11,0.23,-0.15,-0.22,-0.07,
0.421,0.27,-0.11,0.00,-0.15,-0.22,-0.07,
0.421,0.27,-0.11,0.00,-0.15,-0.22,-0.07,
0.43,0.27,-0.11,0.00,-0.16,-0.22,-0.07,
0.431,0.27,-0.11,0.00,-0.16,-0.22,-0.07,
0.431,0.37,-0.07,-0.21,-0.16,-0.22,-0.07,
0.432,0.37,-0.07,-0.21,-0.16,-0.22,-0.07,
0.439,0.37,-0.07,-0.21,-0.14,-0.21,-0.05,
0.44,0.37,-0.07,-0.21,-0.14,-0.21,-0.05,
0.441,0.49,-0.05,-0.43,-0.14,-0.21,-0.05,
0.441,0.49,-0.05,-0.43,-0.14,-0.21,-0.05,
0.449,0.49,-0.05,-0.43,-0.09,-0.21,-0.01,
0.45,0.49,-0.05,-0.43,-0.09,-0.21,-0.01,
0.45,0.61,-0.02,-0.63,-0.09,-0.21,-0.01,
0.451,0.61,-0.02,-0.63,-0.09,-0.21,-0.01,
0.459,0.61,-0.02,-0.63,-0.02,-0.23,0.04,
0.46,0.61,-0.02,-0.63,-0.02,-0.23,0.04,
0.46,0.71,0.03,-0.85,-0.02,-0.23,0.04,
0.461,0.71,0.03,-0.85,-0.02,-0.23,0.04,
0.468,0.71,0.03,-0.85,0.07,-0.27,0.09,
0.469,0.71,0.03,-0.85,0.07,-0.27,0.09,
0.47,0.82,0.08,-1.12,0.07,-0.27,0.09,
0.47,0.82,0.08,-1.12,0.07,-0.27,0.09,
0.477,0.82,0.08,-1.12,0.16,-0.33,0.12,
0.479,0.82,0.08,-1.12,0.16,-0.33,0.12,
0.479,1.01,0.19,-1.34,0.16,-0.33,0.12,
0.48,1.01,0.19,-1.34,0.16,-0.33,0.12,
0.488,1.01,0.19,-1.34,0.27,-0.41,0.14,
0.489,1.01,0.19,-1.34,0.27,-0.41,0.14,
0.49,1.26,0.34,-1.54,0.27,-0.41,0.14,
0.49,1.26,0.34,-1.54,0.27,-0.41,0.14,
0.497,1.26,0.34,-1.54,0.39,-0.51,0.18,
0.497,1.26,0.34,-1.54,0.39,-0.51,0.18,
0.498,1.53,0.44,-1.65,0.39,-0.51,0.18,
0.498,1.53,0.44,-1.65,0.39,-0.51,0.18,
0.506,1.53,0.44,-1.65,0.53,-0.62,0.23,
0.507,1.53,0.44,-1.65,0.53,-0.62,0.23,
0.507,1.74,0.38,-1.64,0.53,-0.62,0.23,
0.508,1.74,0.38,-1.64,0.53,-0.62,0.23,
0.516,1.74,0.38,-1.64,0.66,-0.76,0.30,
0.516,1.74,0.38,-1.64,0.66,-0.76,0.30,
0.517,1.79,0.10,-1.51,0.66,-0.76,0.30,
0.517,1.79,0.10,-1.51,0.66,-0.76,0.30,
0.525,1.79,0.10,-1.51,0.76,-0.92,0.36,
0.526,1.79,0.10,-1.51,0.76,-0.92,0.36,
0.527,1.65,-0.42,-1.21,0.76,-0.92,0.36,
0.527,1.65,-0.42,-1.21,0.76,-0.92,0.36,
0.535,1.65,-0.42,-1.21,0.76,-1.07,0.38,
0.535,1.65,-0.42,-1.21,0.76,-1.07,0.38,
0.536,1.35,-2.08,-0.76,0.76,-1.07,0.38,
0.536,1.35,-2.08,-0.76,0.76,-1.07,0.38,
0.545,1.35,-2.08,-0.76,0.76,-1.07,0.38,
0.545,1.35,-2.08,-0.76,0.76,-1.07,0.38,
0.546,1.35,-2.08,-0.76,0.76,-1.07,0.38,
0.547,1.35,-2.08,-0.76,0.76,-1.07,0.38,
0.557,1.35,-2.08,-0.76,0.57,-1.18,0.33,
0.558,1.35,-2.08,-0.76,0.57,-1.18,0.33,
0.558,0.31,-2.60,-0.02,0.57,-1.18,0.33,
0.558,0.31,-2.60,-0.02,0.57,-1.18,0.33,
0.563,0.31,-2.60,-0.02,0.10,-1.16,0.22,
0.564,0.31,-2.60,-0.02,0.10,-1.16,0.22,
0.564,-0.04,-2.66,0.11,0.10,-1.16,0.22,
0.565,-0.04,-2.66,0.11,0.10,-1.16,0.22,
0.573,-0.04,-2.66,0.11,-0.61,-0.95,0.07,
0.574,-0.04,-2.66,0.11,-0.61,-0.95,0.07,
0.574,-0.08,-2.52,0.11,-0.61,-0.95,0.07,
0.575,-0.08,-2.52,0.11,-0.61,-0.95,0.07,
0.583,-0.08,-2.52,0.11,-1.35,-0.56,-0.07,
0.583,-0.08,-2.52,0.11,-1.35,-0.56,-0.07,
0.584,0.36,-2.10,0.07,-1.35,-0.56,-0.07,
0.584,0.36,-2.10,0.07,-1.35,-0.56,-0.07,
0.592,0.36,-2.10,0.07,-1.89,-0.11,-0.14,
0.593,0.36,-2.10,0.07,-1.89,-0.11,-0.14,
0.594,2.15,-1.57,-0.15,-1.89,-0.11,-0.14,
0.594,2.15,-1.57,-0.15,-1.89,-0.11,-0.14,
0.603,2.15,-1.57,-0.15,-2.12,0.17,-0.14,
0.605,2.15,-1.57,-0.15,-2.12,0.17,-0.14,
0.605,4.08,-1.09,-0.57,-2.12,0.17,-0.14,
0.606,4.08,-1.09,-0.57,-2.12,0.17,-0.14,
0.611,4.08,-1.09,-0.57,-2.05,0.07,-0.06,
0.612,4.08,-1.09,-0.57,-2.05,0.07,-0.06,
0.612,4.42,-0.67,-2.46,-2.05,0.07,-0.06,
0.613,4.42,-0.67,-2.46,-2.05,0.07,-0.06,
0.621,4.42,-0.67,-2.46,-1.73,-0.49,0.08,
0.622,4.42,-0.67,-2.46,-1.73,-0.49,0.08,
0.622,4.89,-0.38,-2.77,-1.73,-0.49,0.08,
0.623,4.89,-0.38,-2.77,-1.73,-0.49,0.08,
0.63,4.89,-0.38,-2.77,-1.21,-1.38,0.23,
0.63,4.89,-0.38,-2.77,-1.21,-1.38,0.23,
0.631,5.16,-0.24,-3.22,-1.21,-1.38,0.23,
0.631,5.16,-0.24,-3.22,-1.21,-1.38,0.23,
0.64,5.16,-0.24,-3.22,-0.61,-2.35,0.33,
0.642,5.16,-0.24,-3.22,-0.61,-2.35,0.33,
0.642,5.05,-0.30,-3.55,-0.61,-2.35,0.33,
0.643,5.05,-0.30,-3.55,-0.61,-2.35,0.33,
0.649,5.05,-0.30,-3.55,-0.01,-3.20,0.37,
0.65,5.05,-0.30,-3.55,-0.01,-3.20,0.37,
0.65,4.60,-0.67,-3.71,-0.01,-3.20,0.37,
0.65,4.60,-0.67,-3.71,-0.01,-3.20,0.37,
0.659,4.60,-0.67,-3.71,0.47,-3.82,0.35,
0.66,4.60,-0.67,-3.71,0.47,-3.82,0.35,
0.66,2.92,-1.26,-3.74,0.47,-3.82,0.35,
0.661,2.92,-1.26,-3.74,0.47,-3.82,0.35,
0.668,2.92,-1.26,-3.74,0.48,-4.13,0.32,
0.669,2.92,-1.26,-3.74,0.48,-4.13,0.32,
0.669,2.74,-2.71,-3.75,0.48,-4.13,0.32,
0.669,2.74,-2.71,-3.75,0.48,-4.13,0.32,
0.678,2.74,-2.71,-3.75,0.32,-4.03,0.29,
0.679,2.74,-2.71,-3.75,0.32,-4.03,0.29,
0.679,2.56,-2.99,-3.69,0.32,-4.03,0.29,
0.679,2.56,-2.99,-3.69,0.32,-4.03,0.29,
0.687,2.56,-2.99,-3.69,0.20,-3.60,0.30,
0.687,2.56,-2.99,-3.69,0.20,-3.60,0.30,
0.688,2.58,-3.18,-3.53,0.20,-3.60,0.30,
0.688,2.58,-3.18,-3.53,0.20,-3.60,0.30,
0.696,2.58,-3.18,-3.53,-0.21,-3.02,0.34,
0.697,2.58,-3.18,-3.53,-0.21,-3.02,0.34,
0.697,2.89,-3.22,-3.24,-0.21,-3.02,0.34,
0.698,2.89,-3.22,-3.24,-0.21,-3.02,0.34,
0.706,2.89,-3.22,-3.24,-0.75,-2.47,0.41,
0.707,2.89,-3.22,-3.24,-0.75,-2.47,0.41,
0.707,3.37,-3.11,-2.73,-0.75,-2.47,0.41,
0.708,3.37,-3.11,-2.73,-0.75,-2.47,0.41,
0.715,3.37,-3.11,-2.73,-1.25,-2.03,0.50,
0.715,3.37,-3.11,-2.73,-1.25,-2.03,0.50,
0.716,3.93,-2.91,-2.24,-1.25,-2.03,0.50,
0.716,3.93,-2.91,-2.24,-1.25,-2.03,0.50,
0.726,3.93,-2.91,-2.24,-1.60,-1.72,0.61,
0.727,3.93,-2.91,-2.24,-1.60,-1.72,0.61,
0.727,4.42,-2.71,-1.85,-1.60,-1.72,0.61,
0.727,4.42,-2.71,-1.85,-1.60,-1.72,0.61,
0.734,4.42,-2.71,-1.85,-1.78,-1.55,0.71,
0.735,4.42,-2.71,-1.85,-1.78,-1.55,0.71,
0.735,4.77,-2.63,-1.72,-1.78,-1.55,0.71,
0.736,4.77,-2.63,-1.72,-1.78,-1.55,0.71,
0.745,4.77,-2.63,-1.72,-1.79,-1.51,0.78,
0.745,4.77,-2.63,-1.72,-1.79,-1.51,0.78,
0.746,4.97,-2.68,-1.91,-1.79,-1.51,0.78,
0.746,4.97,-2.68,-1.91,-1.79,-1.51,0.78,
0.754,4.97,-2.68,-1.91,-1.79,-1.51,0.78,
0.754,4.97,-2.68,-1.91,-1.79,-1.51,0.78,
0.754,4.97,-2.68,-1.91,-1.79,-1.51,0.78,
0.755,4.97,-2.68,-1.91,-1.79,-1.51,0.78,
0.763,4.97,-2.68,-1.91,-1.70,-1.56,0.81,
0.764,4.97,-2.68,-1.91,-1.70,-1.56,0.81,
0.765,5.14,-3.24,-2.76,-1.70,-1.56,0.81,
0.765,5.14,-3.24,-2.76,-1.70,-1.56,0.81,
0.779,5.14,-3.24,-2.76,-1.49,-1.86,0.80,
0.78,5.14,-3.24,-2.76,-1.49,-1.86,0.80,
0.781,4.84,-3.62,-3.15,-1.49,-1.86,0.80,
0.781,4.84,-3.62,-3.15,-1.49,-1.86,0.80,
0.782,4.84,-3.62,-3.15,-1.49,-1.86,0.80,
0.782,4.84,-3.62,-3.15,-1.49,-1.86,0.80,
0.783,4.84,-3.62,-3.15,-1.49,-1.86,0.80,
0.783,4.84,-3.62,-3.15,-1.49,-1.86,0.80,
0.791,4.84,-3.62,-3.15,-1.51,-2.06,0.80,
0.792,4.84,-3.62,-3.15,-1.51,-2.06,0.80,
0.793,4.54,-4.71,-3.81,-1.51,-2.06,0.80,
0.793,4.54,-4.71,-3.81,-1.51,-2.06,0.80,
0.801,4.54,-4.71,-3.81,-1.61,-2.24,0.85,
0.802,4.54,-4.71,-3.81,-1.61,-2.24,0.85,
0.803,4.49,-5.15,-4.20,-1.61,-2.24,0.85,
0.803,4.49,-5.15,-4.20,-1.61,-2.24,0.85,
0.824,4.49,-5.15,-4.20,-1.81,-2.38,0.95,
0.825,4.49,-5.15,-4.20,-1.81,-2.38,0.95,
0.825,4.62,-5.47,-4.64,-1.81,-2.38,0.95,
0.825,4.62,-5.47,-4.64,-1.81,-2.38,0.95,
0.826,4.62,-5.47,-4.64,-2.08,-2.49,1.13,
0.826,4.62,-5.47,-4.64,-2.08,-2.49,1.13,
0.826,4.68,-5.70,-4.97,-2.08,-2.49,1.13,
0.827,4.68,-5.70,-4.97,-2.08,-2.49,1.13,
0.83,4.68,-5.70,-4.97,-2.41,-2.63,1.37,
0.83,4.68,-5.70,-4.97,-2.41,-2.63,1.37,
0.83,4.59,-5.82,-4.94,-2.41,-2.63,1.37,
0.831,4.59,-5.82,-4.94,-2.41,-2.63,1.37,
0.84,4.59,-5.82,-4.94,-2.70,-2.81,1.62,
0.841,4.59,-5.82,-4.94,-2.70,-2.81,1.62,
0.841,4.53,-5.78,-4.47,-2.70,-2.81,1.62,
0.841,4.53,-5.78,-4.47,-2.70,-2.81,1.62,
0.849,4.53,-5.78,-4.47,-2.86,-2.96,1.85,
0.849,4.53,-5.78,-4.47,-2.86,-2.96,1.85,
0.85,4.64,-5.66,-2.91,-2.86,-2.96,1.85,
0.851,4.64,-5.66,-2.91,-2.86,-2.96,1.85,
0.858,4.64,-5.66,-2.91,-2.83,-2.98,2.05,
0.859,4.64,-5.66,-2.91,-2.83,-2.98,2.05,
0.859,4.94,-5.58,-1.31,-2.83,-2.98,2.05,
0.86,4.94,-5.58,-1.31,-2.83,-2.98,2.05,
0.868,4.94,-5.58,-1.31,-2.54,-2.76,2.22,
0.868,4.94,-5.58,-1.31,-2.54,-2.76,2.22,
0.869,5.27,-5.58,-0.88,-2.54,-2.76,2.22,
0.869,5.27,-5.58,-0.88,-2.54,-2.76,2.22,
0.877,5.27,-5.58,-0.88,-2.01,-2.31,2.35,
0.878,5.27,-5.58,-0.88,-2.01,-2.31,2.35,
0.879,5.33,-5.78,0.75,-2.01,-2.31,2.35,
0.879,5.33,-5.78,0.75,-2.01,-2.31,2.35,
0.886,5.33,-5.78,0.75,-1.36,-1.73,2.42,
0.887,5.33,-5.78,0.75,-1.36,-1.73,2.42,
0.887,5.05,-6.06,2.48,-1.36,-1.73,2.42,
0.888,5.05,-6.06,2.48,-1.36,-1.73,2.42,
0.897,5.05,-6.06,2.48,-0.72,-1.11,2.46,
0.898,5.05,-6.06,2.48,-0.72,-1.11,2.46,
0.898,4.75,-6.26,4.30,-0.72,-1.11,2.46,
0.899,4.75,-6.26,4.30,-0.72,-1.11,2.46,
0.906,4.75,-6.26,4.30,-0.16,-0.46,2.50,
0.907,4.75,-6.26,4.30,-0.16,-0.46,2.50,
0.907,4.67,-6.23,4.53,-0.16,-0.46,2.50,
0.908,4.67,-6.23,4.53,-0.16,-0.46,2.50,
0.915,4.67,-6.23,4.53,0.29,0.19,2.56,
0.916,4.67,-6.23,4.53,0.29,0.19,2.56,
0.917,4.90,-5.92,4.46,0.29,0.19,2.56,
0.917,4.90,-5.92,4.46,0.29,0.19,2.56,
0.925,4.90,-5.92,4.46,0.66,0.73,2.37,
0.926,4.90,-5.92,4.46,0.66,0.73,2.37,
0.927,6.11,-5.42,2.63,0.66,0.73,2.37,
0.927,6.11,-5.42,2.63,0.66,0.73,2.37,
0.934,6.11,-5.42,2.63,0.97,0.97,2.22,
0.935,6.11,-5.42,2.63,0.97,0.97,2.22,
0.936,6.20,-4.80,2.19,0.97,0.97,2.22,
0.936,6.20,-4.80,2.19,0.97,0.97,2.22,
0.946,6.20,-4.80,2.19,1.26,0.82,2.35,
0.948,6.20,-4.80,2.19,1.26,0.82,2.35,
0.948,6.19,-4.25,0.39,1.26,0.82,2.35,
0.949,6.19,-4.25,0.39,1.26,0.82,2.35,
0.954,6.19,-4.25,0.39,1.26,0.82,2.35,
0.955,6.19,-4.25,0.39,1.26,0.82,2.35,
0.956,6.19,-4.25,0.39,1.26,0.82,2.35,
0.956,6.19,-4.25,0.39,1.26,0.82,2.35,
0.963,6.19,-4.25,0.39,1.56,0.34,2.47,
0.963,6.19,-4.25,0.39,1.56,0.34,2.47,
0.963,5.85,-3.73,-1.71,1.56,0.34,2.47,
0.964,5.85,-3.73,-1.71,1.56,0.34,2.47,
0.973,5.85,-3.73,-1.71,1.85,-0.35,2.25,
0.974,5.85,-3.73,-1.71,1.85,-0.35,2.25,
0.974,5.40,-3.42,-2.07,1.85,-0.35,2.25,
0.975,5.40,-3.42,-2.07,1.85,-0.35,2.25,
0.982,5.40,-3.42,-2.07,2.09,-1.11,2.05,
0.983,5.40,-3.42,-2.07,2.09,-1.11,2.05,
0.983,5.06,-3.14,-2.59,2.09,-1.11,2.05,
0.984,5.06,-3.14,-2.59,2.09,-1.11,2.05,
0.992,5.06,-3.14,-2.59,2.29,-1.85,2.14,
0.993,5.06,-3.14,-2.59,2.29,-1.85,2.14,
0.993,4.91,-2.93,-3.09,2.29,-1.85,2.14,
0.993,4.91,-2.93,-3.09,2.29,-1.85,2.14,
1.001,4.91,-2.93,-3.09,2.45,-2.50,2.21,
1.002,4.91,-2.93,-3.09,2.45,-2.50,2.21,
1.002,4.95,-2.80,-3.42,2.45,-2.50,2.21,
1.003,4.95,-2.80,-3.42,2.45,-2.50,2.21,
1.011,4.95,-2.80,-3.42,2.59,-3.03,2.25,
1.012,4.95,-2.80,-3.42,2.59,-3.03,2.25,
1.013,5.19,-2.73,-3.59,2.59,-3.03,2.25,
1.013,5.19,-2.73,-3.59,2.59,-3.03,2.25,
1.02,5.19,-2.73,-3.59,2.68,-3.44,2.26,
1.02,5.19,-2.73,-3.59,2.68,-3.44,2.26,
1.021,5.48,-2.63,-3.74,2.68,-3.44,2.26,
1.021,5.48,-2.63,-3.74,2.68,-3.44,2.26,
1.029,5.48,-2.63,-3.74,2.72,-3.78,2.23,
1.03,5.48,-2.63,-3.74,2.72,-3.78,2.23,
1.03,5.82,-2.42,-4.01,2.72,-3.78,2.23,
1.031,5.82,-2.42,-4.01,2.72,-3.78,2.23,
1.039,5.82,-2.42,-4.01,2.73,-4.06,2.18,
1.04,5.82,-2.42,-4.01,2.73,-4.06,2.18,
1.041,6.17,-2.10,-5.68,2.73,-4.06,2.18,
1.041,6.17,-2.10,-5.68,2.73,-4.06,2.18,
1.049,6.17,-2.10,-5.68,2.74,-4.31,2.11,
1.049,6.17,-2.10,-5.68,2.74,-4.31,2.11,
1.05,6.51,-1.73,-6.05,2.74,-4.31,2.11,
1.05,6.51,-1.73,-6.05,2.74,-4.31,2.11,
1.058,6.51,-1.73,-6.05,2.78,-4.62,2.01,
1.059,6.51,-1.73,-6.05,2.78,-4.62,2.01,
1.059,6.77,-1.39,-7.94,2.78,-4.62,2.01,
1.06,6.77,-1.39,-7.94,2.78,-4.62,2.01,
1.068,6.77,-1.39,-7.94,2.86,-5.02,1.87,
1.068,6.77,-1.39,-7.94,2.86,-5.02,1.87,
1.069,6.75,-1.12,-9.56,2.86,-5.02,1.87,
1.069,6.75,-1.12,-9.56,2.86,-5.02,1.87,
1.078,6.75,-1.12,-9.56,2.98,-5.53,1.69,
1.079,6.75,-1.12,-9.56,2.98,-5.53,1.69,
1.079,6.40,-0.94,-11.06,2.98,-5.53,1.69,
1.079,6.40,-0.94,-11.06,2.98,-5.53,1.69,
1.086,6.40,-0.94,-11.06,3.13,-6.15,1.47,
1.087,6.40,-0.94,-11.06,3.13,-6.15,1.47,
1.087,5.83,-0.86,-11.48,3.13,-6.15,1.47,
1.088,5.83,-0.86,-11.48,3.13,-6.15,1.47,
1.096,5.83,-0.86,-11.48,3.31,-6.82,1.22,
1.097,5.83,-0.86,-11.48,3.31,-6.82,1.22,
1.098,5.26,-0.84,-11.76,3.31,-6.82,1.22,
1.098,5.26,-0.84,-11.76,3.31,-6.82,1.22,
1.106,5.26,-0.84,-11.76,3.55,-7.42,0.97,
1.107,5.26,-0.84,-11.76,3.55,-7.42,0.97,
1.107,4.96,-0.88,-11.60,3.55,-7.42,0.97,
1.108,4.96,-0.88,-11.60,3.55,-7.42,0.97,
1.116,4.96,-0.88,-11.60,3.83,-7.83,0.72,
1.116,4.96,-0.88,-11.60,3.83,-7.83,0.72,
1.117,4.97,-0.95,-10.96,3.83,-7.83,0.72,
1.117,4.97,-0.95,-10.96,3.83,-7.83,0.72,
1.125,4.97,-0.95,-10.96,4.13,-7.94,0.47,
1.126,4.97,-0.95,-10.96,4.13,-7.94,0.47,
1.127,5.15,-1.02,-9.17,4.13,-7.94,0.47,
1.128,5.15,-1.02,-9.17,4.13,-7.94,0.47,
1.135,5.15,-1.02,-9.17,4.37,-7.72,0.24,
1.136,5.15,-1.02,-9.17,4.37,-7.72,0.24,
1.136,5.33,-1.01,-8.53,4.37,-7.72,0.24,
1.137,5.33,-1.01,-8.53,4.37,-7.72,0.24,
1.144,5.33,-1.01,-8.53,4.37,-7.72,0.24,
1.145,5.33,-1.01,-8.53,4.37,-7.72,0.24,
1.146,5.33,-1.01,-8.53,4.37,-7.72,0.24,
1.146,5.33,-1.01,-8.53,4.37,-7.72,0.24,
1.156,5.33,-1.01,-8.53,4.44,-7.13,0.08,
1.157,5.33,-1.01,-8.53,4.44,-7.13,0.08,
1.157,5.47,-1.07,-7.40,4.44,-7.13,0.08,
1.157,5.47,-1.07,-7.40,4.44,-7.13,0.08,
1.162,5.47,-1.07,-7.40,4.32,-6.22,-0.01,
1.163,5.47,-1.07,-7.40,4.32,-6.22,-0.01,
1.163,5.43,-1.17,-6.82,4.32,-6.22,-0.01,
1.164,5.43,-1.17,-6.82,4.32,-6.22,-0.01,
1.172,5.43,-1.17,-6.82,4.04,-5.13,-0.03,
1.173,5.43,-1.17,-6.82,4.04,-5.13,-0.03,
1.174,5.32,-1.48,-6.25,4.04,-5.13,-0.03,
1.174,5.32,-1.48,-6.25,4.04,-5.13,-0.03,
1.182,5.32,-1.48,-6.25,3.68,-4.01,0.01,
1.183,5.32,-1.48,-6.25,3.68,-4.01,0.01,
1.183,5.12,-1.95,-5.75,3.68,-4.01,0.01,
1.184,5.12,-1.95,-5.75,3.68,-4.01,0.01,
1.192,5.12,-1.95,-5.75,3.29,-2.98,0.11,
1.193,5.12,-1.95,-5.75,3.29,-2.98,0.11,
1.194,4.67,-2.45,-5.45,3.29,-2.98,0.11,
1.194,4.67,-2.45,-5.45,3.29,-2.98,0.11,
1.201,4.67,-2.45,-5.45,2.88,-2.08,0.28,
1.202,4.67,-2.45,-5.45,2.88,-2.08,0.28,
1.202,2.88,-2.86,-5.46,2.88,-2.08,0.28,
1.203,2.88,-2.86,-5.46,2.88,-2.08,0.28,
1.211,2.88,-2.86,-5.46,2.44,-1.35,0.54,
1.212,2.88,-2.86,-5.46,2.44,-1.35,0.54,
1.213,2.46,-3.07,-5.70,2.44,-1.35,0.54,
1.213,2.46,-3.07,-5.70,2.44,-1.35,0.54,
1.22,2.46,-3.07,-5.70,1.99,-0.80,0.86,
1.221,2.46,-3.07,-5.70,1.99,-0.80,0.86,
1.221,1.84,-3.09,-6.02,1.99,-0.80,0.86,
1.221,1.84,-3.09,-6.02,1.99,-0.80,0.86,
1.229,1.84,-3.09,-6.02,1.55,-0.59,1.22,
1.23,1.84,-3.09,-6.02,1.55,-0.59,1.22,
1.231,1.27,-3.05,-6.21,1.55,-0.59,1.22,
1.231,1.27,-3.05,-6.21,1.55,-0.59,1.22,
1.239,1.27,-3.05,-6.21,1.17,-0.56,1.55,
1.239,1.27,-3.05,-6.21,1.17,-0.56,1.55,
1.24,0.85,-3.06,-6.10,1.17,-0.56,1.55,
1.24,0.85,-3.06,-6.10,1.17,-0.56,1.55,
1.249,0.85,-3.06,-6.10,0.86,-0.55,1.81,
1.25,0.85,-3.06,-6.10,0.86,-0.55,1.81,
1.251,0.48,-3.17,-5.66,0.86,-0.55,1.81,
1.251,0.48,-3.17,-5.66,0.86,-0.55,1.81,
1.259,0.48,-3.17,-5.66,0.62,-0.56,1.98,
1.26,0.48,-3.17,-5.66,0.62,-0.56,1.98,
1.261,0.15,-3.33,-4.90,0.62,-0.56,1.98,
1.261,0.15,-3.33,-4.90,0.62,-0.56,1.98,
1.268,0.15,-3.33,-4.90,0.42,-0.57,2.09,
1.268,0.15,-3.33,-4.90,0.42,-0.57,2.09,
1.269,-0.17,-3.42,-3.11,0.42,-0.57,2.09,
1.269,-0.17,-3.42,-3.11,0.42,-0.57,2.09,
1.277,-0.17,-3.42,-3.11,0.24,-0.54,2.17,
1.278,-0.17,-3.42,-3.11,0.24,-0.54,2.17,
1.278,-0.40,-3.42,-2.49,0.24,-0.54,2.17,
1.278,-0.40,-3.42,-2.49,0.24,-0.54,2.17,
1.286,-0.40,-3.42,-2.49,0.06,-0.28,2.23,
1.287,-0.40,-3.42,-2.49,0.06,-0.28,2.23,
1.287,-0.58,-3.29,-1.86,0.06,-0.28,2.23,
1.288,-0.58,-3.29,-1.86,0.06,-0.28,2.23,
1.296,-0.58,-3.29,-1.86,-0.09,0.17,2.26,
1.297,-0.58,-3.29,-1.86,-0.09,0.17,2.26,
1.297,-0.77,-3.08,-1.75,-0.09,0.17,2.26,
1.297,-0.77,-3.08,-1.75,-0.09,0.17,2.26,
1.305,-0.77,-3.08,-1.75,-0.17,0.69,2.20,
1.306,-0.77,-3.08,-1.75,-0.17,0.69,2.20,
1.307,-1.06,-2.79,-3.22,-0.17,0.69,2.20,
1.307,-1.06,-2.79,-3.22,-0.17,0.69,2.20,
1.315,-1.06,-2.79,-3.22,-0.15,1.04,2.07,
1.316,-1.06,-2.79,-3.22,-0.15,1.04,2.07,
1.317,-1.44,-2.43,-4.60,-0.15,1.04,2.07,
1.318,-1.44,-2.43,-4.60,-0.15,1.04,2.07,
1.325,-1.44,-2.43,-4.60,-0.08,1.04,1.89,
1.327,-1.44,-2.43,-4.60,-0.08,1.04,1.89,
1.327,-1.78,-2.10,-4.81,-0.08,1.04,1.89,
1.328,-1.78,-2.10,-4.81,-0.08,1.04,1.89,
1.336,-1.78,-2.10,-4.81,0.00,0.60,1.66,
1.337,-1.78,-2.10,-4.81,0.00,0.60,1.66,
1.338,-1.95,-1.82,-4.60,0.00,0.60,1.66,
1.338,-1.95,-1.82,-4.60,0.00,0.60,1.66,
1.344,-1.95,-1.82,-4.60,0.00,0.60,1.66,
1.345,-1.95,-1.82,-4.60,0.00,0.60,1.66,
1.345,-1.95,-1.82,-4.60,0.00,0.60,1.66,
1.345,-1.95,-1.82,-4.60,0.00,0.60,1.66,
1.353,-1.95,-1.82,-4.60,0.09,-0.18,1.37,
1.354,-1.95,-1.82,-4.60,0.09,-0.18,1.37,
1.355,-1.63,-1.60,-2.03,0.09,-0.18,1.37,
1.355,-1.63,-1.60,-2.03,0.09,-0.18,1.37,
1.364,-1.63,-1.60,-2.03,0.09,-0.96,1.04,
1.365,-1.63,-1.60,-2.03,0.09,-0.96,1.04,
1.366,-1.44,-1.57,-1.26,0.09,-0.96,1.04,
1.366,-1.44,-1.57,-1.26,0.09,-0.96,1.04,
1.375,-1.44,-1.57,-1.26,-0.07,-1.36,0.71,
1.376,-1.44,-1.57,-1.26,-0.07,-1.36,0.71,
1.376,-1.38,-1.49,-0.57,-0.07,-1.36,0.71,
1.377,-1.38,-1.49,-0.57,-0.07,-1.36,0.71,
1.382,-1.38,-1.49,-0.57,-0.05,-1.23,0.40,
1.383,-1.38,-1.49,-0.57,-0.05,-1.23,0.40,
1.383,-1.47,-1.45,-0.02,-0.05,-1.23,0.40,
1.383,-1.47,-1.45,-0.02,-0.05,-1.23,0.40,
1.391,-1.47,-1.45,-0.02,0.17,-0.71,0.16,
1.392,-1.47,-1.45,-0.02,0.17,-0.71,0.16,
1.393,-1.65,-1.48,0.34,0.17,-0.71,0.16,
1.393,-1.65,-1.48,0.34,0.17,-0.71,0.16,
1.401,-1.65,-1.48,0.34,0.30,-0.06,-0.00,
1.402,-1.65,-1.48,0.34,0.30,-0.06,-0.00,
1.402,-1.78,-1.66,0.63,0.30,-0.06,-0.00,
1.402,-1.78,-1.66,0.63,0.30,-0.06,-0.00,
1.41,-1.78,-1.66,0.63,0.34,0.55,-0.09,
1.411,-1.78,-1.66,0.63,0.34,0.55,-0.09,
1.412,-1.74,-1.97,0.78,0.34,0.55,-0.09,
1.412,-1.74,-1.97,0.78,0.34,0.55,-0.09,
1.42,-1.74,-1.97,0.78,0.33,1.05,-0.08,
1.421,-1.74,-1.97,0.78,0.33,1.05,-0.08,
1.422,-1.67,-2.30,0.71,0.33,1.05,-0.08,
1.423,-1.67,-2.30,0.71,0.33,1.05,-0.08,
1.429,-1.67,-2.30,0.71,0.29,1.41,0.01,
1.429,-1.67,-2.30,0.71,0.29,1.41,0.01,
1.43,-1.54,-2.49,0.63,0.29,1.41,0.01,
1.43,-1.54,-2.49,0.63,0.29,1.41,0.01,
1.439,-1.54,-2.49,0.63,0.22,1.61,0.18,
1.44,-1.54,-2.49,0.63,0.22,1.61,0.18,
1.441,-1.42,-2.52,0.52,0.22,1.61,0.18,
1.441,-1.42,-2.52,0.52,0.22,1.61,0.18,
1.449,-1.42,-2.52,0.52,0.12,1.64,0.38,
1.449,-1.42,-2.52,0.52,0.12,1.64,0.38,
1.45,-1.37,-2.40,0.46,0.12,1.64,0.38,
1.45,-1.37,-2.40,0.46,0.12,1.64,0.38,
1.458,-1.37,-2.40,0.46,0.02,1.52,0.56,
1.459,-1.37,-2.40,0.46,0.02,1.52,0.56,
1.459,-1.27,-2.24,0.59,0.02,1.52,0.56,
1.459,-1.27,-2.24,0.59,0.02,1.52,0.56,
1.468,-1.27,-2.24,0.59,-0.04,1.29,0.69,
1.468,-1.27,-2.24,0.59,-0.04,1.29,0.69,
1.469,-1.22,-2.07,0.74,-0.04,1.29,0.69,
1.469,-1.22,-2.07,0.74,-0.04,1.29,0.69,
1.477,-1.22,-2.07,0.74,-0.06,1.02,0.73,
1.478,-1.22,-2.07,0.74,-0.06,1.02,0.73,
1.478,-1.26,-1.94,0.87,-0.06,1.02,0.73,
1.478,-1.26,-1.94,0.87,-0.06,1.02,0.73,
1.486,-1.26,-1.94,0.87,-0.05,0.76,0.72,
1.487,-1.26,-1.94,0.87,-0.05,0.76,0.72,
1.487,-1.43,-1.86,0.92,-0.05,0.76,0.72,
1.488,-1.43,-1.86,0.92,-0.05,0.76,0.72,
1.496,-1.43,-1.86,0.92,-0.01,0.55,0.66,
1.496,-1.43,-1.86,0.92,-0.01,0.55,0.66,
1.496,-1.71,-1.75,0.87,-0.01,0.55,0.66,
1.497,-1.71,-1.75,0.87,-0.01,0.55,0.66,
1.505,-1.71,-1.75,0.87,0.01,0.41,0.62,
1.506,-1.71,-1.75,0.87,0.01,0.41,0.62,
1.506,-2.09,-1.62,0.78,0.01,0.41,0.62,
1.507,-2.09,-1.62,0.78,0.01,0.41,0.62,
1.515,-2.09,-1.62,0.78,0.01,0.31,0.60,
1.515,-2.09,-1.62,0.78,0.01,0.31,0.60,
1.516,-2.52,-1.39,0.69,0.01,0.31,0.60,
1.516,-2.52,-1.39,0.69,0.01,0.31,0.60,
1.525,-2.52,-1.39,0.69,-0.03,0.23,0.62,
1.526,-2.52,-1.39,0.69,-0.03,0.23,0.62,
1.527,-3.01,-1.21,0.65,-0.03,0.23,0.62,
1.527,-3.01,-1.21,0.65,-0.03,0.23,0.62,
1.536,-3.01,-1.21,0.65,-0.10,0.18,0.69,
1.537,-3.01,-1.21,0.65,-0.10,0.18,0.69,
1.537,-3.22,-1.15,0.68,-0.10,0.18,0.69,
1.538,-3.22,-1.15,0.68,-0.10,0.18,0.69,
1.544,-3.22,-1.15,0.68,-0.10,0.18,0.69,
1.545,-3.22,-1.15,0.68,-0.10,0.18,0.69,
1.546,-3.22,-1.15,0.68,-0.10,0.18,0.69,
1.546,-3.22,-1.15,0.68,-0.10,0.18,0.69,
1.554,-3.22,-1.15,0.68,-0.19,0.15,0.79,
1.554,-3.22,-1.15,0.68,-0.19,0.15,0.79,
1.555,-2.51,-1.43,0.87,-0.19,0.15,0.79,
1.555,-2.51,-1.43,0.87,-0.19,0.15,0.79,
1.562,-2.51,-1.43,0.87,-0.29,0.15,0.90,
1.563,-2.51,-1.43,0.87,-0.29,0.15,0.90,
1.564,-0.64,-1.62,0.82,-0.29,0.15,0.90,
1.565,-0.64,-1.62,0.82,-0.29,0.15,0.90,
1.573,-0.64,-1.62,0.82,-0.35,0.17,0.96,
1.574,-0.64,-1.62,0.82,-0.35,0.17,0.96,
1.575,-0.08,-1.98,0.77,-0.35,0.17,0.96,
1.576,-0.08,-1.98,0.77,-0.35,0.17,0.96,
1.582,-0.08,-1.98,0.77,-0.32,0.18,0.91,
1.583,-0.08,-1.98,0.77,-0.32,0.18,0.91,
1.583,-0.18,-2.36,0.74,-0.32,0.18,0.91,
1.583,-0.18,-2.36,0.74,-0.32,0.18,0.91,
1.592,-0.18,-2.36,0.74,-0.21,0.14,0.78,
1.593,-0.18,-2.36,0.74,-0.21,0.14,0.78,
1.594,-1.82,-2.60,0.94,-0.21,0.14,0.78,
1.594,-1.82,-2.60,0.94,-0.21,0.14,0.78,
1.601,-1.82,-2.60,0.94,-0.12,0.11,0.69,
1.602,-1.82,-2.60,0.94,-0.12,0.11,0.69,
1.602,-5.11,-2.56,1.11,-0.12,0.11,0.69,
1.602,-5.11,-2.56,1.11,-0.12,0.11,0.69,
1.61,-5.11,-2.56,1.11,-0.17,0.20,0.83,
1.611,-5.11,-2.56,1.11,-0.17,0.20,0.83,
1.612,-5.59,-2.29,0.84,-0.17,0.20,0.83,
1.612,-5.59,-2.29,0.84,-0.17,0.20,0.83,
1.62,-5.59,-2.29,0.84,-0.19,0.15,1.30,
1.62,-5.59,-2.29,0.84,-0.19,0.15,1.30,
1.621,-3.93,-2.43,0.52,-0.19,0.15,1.30,
1.621,-3.93,-2.43,0.52,-0.19,0.15,1.30,
1.629,-3.93,-2.43,0.52,-0.11,-0.09,1.97,
1.63,-3.93,-2.43,0.52,-0.11,-0.09,1.97,
1.63,-2.29,-2.69,0.21,-0.11,-0.09,1.97,
1.631,-2.29,-2.69,0.21,-0.11,-0.09,1.97,
1.639,-2.29,-2.69,0.21,-0.30,0.05,2.55,
1.639,-2.29,-2.69,0.21,-0.30,0.05,2.55,
1.64,-0.22,-2.93,0.18,-0.30,0.05,2.55,
1.641,-0.22,-2.93,0.18,-0.30,0.05,2.55,
1.648,-0.22,-2.93,0.18,-0.58,0.32,2.72,
1.649,-0.22,-2.93,0.18,-0.58,0.32,2.72,
1.649,1.79,-3.21,0.55,-0.58,0.32,2.72,
1.65,1.79,-3.21,0.55,-0.58,0.32,2.72,
1.661,1.79,-3.21,0.55,-0.54,0.20,2.38,
1.662,1.79,-3.21,0.55,-0.54,0.20,2.38,
1.663,1.69,-3.33,0.94,-0.54,0.20,2.38,
1.663,1.69,-3.33,0.94,-0.54,0.20,2.38,
1.667,1.69,-3.33,0.94,-0.31,-0.09,1.71,
1.667,1.69,-3.33,0.94,-0.31,-0.09,1.71,
1.668,1.39,-3.49,1.03,-0.31,-0.09,1.71,
1.668,1.39,-3.49,1.03,-0.31,-0.09,1.71,
1.677,1.39,-3.49,1.03,0.04,-0.35,0.97,
1.678,1.39,-3.49,1.03,0.04,-0.35,0.97,
1.679,1.21,-3.75,0.81,0.04,-0.35,0.97,
1.679,1.21,-3.75,0.81,0.04,-0.35,0.97,
1.686,1.21,-3.75,0.81,0.39,-0.48,0.43,
1.687,1.21,-3.75,0.81,0.39,-0.48,0.43,
1.687,0.90,-3.81,0.52,0.39,-0.48,0.43,
1.687,0.90,-3.81,0.52,0.39,-0.48,0.43,
1.696,0.90,-3.81,0.52,0.57,-0.46,0.15,
1.696,0.90,-3.81,0.52,0.57,-0.46,0.15,
1.697,0.37,-3.46,0.19,0.57,-0.46,0.15,
1.697,0.37,-3.46,0.19,0.57,-0.46,0.15,
1.705,0.37,-3.46,0.19,0.59,-0.39,0.07,
1.706,0.37,-3.46,0.19,0.59,-0.39,0.07,
1.707,-1.10,-2.90,-0.15,0.59,-0.39,0.07,
1.707,-1.10,-2.90,-0.15,0.59,-0.39,0.07,
1.715,-1.10,-2.90,-0.15,0.50,-0.33,0.11,
1.715,-1.10,-2.90,-0.15,0.50,-0.33,0.11,
1.716,-1.54,-2.36,-0.38,0.50,-0.33,0.11,
1.717,-1.54,-2.36,-0.38,0.50,-0.33,0.11,
1.725,-1.54,-2.36,-0.38,0.50,-0.33,0.11,
1.726,-1.54,-2.36,-0.38,0.50,-0.33,0.11,
1.727,-1.54,-2.36,-0.38,0.50,-0.33,0.11,
1.727,-1.54,-2.36,-0.38,0.50,-0.33,0.11,
1.735,-1.54,-2.36,-0.38,0.13,-0.26,0.41,
1.736,-1.54,-2.36,-0.38,0.13,-0.26,0.41,
1.736,-2.38,-1.57,-0.37,0.13,-0.26,0.41,
1.736,-2.38,-1.57,-0.37,0.13,-0.26,0.41,
1.743,-2.38,-1.57,-0.37,0.13,-0.26,0.41,
1.744,-2.38,-1.57,-0.37,0.13,-0.26,0.41,
1.744,-2.38,-1.57,-0.37,0.13,-0.26,0.41,
1.745,-2.38,-1.57,-0.37,0.13,-0.26,0.41,
1.753,-2.38,-1.57,-0.37,-0.05,-0.25,0.59,
1.754,-2.38,-1.57,-0.37,-0.05,-0.25,0.59,
1.755,-2.18,-1.44,0.41,-0.05,-0.25,0.59,
1.756,-2.18,-1.44,0.41,-0.05,-0.25,0.59,
1.762,-2.18,-1.44,0.41,-0.18,-0.23,0.73,
1.764,-2.18,-1.44,0.41,-0.18,-0.23,0.73,
1.765,-1.93,-1.43,0.80,-0.18,-0.23,0.73,
1.766,-1.93,-1.43,0.80,-0.18,-0.23,0.73,
1.777,-1.93,-1.43,0.80,-0.20,-0.16,0.82,
1.778,-1.93,-1.43,0.80,-0.20,-0.16,0.82,
1.779,-1.65,-1.42,0.91,-0.20,-0.16,0.82,
1.78,-1.65,-1.42,0.91,-0.20,-0.16,0.82,
1.781,-1.65,-1.42,0.91,-0.10,-0.03,0.83,
1.783,-1.65,-1.42,0.91,-0.10,-0.03,0.83,
1.783,-1.51,-1.37,0.83,-0.10,-0.03,0.83,
1.783,-1.51,-1.37,0.83,-0.10,-0.03,0.83,
1.791,-1.51,-1.37,0.83,0.10,0.10,0.77,
1.792,-1.51,-1.37,0.83,0.10,0.10,0.77,
1.793,-1.30,-1.31,0.63,0.10,0.10,0.77,
1.793,-1.30,-1.31,0.63,0.10,0.10,0.77,
1.801,-1.30,-1.31,0.63,0.31,0.18,0.66,
1.801,-1.30,-1.31,0.63,0.31,0.18,0.66,
1.802,-1.05,-1.36,0.41,0.31,0.18,0.66,
1.802,-1.05,-1.36,0.41,0.31,0.18,0.66,
1.823,-1.05,-1.36,0.41,0.50,0.16,0.54,
1.824,-1.05,-1.36,0.41,0.50,0.16,0.54,
1.824,-1.09,-1.37,0.32,0.50,0.16,0.54,
1.825,-1.09,-1.37,0.32,0.50,0.16,0.54,
1.825,-1.09,-1.37,0.32,0.50,0.16,0.54,
1.826,-1.09,-1.37,0.32,0.50,0.16,0.54,
1.826,-1.09,-1.37,0.32,0.50,0.16,0.54,
1.827,-1.09,-1.37,0.32,0.50,0.16,0.54,
1.829,-1.09,-1.37,0.32,0.70,-0.09,0.34,
1.83,-1.09,-1.37,0.32,0.70,-0.09,0.34,
1.83,-1.72,-1.27,0.59,0.70,-0.09,0.34,
1.831,-1.72,-1.27,0.59,0.70,-0.09,0.34,
1.839,-1.72,-1.27,0.59,0.69,-0.17,0.33,
1.839,-1.72,-1.27,0.59,0.69,-0.17,0.33,
1.839,-1.93,-1.24,1.03,0.69,-0.17,0.33,
1.84,-1.93,-1.24,1.03,0.69,-0.17,0.33,
1.848,-1.93,-1.24,1.03,0.65,-0.14,0.38,
1.849,-1.93,-1.24,1.03,0.65,-0.14,0.38,
1.849,-1.81,-1.40,1.41,0.65,-0.14,0.38,
1.85,-1.81,-1.40,1.41,0.65,-0.14,0.38,
1.858,-1.81,-1.40,1.41,0.60,-0.01,0.48,
1.86,-1.81,-1.40,1.41,0.60,-0.01,0.48,
1.861,-1.36,-1.56,1.43,0.60,-0.01,0.48,
1.862,-1.36,-1.56,1.43,0.60,-0.01,0.48,
1.867,-1.36,-1.56,1.43,0.60,0.17,0.57,
1.868,-1.36,-1.56,1.43,0.60,0.17,0.57,
1.868,-0.99,-1.76,1.11,0.60,0.17,0.57,
1.868,-0.99,-1.76,1.11,0.60,0.17,0.57,
1.876,-0.99,-1.76,1.11,0.64,0.33,0.63,
1.877,-0.99,-1.76,1.11,0.64,0.33,0.63,
1.878,-6.24,-2.08,-2.00,0.64,0.33,0.63,
1.878,-6.24,-2.08,-2.00,0.64,0.33,0.63,
1.886,-6.24,-2.08,-2.00,0.54,0.43,0.79,
1.886,-6.24,-2.08,-2.00,0.54,0.43,0.79,
1.887,-12.55,-2.60,-2.23,0.54,0.43,0.79,
1.887,-12.55,-2.60,-2.23,0.54,0.43,0.79,
1.895,-12.55,-2.60,-2.23,-0.01,0.61,1.37,
1.897,-12.55,-2.60,-2.23,-0.01,0.61,1.37,
1.897,-11.15,-2.87,0.92,-0.01,0.61,1.37,
1.898,-11.15,-2.87,0.92,-0.01,0.61,1.37,
1.905,-11.15,-2.87,0.92,-0.49,1.06,2.70,
1.906,-11.15,-2.87,0.92,-0.49,1.06,2.70,
1.907,-6.99,-3.13,2.92,-0.49,1.06,2.70,
1.908,-6.99,-3.13,2.92,-0.49,1.06,2.70,
1.914,-6.99,-3.13,2.92,-0.50,2.53,3.37,
1.915,-6.99,-3.13,2.92,-0.50,2.53,3.37,
1.917,-0.18,-3.56,6.23,-0.50,2.53,3.37,
1.918,-0.18,-3.56,6.23,-0.50,2.53,3.37,
1.924,-0.18,-3.56,6.23,-0.31,4.36,3.63,
1.925,-0.18,-3.56,6.23,-0.31,4.36,3.63,
1.926,4.84,-3.62,6.59,-0.31,4.36,3.63,
1.926,4.84,-3.62,6.59,-0.31,4.36,3.63,
1.935,4.84,-3.62,6.59,-0.31,4.36,3.63,
1.936,4.84,-3.62,6.59,-0.31,4.36,3.63,
1.936,4.84,-3.62,6.59,-0.31,4.36,3.63,
1.936,4.84,-3.62,6.59,-0.31,4.36,3.63,
1.943,4.84,-3.62,6.59,0.60,4.51,3.62,
1.944,4.84,-3.62,6.59,0.60,4.51,3.62,
1.944,1.96,-0.84,1.44,0.60,4.51,3.62,
1.945,1.96,-0.84,1.44,0.60,4.51,3.62,
1.953,1.96,-0.84,1.44,2.07,3.08,2.26,
1.953,1.96,-0.84,1.44,2.07,3.08,2.26,
1.954,0.76,2.27,-0.33,2.07,3.08,2.26,
1.954,0.76,2.27,-0.33,2.07,3.08,2.26,
1.962,0.76,2.27,-0.33,3.10,1.17,0.52,
1.963,0.76,2.27,-0.33,3.10,1.17,0.52,
1.964,2.56,2.85,-0.82,3.10,1.17,0.52,
1.964,2.56,2.85,-0.82,3.10,1.17,0.52,
1.973,2.56,2.85,-0.82,3.42,-0.69,-1.03,
1.974,2.56,2.85,-0.82,3.42,-0.69,-1.03,
1.975,2.53,3.17,-0.95,3.42,-0.69,-1.03,
1.975,2.53,3.17,-0.95,3.42,-0.69,-1.03,
1.981,2.53,3.17,-0.95,3.32,-2.38,-2.34,
1.982,2.53,3.17,-0.95,3.32,-2.38,-2.34,
1.982,0.71,2.90,-0.67,3.32,-2.38,-2.34,
1.983,0.71,2.90,-0.67,3.32,-2.38,-2.34,
1.991,0.71,2.90,-0.67,3.12,-3.69,-3.40,
1.992,0.71,2.90,-0.67,3.12,-3.69,-3.40,
1.993,0.27,1.50,-0.49,3.12,-3.69,-3.40,
1.993,0.27,1.50,-0.49,3.12,-3.69,-3.40,
2.002,0.27,1.50,-0.49,2.85,-4.35,-4.01,
2.002,0.27,1.50,-0.49,2.85,-4.35,-4.01,
2.003,-1.19,1.38,-0.53,2.85,-4.35,-4.01,
2.003,-1.19,1.38,-0.53,2.85,-4.35,-4.01,
2.01,-1.19,1.38,-0.53,2.40,-4.39,-4.06,
2.011,-1.19,1.38,-0.53,2.40,-4.39,-4.06,
2.012,-1.04,1.61,-0.49,2.40,-4.39,-4.06,
2.012,-1.04,1.61,-0.49,2.40,-4.39,-4.06,
2.02,-1.04,1.61,-0.49,1.82,-4.00,-3.61,
2.022,-1.04,1.61,-0.49,1.82,-4.00,-3.61,
2.022,-0.88,2.09,-0.38,1.82,-4.00,-3.61,
2.023,-0.88,2.09,-0.38,1.82,-4.00,-3.61,
2.029,-0.88,2.09,-0.38,1.22,-3.43,-2.92,
2.03,-0.49,3.64,-0.40,1.22,-3.43,-2.92,
2.03,-0.49,3.64,-0.40,1.22,-3.43,-2.92,
2.031,-0.49,3.64,-0.40,1.22,-3.43,-2.92,
2.039,-0.49,3.64,-0.40,0.77,-2.89,-2.31,
2.04,-0.49,3.64,-0.40,0.77,-2.89,-2.31,
2.04,0.11,3.96,-0.38,0.77,-2.89,-2.31,
2.041,0.11,3.96,-0.38,0.77,-2.89,-2.31,
2.048,0.11,3.96,-0.38,0.57,-2.51,-2.01,
2.049,0.11,3.96,-0.38,0.57,-2.51,-2.01,
2.05,0.62,4.03,-0.55,0.57,-2.51,-2.01,
2.05,0.62,4.03,-0.55,0.57,-2.51,-2.01,
2.058,0.62,4.03,-0.55,0.61,-2.32,-2.06,
2.059,0.62,4.03,-0.55,0.61,-2.32,-2.06,
2.059,1.02,3.76,-0.76,0.61,-2.32,-2.06,
2.06,1.02,3.76,-0.76,0.61,-2.32,-2.06,
2.067,1.02,3.76,-0.76,0.64,-2.15,-2.32,
2.068,1.02,3.76,-0.76,0.64,-2.15,-2.32,
2.069,0.87,2.01,-0.79,0.64,-2.15,-2.32,
2.069,0.87,2.01,-0.79,0.64,-2.15,-2.32,
2.076,0.87,2.01,-0.79,0.66,-2.02,-2.52,
2.077,0.87,2.01,-0.79,0.66,-2.02,-2.52,
2.077,-0.88,0.17,-0.62,0.66,-2.02,-2.52,
2.078,-0.88,0.17,-0.62,0.66,-2.02,-2.52,
2.086,-0.88,0.17,-0.62,0.63,-1.90,-2.36,
2.087,-0.88,0.17,-0.62,0.63,-1.90,-2.36,
2.087,-2.61,-1.90,-0.22,0.63,-1.90,-2.36,
2.087,-2.61,-1.90,-0.22,0.63,-1.90,-2.36,
2.096,-2.61,-1.90,-0.22,0.30,-1.55,-1.59,
2.096,-2.61,-1.90,-0.22,0.30,-1.55,-1.59,
2.097,-5.75,-3.71,1.65,0.30,-1.55,-1.59,
2.097,-5.75,-3.71,1.65,0.30,-1.55,-1.59,
2.106,-5.75,-3.71,1.65,-0.37,-0.75,-0.10,
2.107,-5.75,-3.71,1.65,-0.37,-0.75,-0.10,
2.107,-6.01,-3.93,1.86,-0.37,-0.75,-0.10,
2.108,-6.01,-3.93,1.86,-0.37,-0.75,-0.10,
2.115,-6.01,-3.93,1.86,-1.27,0.70,1.93,
2.116,-6.01,-3.93,1.86,-1.27,0.70,1.93,
2.117,-6.22,-4.23,1.52,-1.27,0.70,1.93,
2.117,-6.22,-4.23,1.52,-1.27,0.70,1.93,
2.126,-6.22,-4.23,1.52,-2.10,2.64,4.00,
2.127,-6.22,-4.23,1.52,-2.10,2.64,4.00,
2.127,-6.18,-4.35,1.08,-2.10,2.64,4.00,
2.128,-6.18,-4.35,1.08,-2.10,2.64,4.00,
2.135,-6.18,-4.35,1.08,-2.10,2.64,4.00,
2.136,-6.18,-4.35,1.08,-2.10,2.64,4.00,
2.136,-6.18,-4.35,1.08,-2.10,2.64,4.00,
2.137,-6.18,-4.35,1.08,-2.10,2.64,4.00,
2.143,-6.18,-4.35,1.08,-2.55,4.49,5.59,
2.144,-6.18,-4.35,1.08,-2.55,4.49,5.59,
2.144,-2.79,-3.62,-0.46,-2.55,4.49,5.59,
2.145,-2.79,-3.62,-0.46,-2.55,4.49,5.59,
2.153,-2.79,-3.62,-0.46,-2.63,5.57,6.35,
2.153,-2.79,-3.62,-0.46,-2.63,5.57,6.35,
2.154,-2.66,-3.02,-0.15,-2.63,5.57,6.35,
2.154,-2.66,-3.02,-0.15,-2.63,5.57,6.35,
2.162,-2.66,-3.02,-0.15,-2.50,5.60,6.24,
2.163,-2.66,-3.02,-0.15,-2.50,5.60,6.24,
2.164,-2.46,-2.38,0.19,-2.50,5.60,6.24,
2.164,-2.46,-2.38,0.19,-2.50,5.60,6.24,
2.174,-2.46,-2.38,0.19,-2.29,4.82,5.49,
2.175,-2.46,-2.38,0.19,-2.29,4.82,5.49,
2.175,-2.32,-1.80,0.28,-2.29,4.82,5.49,
2.176,-2.32,-1.80,0.28,-2.29,4.82,5.49,
2.183,-2.32,-1.80,0.28,-1.99,3.65,4.45,
2.184,-2.32,-1.80,0.28,-1.99,3.65,4.45,
2.185,-2.29,-1.40,0.39,-1.99,3.65,4.45,
2.185,-2.29,-1.40,0.39,-1.99,3.65,4.45,
2.191,-2.29,-1.40,0.39,-1.60,2.49,3.44,
2.192,-2.29,-1.40,0.39,-1.60,2.49,3.44,
2.192,-2.14,-1.14,0.49,-1.60,2.49,3.44,
2.193,-2.14,-1.14,0.49,-1.60,2.49,3.44,
2.2,-2.14,-1.14,0.49,-1.17,1.48,2.58,
2.201,-2.14,-1.14,0.49,-1.17,1.48,2.58,
2.202,-1.97,-0.96,0.45,-1.17,1.48,2.58,
2.202,-1.97,-0.96,0.45,-1.17,1.48,2.58,
2.214,-1.97,-0.96,0.45,-0.35,-0.10,1.26,
2.215,-1.97,-0.96,0.45,-0.35,-0.10,1.26,
2.216,-1.86,-0.77,0.42,-0.35,-0.10,1.26,
2.216,-1.86,-0.77,0.42,-0.35,-0.10,1.26,
2.219,-1.86,-0.77,0.42,-0.35,-0.10,1.26,
2.22,-1.86,-0.77,0.42,-0.35,-0.10,1.26,
2.221,-1.86,-0.77,0.42,-0.35,-0.10,1.26,
2.221,-1.86,-0.77,0.42,-0.35,-0.10,1.26,
2.229,-1.86,-0.77,0.42,-0.02,-0.68,0.77,
2.23,-1.86,-0.77,0.42,-0.02,-0.68,0.77,
2.23,-2.22,-0.51,0.15,-0.02,-0.68,0.77,
2.231,-2.22,-0.51,0.15,-0.02,-0.68,0.77,
2.238,-2.22,-0.51,0.15,0.22,-1.10,0.39,
2.239,-2.22,-0.51,0.15,0.22,-1.10,0.39,
2.239,-2.54,-0.50,0.08,0.22,-1.10,0.39,
2.239,-2.54,-0.50,0.08,0.22,-1.10,0.39,
2.248,-2.54,-0.50,0.08,0.35,-1.36,0.14,
2.249,-2.54,-0.50,0.08,0.35,-1.36,0.14,
2.249,-2.86,-0.56,0.04,0.35,-1.36,0.14,
2.25,-2.86,-0.56,0.04,0.35,-1.36,0.14,
2.258,-2.86,-0.56,0.04,0.38,-1.46,0.04,
2.259,-2.86,-0.56,0.04,0.38,-1.46,0.04,
2.26,-3.07,-0.68,0.03,0.38,-1.46,0.04,
2.26,-3.07,-0.68,0.03,0.38,-1.46,0.04,
2.267,-3.07,-0.68,0.03,0.32,-1.43,0.08,
2.267,-3.07,-0.68,0.03,0.32,-1.43,0.08,
2.268,-3.23,-0.88,0.05,0.32,-1.43,0.08,
2.268,-3.23,-0.88,0.05,0.32,-1.43,0.08,
2.276,-3.23,-0.88,0.05,0.21,-1.31,0.23,
2.277,-3.23,-0.88,0.05,0.21,-1.31,0.23,
2.278,-3.39,-1.15,0.11,0.21,-1.31,0.23,
2.278,-3.39,-1.15,0.11,0.21,-1.31,0.23,
2.286,-3.39,-1.15,0.11,0.09,-1.11,0.45,
2.287,-3.39,-1.15,0.11,0.09,-1.11,0.45,
2.287,-3.55,-1.45,0.17,0.09,-1.11,0.45,
2.287,-3.55,-1.45,0.17,0.09,-1.11,0.45,
2.295,-3.55,-1.45,0.17,-0.02,-0.87,0.70,
2.296,-3.55,-1.45,0.17,-0.02,-0.87,0.70,
2.297,-3.71,-1.77,0.20,-0.02,-0.87,0.70,
2.297,-3.71,-1.77,0.20,-0.02,-0.87,0.70,
2.305,-3.71,-1.77,0.20,-0.10,-0.59,0.96,
2.307,-3.71,-1.77,0.20,-0.10,-0.59,0.96,
2.307,-3.84,-2.08,0.18,-0.10,-0.59,0.96,
2.308,-3.84,-2.08,0.18,-0.10,-0.59,0.96,
2.315,-3.84,-2.08,0.18,-0.14,-0.31,1.23,
2.316,-3.84,-2.08,0.18,-0.14,-0.31,1.23,
2.317,-3.98,-2.29,0.12,-0.14,-0.31,1.23,
2.318,-3.98,-2.29,0.12,-0.14,-0.31,1.23,
2.325,-3.98,-2.29,0.12,-0.20,-0.02,1.47,
2.326,-3.98,-2.29,0.12,-0.20,-0.02,1.47,
2.327,-4.09,-2.43,0.06,-0.20,-0.02,1.47,
2.328,-4.09,-2.43,0.06,-0.20,-0.02,1.47,
2.335,-4.09,-2.43,0.06,-0.20,-0.02,1.47,
2.336,-4.09,-2.43,0.06,-0.20,-0.02,1.47,
2.337,-4.09,-2.43,0.06,-0.20,-0.02,1.47,
2.337,-4.09,-2.43,0.06,-0.20,-0.02,1.47,
2.343,-4.09,-2.43,0.06,-0.26,0.24,1.68,
2.344,-4.09,-2.43,0.06,-0.26,0.24,1.68,
2.344,-4.21,-2.50,-0.03,-0.26,0.24,1.68,
2.345,-4.21,-2.50,-0.03,-0.26,0.24,1.68,
2.352,-4.21,-2.50,-0.03,-0.31,0.47,1.85,
2.353,-4.21,-2.50,-0.03,-0.31,0.47,1.85,
2.354,-4.11,-2.41,0.01,-0.31,0.47,1.85,
2.354,-4.11,-2.41,0.01,-0.31,0.47,1.85,
2.362,-4.11,-2.41,0.01,-0.38,0.63,1.97,
2.363,-4.11,-2.41,0.01,-0.38,0.63,1.97,
2.364,-3.93,-2.28,0.11,-0.38,0.63,1.97,
2.365,-3.93,-2.28,0.11,-0.38,0.63,1.97,
2.373,-3.93,-2.28,0.11,-0.42,0.73,2.01,
2.374,-3.93,-2.28,0.11,-0.42,0.73,2.01,
2.375,-3.72,-2.10,0.24,-0.42,0.73,2.01,
2.376,-3.72,-2.10,0.24,-0.42,0.73,2.01,
2.384,-3.72,-2.10,0.24,-0.43,0.77,1.98,
2.387,-3.72,-2.10,0.24,-0.43,0.77,1.98,
2.387,-3.51,-1.89,0.33,-0.43,0.77,1.98,
2.388,-3.51,-1.89,0.33,-0.43,0.77,1.98,
2.39,-3.51,-1.89,0.33,-0.38,0.74,1.88,
2.391,-3.51,-1.89,0.33,-0.38,0.74,1.88,
2.391,-3.31,-1.52,0.37,-0.38,0.74,1.88,
2.392,-3.31,-1.52,0.37,-0.38,0.74,1.88,
2.401,-3.31,-1.52,0.37,-0.29,0.66,1.71,
2.402,-3.31,-1.52,0.37,-0.29,0.66,1.71,
2.402,-3.20,0.23,0.28,-0.29,0.66,1.71,
2.402,-3.20,0.23,0.28,-0.29,0.66,1.71,
2.409,-3.20,0.23,0.28,-0.18,0.52,1.51,
2.41,-3.20,0.23,0.28,-0.18,0.52,1.51,
2.41,-3.11,1.83,-0.00,-0.18,0.52,1.51,
2.41,-3.11,1.83,-0.00,-0.18,0.52,1.51,
2.419,-3.11,1.83,-0.00,-0.08,0.31,1.27,
2.419,-3.11,1.83,-0.00,-0.08,0.31,1.27,
2.42,-2.72,3.70,-0.23,-0.08,0.31,1.27,
2.42,-2.72,3.70,-0.23,-0.08,0.31,1.27,
2.429,-2.72,3.70,-0.23,0.01,0.04,1.00,
2.43,-2.72,3.70,-0.23,0.01,0.04,1.00,
2.43,-0.94,4.12,-0.26,0.01,0.04,1.00,
2.431,-0.94,4.12,-0.26,0.01,0.04,1.00,
2.438,-0.94,4.12,-0.26,0.07,-0.35,0.62,
2.439,-0.94,4.12,-0.26,0.07,-0.35,0.62,
2.44,-0.84,4.48,0.12,0.07,-0.35,0.62,
2.44,-0.84,4.48,0.12,0.07,-0.35,0.62,
2.448,-0.84,4.48,0.12,0.13,-0.95,0.46,
2.449,-0.84,4.48,0.12,0.13,-0.95,0.46,
2.449,-1.08,4.35,1.76,0.13,-0.95,0.46,
2.45,-1.08,4.35,1.76,0.13,-0.95,0.46,
2.458,-1.08,4.35,1.76,0.33,-1.62,0.06,
2.458,-1.08,4.35,1.76,0.33,-1.62,0.06,
2.459,-2.70,2.47,1.96,0.33,-1.62,0.06,
2.459,-2.70,2.47,1.96,0.33,-1.62,0.06,
2.472,-2.70,2.47,1.96,0.77,-1.98,-0.72,
2.473,-2.70,2.47,1.96,0.77,-1.98,-0.72,
2.473,-3.08,2.02,2.13,0.77,-1.98,-0.72,
2.474,-3.08,2.02,2.13,0.77,-1.98,-0.72,
2.476,-3.08,2.02,2.13,1.30,-1.68,-1.02,
2.477,-3.46,0.13,2.00,1.30,-1.68,-1.02,
2.477,-3.46,0.13,2.00,1.30,-1.68,-1.02,
2.478,-3.46,0.13,2.00,1.30,-1.68,-1.02,
2.485,-3.46,0.13,2.00,1.71,-0.91,-0.70,
2.486,-3.46,0.13,2.00,1.71,-0.91,-0.70,
2.487,-3.45,-0.41,1.72,1.71,-0.91,-0.70,
2.487,-3.45,-0.41,1.72,1.71,-0.91,-0.70,
2.495,-3.45,-0.41,1.72,1.87,-0.08,0.02,
2.496,-3.45,-0.41,1.72,1.87,-0.08,0.02,
2.496,-3.53,-1.89,1.46,1.87,-0.08,0.02,
2.497,-3.53,-1.89,1.46,1.87,-0.08,0.02,
2.505,-3.53,-1.89,1.46,1.77,0.07,0.82,
2.506,-3.53,-1.89,1.46,1.77,0.07,0.82,
2.506,-3.68,-1.83,1.34,1.77,0.07,0.82,
2.507,-3.68,-1.83,1.34,1.77,0.07,0.82,
2.515,-3.68,-1.83,1.34,1.47,-0.28,1.48,
2.516,-3.68,-1.83,1.34,1.47,-0.28,1.48,
2.516,-3.75,-1.32,1.21,1.47,-0.28,1.48,
2.517,-3.75,-1.32,1.21,1.47,-0.28,1.48,
2.525,-3.75,-1.32,1.21,1.08,-0.26,1.94,
2.526,-3.75,-1.32,1.21,1.08,-0.26,1.94,
2.527,-3.74,0.64,0.92,1.08,-0.26,1.94,
2.527,-3.74,0.64,0.92,1.08,-0.26,1.94,
2.535,-3.74,0.64,0.92,1.08,-0.26,1.94,
2.535,-3.74,0.64,0.92,1.08,-0.26,1.94,
2.536,-3.74,0.64,0.92,1.08,-0.26,1.94,
2.537,-3.74,0.64,0.92,1.08,-0.26,1.94,
2.543,-3.74,0.64,0.92,0.74,-0.07,2.22,
2.544,-3.74,0.64,0.92,0.74,-0.07,2.22,
2.545,-3.32,4.17,-1.18,0.74,-0.07,2.22,
2.545,-3.32,4.17,-1.18,0.74,-0.07,2.22,
2.552,-3.32,4.17,-1.18,0.44,-0.02,2.33,
2.553,-3.32,4.17,-1.18,0.44,-0.02,2.33,
2.554,-2.95,4.37,-1.76,0.44,-0.02,2.33,
2.554,-2.95,4.37,-1.76,0.44,-0.02,2.33,
2.562,-2.95,4.37,-1.76,0.07,-0.13,2.30,
2.564,-2.95,4.37,-1.76,0.07,-0.13,2.30,
2.565,-2.95,-1.58,-1.93,0.07,-0.13,2.30,
2.566,-2.95,-1.58,-1.93,0.07,-0.13,2.30,
2.578,-2.95,-1.58,-1.93,-0.50,-0.38,2.19,
2.58,-2.95,-1.58,-1.93,-0.50,-0.38,2.19,
2.58,-5.07,-10.14,-1.49,-0.50,-0.38,2.19,
2.581,-5.07,-10.14,-1.49,-0.50,-0.38,2.19,
2.581,-5.07,-10.14,-1.49,-1.24,-0.68,2.09,
2.581,-5.07,-10.14,-1.49,-1.24,-0.68,2.09,
2.582,-6.40,-17.25,0.08,-1.24,-0.68,2.09,
2.582,-6.40,-17.25,0.08,-1.24,-0.68,2.09,
2.592,-6.40,-17.25,0.08,-1.82,-0.88,2.12,
2.593,-6.40,-17.25,0.08,-1.82,-0.88,2.12,
2.593,-4.33,-19.56,0.25,-1.82,-0.88,2.12,
2.594,-4.33,-19.56,0.25,-1.82,-0.88,2.12,
2.601,-4.33,-19.56,0.25,-1.94,-0.97,2.18,
2.602,-4.33,-19.56,0.25,-1.94,-0.97,2.18,
2.602,0.25,-14.48,0.27,-1.94,-0.97,2.18,
2.602,0.25,-14.48,0.27,-1.94,-0.97,2.18,
2.61,0.25,-14.48,0.27,-1.71,-1.19,2.01,
2.611,0.25,-14.48,0.27,-1.71,-1.19,2.01,
2.611,5.20,-5.64,0.39,-1.71,-1.19,2.01,
2.612,5.20,-5.64,0.39,-1.71,-1.19,2.01,
2.62,5.20,-5.64,0.39,-1.37,-1.71,1.43,
2.621,5.20,-5.64,0.39,-1.37,-1.71,1.43,
2.621,5.59,0.87,0.89,-1.37,-1.71,1.43,
2.622,5.59,0.87,0.89,-1.37,-1.71,1.43,
2.629,5.59,0.87,0.89,-1.03,-2.51,0.44,
2.63,5.59,0.87,0.89,-1.03,-2.51,0.44,
2.63,3.05,2.60,2.98,-1.03,-2.51,0.44,
2.631,3.05,2.60,2.98,-1.03,-2.51,0.44,
2.638,3.05,2.60,2.98,-0.62,-3.31,-0.75,
2.64,3.05,2.60,2.98,-0.62,-3.31,-0.75,
2.64,-1.32,2.55,3.60,-0.62,-3.31,-0.75,
2.641,-1.32,2.55,3.60,-0.62,-3.31,-0.75,
2.648,-1.32,2.55,3.60,-0.04,-3.74,-1.76,
2.649,-1.32,2.55,3.60,-0.04,-3.74,-1.76,
2.649,-3.55,0.95,3.77,-0.04,-3.74,-1.76,
2.65,-3.55,0.95,3.77,-0.04,-3.74,-1.76,
2.658,-3.55,0.95,3.77,0.68,-3.59,-2.17,
2.659,-3.55,0.95,3.77,0.68,-3.59,-2.17,
2.66,-5.17,0.47,1.92,0.68,-3.59,-2.17,
2.661,-5.17,0.47,1.92,0.68,-3.59,-2.17,
2.666,-5.17,0.47,1.92,1.36,-2.92,-1.77,
2.667,-5.17,0.47,1.92,1.36,-2.92,-1.77,
2.667,-5.17,0.18,0.06,1.36,-2.92,-1.77,
2.668,-5.17,0.18,0.06,1.36,-2.92,-1.77,
2.676,-5.17,0.18,0.06,1.73,-2.02,-0.74,
2.677,-5.17,0.18,0.06,1.73,-2.02,-0.74,
2.678,-4.93,0.27,-0.38,1.73,-2.02,-0.74,
2.678,-4.93,0.27,-0.38,1.73,-2.02,-0.74,
2.686,-4.93,0.27,-0.38,1.64,-1.15,0.50,
2.687,-4.93,0.27,-0.38,1.64,-1.15,0.50,
2.687,-4.54,0.55,-0.75,1.64,-1.15,0.50,
2.687,-4.54,0.55,-0.75,1.64,-1.15,0.50,
2.695,-4.54,0.55,-0.75,1.16,-0.44,1.56,
2.696,-4.54,0.55,-0.75,1.16,-0.44,1.56,
2.697,-4.13,0.72,-0.66,1.16,-0.44,1.56,
2.697,-4.13,0.72,-0.66,1.16,-0.44,1.56,
2.705,-4.13,0.72,-0.66,0.55,0.08,2.27,
2.706,-4.13,0.72,-0.66,0.55,0.08,2.27,
2.707,-3.70,0.69,-0.15,0.55,0.08,2.27,
2.707,-3.70,0.69,-0.15,0.55,0.08,2.27,
2.715,-3.70,0.69,-0.15,0.02,0.42,2.64,
2.716,-3.70,0.69,-0.15,0.02,0.42,2.64,
2.717,-3.27,0.47,0.48,0.02,0.42,2.64,
2.717,-3.27,0.47,0.48,0.02,0.42,2.64,
2.725,-3.27,0.47,0.48,-0.30,0.62,2.71,
2.726,-3.27,0.47,0.48,-0.30,0.62,2.71,
2.727,-2.79,0.21,0.86,-0.30,0.62,2.71,
2.727,-2.79,0.21,0.86,-0.30,0.62,2.71,
2.735,-2.79,0.21,0.86,-0.30,0.62,2.71,
2.736,-2.79,0.21,0.86,-0.30,0.62,2.71,
2.737,-2.79,0.21,0.86,-0.30,0.62,2.71,
2.737,-2.79,0.21,0.86,-0.30,0.62,2.71,
2.742,-2.79,0.21,0.86,-0.40,0.67,2.56,
2.743,-2.79,0.21,0.86,-0.40,0.67,2.56,
2.744,-2.04,-0.11,0.68,-0.40,0.67,2.56,
2.744,-2.04,-0.11,0.68,-0.40,0.67,2.56,
2.752,-2.04,-0.11,0.68,-0.31,0.59,2.25,
2.753,-2.04,-0.11,0.68,-0.31,0.59,2.25,
2.753,-1.80,-0.14,0.39,-0.31,0.59,2.25,
2.754,-1.80,-0.14,0.39,-0.31,0.59,2.25,
2.762,-1.80,-0.14,0.39,-0.17,0.42,1.81,
2.763,-1.80,-0.14,0.39,-0.17,0.42,1.81,
2.764,-1.71,-0.07,0.25,-0.17,0.42,1.81,
2.764,-1.71,-0.07,0.25,-0.17,0.42,1.81,
2.772,-1.71,-0.07,0.25,-0.08,0.19,1.32,
2.772,-1.71,-0.07,0.25,-0.08,0.19,1.32,
2.773,-1.70,0.00,0.24,-0.08,0.19,1.32,
2.774,-1.70,0.00,0.24,-0.08,0.19,1.32,
2.781,-1.70,0.00,0.24,-0.06,-0.02,0.88,
2.782,-1.70,0.00,0.24,-0.06,-0.02,0.88,
2.782,-1.72,0.09,0.31,-0.06,-0.02,0.88,
2.783,-1.72,0.09,0.31,-0.06,-0.02,0.88,
2.791,-1.72,0.09,0.31,-0.07,-0.16,0.54,
2.791,-1.72,0.09,0.31,-0.07,-0.16,0.54,
2.792,-1.68,0.21,0.39,-0.07,-0.16,0.54,
2.792,-1.68,0.21,0.39,-0.07,-0.16,0.54,
2.801,-1.68,0.21,0.39,-0.08,-0.22,0.32,
2.802,-1.68,0.21,0.39,-0.08,-0.22,0.32,
2.802,-1.51,0.28,0.36,-0.08,-0.22,0.32,
2.803,-1.51,0.28,0.36,-0.08,-0.22,0.32,
2.822,-1.51,0.28,0.36,-0.07,-0.22,0.18,
2.823,-1.51,0.28,0.36,-0.07,-0.22,0.18,
2.823,-1.36,0.28,0.28,-0.07,-0.22,0.18,
2.824,-1.36,0.28,0.28,-0.07,-0.22,0.18,
2.824,-1.36,0.28,0.28,-0.03,-0.21,0.10,
2.825,-1.36,0.28,0.28,-0.03,-0.21,0.10,
2.825,-1.20,0.19,0.21,-0.03,-0.21,0.10,
2.826,-1.20,0.19,0.21,-0.03,-0.21,0.10,
2.829,-1.20,0.19,0.21,0.00,-0.18,0.04,
2.83,-1.20,0.19,0.21,0.00,-0.18,0.04,
2.83,-1.07,0.16,0.20,0.00,-0.18,0.04,
2.83,-1.07,0.16,0.20,0.00,-0.18,0.04,
2.839,-1.07,0.16,0.20,0.01,-0.16,-0.03,
2.84,-1.07,0.16,0.20,0.01,-0.16,-0.03,
2.84,-0.97,0.22,0.31,0.01,-0.16,-0.03,
2.841,-0.97,0.22,0.31,0.01,-0.16,-0.03,
2.848,-0.97,0.22,0.31,0.01,-0.13,-0.09,
2.849,-0.97,0.22,0.31,0.01,-0.13,-0.09,
2.85,-0.77,0.19,0.48,0.01,-0.13,-0.09,
2.851,-0.77,0.19,0.48,0.01,-0.13,-0.09,
2.858,-0.77,0.19,0.48,0.02,-0.12,-0.15,
2.859,-0.77,0.19,0.48,0.02,-0.12,-0.15,
2.859,-0.35,0.20,0.63,0.02,-0.12,-0.15,
2.86,-0.35,0.20,0.63,0.02,-0.12,-0.15,
2.872,-0.35,0.20,0.63,0.06,-0.11,-0.21,
2.872,-0.35,0.20,0.63,0.06,-0.11,-0.21,
2.873,0.09,0.10,0.63,0.06,-0.11,-0.21,
2.873,0.09,0.10,0.63,0.06,-0.11,-0.21,
2.876,0.09,0.10,0.63,0.14,-0.13,-0.30,
2.877,0.09,0.10,0.63,0.14,-0.13,-0.30,
2.877,0.44,-0.07,0.46,0.14,-0.13,-0.30,
2.877,0.44,-0.07,0.46,0.14,-0.13,-0.30,
2.89,0.44,-0.07,0.46,0.21,-0.21,-0.44,
2.891,0.44,-0.07,0.46,0.21,-0.21,-0.44,
2.891,0.62,-0.05,0.26,0.21,-0.21,-0.44,
2.891,0.62,-0.05,0.26,0.21,-0.21,-0.44,
2.895,0.62,-0.05,0.26,0.25,-0.34,-0.61,
2.896,0.62,-0.05,0.26,0.25,-0.34,-0.61,
2.896,0.54,0.01,0.08,0.25,-0.34,-0.61,
2.896,0.54,0.01,0.08,0.25,-0.34,-0.61,
2.905,0.54,0.01,0.08,0.23,-0.50,-0.77,
2.906,0.54,0.01,0.08,0.23,-0.50,-0.77,
2.907,0.42,0.06,0.01,0.23,-0.50,-0.77,
2.907,0.42,0.06,0.01,0.23,-0.50,-0.77,
2.915,0.42,0.06,0.01,0.16,-0.63,-0.86,
2.916,0.42,0.06,0.01,0.16,-0.63,-0.86,
2.916,0.32,0.08,0.15,0.16,-0.63,-0.86,
2.917,0.32,0.08,0.15,0.16,-0.63,-0.86,
2.924,0.32,0.08,0.15,0.16,-0.63,-0.86,
2.925,0.32,0.08,0.15,0.16,-0.63,-0.86,
2.926,0.32,0.08,0.15,0.16,-0.63,-0.86,
2.926,0.32,0.08,0.15,0.16,-0.63,-0.86,
2.935,0.32,0.08,0.15,0.08,-0.69,-0.87,
2.935,0.32,0.08,0.15,0.08,-0.69,-0.87,
2.935,0.12,0.07,0.74,0.08,-0.69,-0.87,
2.936,0.12,0.07,0.74,0.08,-0.69,-0.87,
2.943,0.12,0.07,0.74,0.03,-0.68,-0.79,
2.944,0.12,0.07,0.74,0.03,-0.68,-0.79,
2.945,0.00,0.09,0.99,0.03,-0.68,-0.79,
2.945,0.00,0.09,0.99,0.03,-0.68,-0.79,
2.952,0.00,0.09,0.99,0.08,-0.60,-0.65,
2.953,0.00,0.09,0.99,0.08,-0.60,-0.65,
2.953,-0.15,0.15,1.09,0.08,-0.60,-0.65,
2.954,-0.15,0.15,1.09,0.08,-0.60,-0.65,
2.962,-0.15,0.15,1.09,0.22,-0.46,-0.46,
2.963,-0.15,0.15,1.09,0.22,-0.46,-0.46,
2.964,-0.29,0.20,1.04,0.22,-0.46,-0.46,
2.964,-0.29,0.20,1.04,0.22,-0.46,-0.46,
2.973,-0.29,0.20,1.04,0.40,-0.31,-0.25,
2.974,-0.29,0.20,1.04,0.40,-0.31,-0.25,
2.975,-0.42,0.28,0.94,0.40,-0.31,-0.25,
2.975,-0.42,0.28,0.94,0.40,-0.31,-0.25,
2.981,-0.42,0.28,0.94,0.56,-0.17,-0.03,
2.982,-0.42,0.28,0.94,0.56,-0.17,-0.03,
2.982,-0.54,0.35,0.81,0.56,-0.17,-0.03,
2.983,-0.54,0.35,0.81,0.56,-0.17,-0.03,
2.991,-0.54,0.35,0.81,0.65,-0.04,0.18,
2.992,-0.54,0.35,0.81,0.65,-0.04,0.18,
2.992,-0.64,0.36,0.70,0.65,-0.04,0.18,
2.993,-0.64,0.36,0.70,0.65,-0.04,0.18,
3.0,-0.64,0.36,0.70,0.66,0.08,0.37,
3.001,-0.64,0.36,0.70,0.66,0.08,0.37,
3.001,-0.75,0.35,0.63,0.66,0.08,0.37,
3.002,-0.75,0.35,0.63,0.66,0.08,0.37,
3.01,-0.75,0.35,0.63,0.62,0.18,0.54,
3.011,-0.75,0.35,0.63,0.62,0.18,0.54,
3.011,-0.83,0.29,0.55,0.62,0.18,0.54,
3.012,-0.83,0.29,0.55,0.62,0.18,0.54,
3.019,-0.83,0.29,0.55,0.55,0.27,0.68,
3.02,-0.83,0.29,0.55,0.55,0.27,0.68,
3.021,-0.88,0.21,0.47,0.55,0.27,0.68,
3.021,-0.88,0.21,0.47,0.55,0.27,0.68,
3.029,-0.88,0.21,0.47,0.45,0.33,0.79,
3.03,-0.88,0.21,0.47,0.45,0.33,0.79,
3.031,-0.87,0.15,0.43,0.45,0.33,0.79,
3.032,-0.87,0.15,0.43,0.45,0.33,0.79,
3.039,-0.87,0.15,0.43,0.34,0.35,0.87,
3.04,-0.87,0.15,0.43,0.34,0.35,0.87,
3.041,-0.80,0.13,0.40,0.34,0.35,0.87,
3.041,-0.80,0.13,0.40,0.34,0.35,0.87,
3.047,-0.80,0.13,0.40,0.23,0.34,0.91,
3.048,-0.80,0.13,0.40,0.23,0.34,0.91,
3.049,-0.69,0.17,0.40,0.23,0.34,0.91,
3.049,-0.69,0.17,0.40,0.23,0.34,0.91,
3.059,-0.69,0.17,0.40,0.13,0.30,0.91,
3.061,-0.69,0.17,0.40,0.13,0.30,0.91,
3.062,-0.56,0.26,0.47,0.13,0.30,0.91,
3.062,-0.56,0.26,0.47,0.13,0.30,0.91,
3.066,-0.56,0.26,0.47,0.05,0.22,0.86,
3.067,-0.56,0.26,0.47,0.05,0.22,0.86,
3.067,-0.43,0.37,0.62,0.05,0.22,0.86,
3.068,-0.43,0.37,0.62,0.05,0.22,0.86,
3.076,-0.43,0.37,0.62,-0.00,0.13,0.78,
3.077,-0.43,0.37,0.62,-0.00,0.13,0.78,
3.077,-0.34,0.46,0.81,-0.00,0.13,0.78,
3.078,-0.34,0.46,0.81,-0.00,0.13,0.78,
3.09,-0.34,0.46,0.81,-0.00,0.03,0.66,
3.091,-0.34,0.46,0.81,-0.00,0.03,0.66,
3.091,-0.30,0.47,1.01,-0.00,0.03,0.66,
3.092,-0.30,0.47,1.01,-0.00,0.03,0.66,
3.094,-0.30,0.47,1.01,0.05,-0.06,0.53,
3.095,-0.30,0.47,1.01,0.05,-0.06,0.53,
3.095,-0.34,0.38,1.12,0.05,-0.06,0.53,
3.096,-0.34,0.38,1.12,0.05,-0.06,0.53,
3.105,-0.34,0.38,1.12,0.16,-0.14,0.40,
3.106,-0.34,0.38,1.12,0.16,-0.14,0.40,
3.106,-0.39,0.28,1.06,0.16,-0.14,0.40,
3.107,-0.39,0.28,1.06,0.16,-0.14,0.40,
3.115,-0.39,0.28,1.06,0.28,-0.21,0.30,
3.116,-0.39,0.28,1.06,0.28,-0.21,0.30,
3.116,-0.43,0.21,0.93,0.28,-0.21,0.30,
3.117,-0.43,0.21,0.93,0.28,-0.21,0.30,
3.123,-0.43,0.21,0.93,0.28,-0.21,0.30,
3.124,-0.43,0.21,0.93,0.28,-0.21,0.30,
3.124,-0.43,0.21,0.93,0.28,-0.21,0.30,
3.125,-0.43,0.21,0.93,0.28,-0.21,0.30,
3.135,-0.43,0.21,0.93,0.38,-0.24,0.22,
3.136,-0.43,0.21,0.93,0.38,-0.24,0.22,
3.136,-0.45,0.25,0.65,0.38,-0.24,0.22,
3.137,-0.45,0.25,0.65,0.38,-0.24,0.22,
3.143,-0.45,0.25,0.65,0.43,-0.26,0.17,
3.143,-0.45,0.25,0.65,0.43,-0.26,0.17,
3.144,-0.46,0.32,0.53,0.43,-0.26,0.17,
3.145,-0.46,0.32,0.53,0.43,-0.26,0.17,
3.152,-0.46,0.32,0.53,0.40,-0.27,0.15,
3.153,-0.46,0.32,0.53,0.40,-0.27,0.15,
3.153,-0.52,0.34,0.36,0.40,-0.27,0.15,
3.154,-0.52,0.34,0.36,0.40,-0.27,0.15,
3.162,-0.52,0.34,0.36,0.31,-0.28,0.15,
3.163,-0.52,0.34,0.36,0.31,-0.28,0.15,
3.163,-0.59,0.37,0.13,0.31,-0.28,0.15,
3.164,-0.59,0.37,0.13,0.31,-0.28,0.15,
3.174,-0.59,0.37,0.13,0.18,-0.29,0.16,
3.174,-0.59,0.37,0.13,0.18,-0.29,0.16,
3.175,-0.63,0.34,-0.10,0.18,-0.29,0.16,
3.176,-0.63,0.34,-0.10,0.18,-0.29,0.16,
3.181,-0.63,0.34,-0.10,0.03,-0.30,0.19,
3.182,-0.63,0.34,-0.10,0.03,-0.30,0.19,
3.182,-0.60,0.28,-0.21,0.03,-0.30,0.19,
3.182,-0.60,0.28,-0.21,0.03,-0.30,0.19,
3.192,-0.60,0.28,-0.21,-0.13,-0.29,0.23,
3.192,-0.60,0.28,-0.21,-0.13,-0.29,0.23,
3.193,-0.54,0.22,-0.16,-0.13,-0.29,0.23,
3.193,-0.54,0.22,-0.16,-0.13,-0.29,0.23,
3.201,-0.54,0.22,-0.16,-0.28,-0.26,0.25,
3.201,-0.54,0.22,-0.16,-0.28,-0.26,0.25,
3.202,-0.41,0.12,-0.04,-0.28,-0.26,0.25,
3.202,-0.41,0.12,-0.04,-0.28,-0.26,0.25,
3.21,-0.41,0.12,-0.04,-0.40,-0.23,0.26,
3.21,-0.41,0.12,-0.04,-0.40,-0.23,0.26,
3.211,-0.28,0.06,0.14,-0.40,-0.23,0.26,
3.211,-0.28,0.06,0.14,-0.40,-0.23,0.26,
3.219,-0.28,0.06,0.14,-0.46,-0.22,0.23,
3.221,-0.28,0.06,0.14,-0.46,-0.22,0.23,
3.222,-0.15,-0.00,0.27,-0.46,-0.22,0.23,
3.223,-0.15,-0.00,0.27,-0.46,-0.22,0.23,
3.229,-0.15,-0.00,0.27,-0.44,-0.23,0.17,
3.229,-0.15,-0.00,0.27,-0.44,-0.23,0.17,
3.23,0.03,-0.04,0.26,-0.44,-0.23,0.17,
3.231,0.03,-0.04,0.26,-0.44,-0.23,0.17,
3.238,0.03,-0.04,0.26,-0.37,-0.26,0.09,
3.239,0.03,-0.04,0.26,-0.37,-0.26,0.09,
3.239,0.14,-0.06,0.15,-0.37,-0.26,0.09,
3.24,0.14,-0.06,0.15,-0.37,-0.26,0.09,
3.248,0.14,-0.06,0.15,-0.28,-0.30,-0.02,
3.249,0.14,-0.06,0.15,-0.28,-0.30,-0.02,
3.249,0.24,-0.05,-0.06,-0.28,-0.30,-0.02,
3.25,0.24,-0.05,-0.06,-0.28,-0.30,-0.02,
3.258,0.24,-0.05,-0.06,-0.21,-0.34,-0.13,
3.259,0.24,-0.05,-0.06,-0.21,-0.34,-0.13,
3.26,0.28,-0.04,-0.31,-0.21,-0.34,-0.13,
3.261,0.28,-0.04,-0.31,-0.21,-0.34,-0.13,
3.272,0.28,-0.04,-0.31,-0.18,-0.37,-0.23,
3.272,0.28,-0.04,-0.31,-0.18,-0.37,-0.23,
3.273,0.26,-0.00,-0.47,-0.18,-0.37,-0.23,
3.273,0.26,-0.00,-0.47,-0.18,-0.37,-0.23,
3.275,0.26,-0.00,-0.47,-0.22,-0.40,-0.30,
3.276,0.26,-0.00,-0.47,-0.22,-0.40,-0.30,
3.277,0.22,0.03,-0.51,-0.22,-0.40,-0.30,
3.277,0.22,0.03,-0.51,-0.22,-0.40,-0.30,
3.286,0.22,0.03,-0.51,-0.29,-0.43,-0.34,
3.286,0.22,0.03,-0.51,-0.29,-0.43,-0.34,
3.287,0.16,0.06,-0.43,-0.29,-0.43,-0.34,
3.287,0.16,0.06,-0.43,-0.29,-0.43,-0.34,
3.295,0.16,0.06,-0.43,-0.37,-0.44,-0.35,
3.296,0.16,0.06,-0.43,-0.37,-0.44,-0.35,
3.297,0.10,0.07,-0.31,-0.37,-0.44,-0.35,
3.297,0.10,0.07,-0.31,-0.37,-0.44,-0.35,
3.306,0.10,0.07,-0.31,-0.42,-0.41,-0.32,
3.308,0.10,0.07,-0.31,-0.42,-0.41,-0.32,
3.309,0.02,0.06,-0.10,-0.42,-0.41,-0.32,
3.309,0.02,0.06,-0.10,-0.42,-0.41,-0.32,
3.314,0.02,0.06,-0.10,-0.41,-0.34,-0.27,
3.315,0.02,0.06,-0.10,-0.41,-0.34,-0.27,
3.315,-0.04,0.02,0.07,-0.41,-0.34,-0.27,
3.316,-0.04,0.02,0.07,-0.41,-0.34,-0.27,
3.324,-0.04,0.02,0.07,-0.41,-0.34,-0.27,
3.325,-0.04,0.02,0.07,-0.41,-0.34,-0.27,
3.326,-0.04,0.02,0.07,-0.41,-0.34,-0.27,
3.327,-0.04,0.02,0.07,-0.41,-0.34,-0.27,
3.335,-0.04,0.02,0.07,-0.33,-0.26,-0.20,
3.336,-0.04,0.02,0.07,-0.33,-0.26,-0.20,
3.337,-0.02,0.03,0.31,-0.33,-0.26,-0.20,
3.337,-0.02,0.03,0.31,-0.33,-0.26,-0.20,
3.343,-0.02,0.03,0.31,-0.20,-0.16,-0.13,
3.343,-0.02,0.03,0.31,-0.20,-0.16,-0.13,
3.344,0.00,0.05,0.33,-0.20,-0.16,-0.13,
3.345,0.00,0.05,0.33,-0.20,-0.16,-0.13,
3.352,0.00,0.05,0.33,-0.03,-0.05,-0.07,
3.352,0.00,0.05,0.33,-0.03,-0.05,-0.07,
3.353,0.09,0.08,0.32,-0.03,-0.05,-0.07,
3.353,0.09,0.08,0.32,-0.03,-0.05,-0.07,
3.362,0.09,0.08,0.32,0.14,0.04,-0.02,
3.362,0.09,0.08,0.32,0.14,0.04,-0.02,
3.363,0.13,0.08,0.36,0.14,0.04,-0.02,
3.363,0.13,0.08,0.36,0.14,0.04,-0.02,
3.371,0.13,0.08,0.36,0.28,0.12,0.00,
3.372,0.13,0.08,0.36,0.28,0.12,0.00,
3.372,0.19,0.10,0.41,0.28,0.12,0.00,
3.373,0.19,0.10,0.41,0.28,0.12,0.00,
3.381,0.19,0.10,0.41,0.38,0.17,0.00,
3.382,0.19,0.10,0.41,0.38,0.17,0.00,
3.382,0.22,0.10,0.45,0.38,0.17,0.00,
3.382,0.22,0.10,0.45,0.38,0.17,0.00,
3.39,0.22,0.10,0.45,0.45,0.19,-0.01,
3.39,0.22,0.10,0.45,0.45,0.19,-0.01,
3.39,0.16,0.11,0.43,0.45,0.19,-0.01,
3.391,0.16,0.11,0.43,0.45,0.19,-0.01,
3.402,0.16,0.11,0.43,0.49,0.20,-0.03,
3.403,0.16,0.11,0.43,0.49,0.20,-0.03,
3.403,0.08,0.15,0.36,0.49,0.20,-0.03,
3.403,0.08,0.15,0.36,0.49,0.20,-0.03,
3.41,0.08,0.15,0.36,0.50,0.19,-0.04,
3.41,0.08,0.15,0.36,0.50,0.19,-0.04,
3.411,0.03,0.18,0.28,0.50,0.19,-0.04,
3.411,0.03,0.18,0.28,0.50,0.19,-0.04,
3.419,0.03,0.18,0.28,0.50,0.19,-0.03,
3.42,0.03,0.18,0.28,0.50,0.19,-0.03,
3.42,0.04,0.21,0.21,0.50,0.19,-0.03,
3.421,0.04,0.21,0.21,0.50,0.19,-0.03,
3.428,0.04,0.21,0.21,0.46,0.19,-0.01,
3.429,0.04,0.21,0.21,0.46,0.19,-0.01,
3.43,0.10,0.19,0.16,0.46,0.19,-0.01,
3.43,0.10,0.19,0.16,0.46,0.19,-0.01,
3.437,0.10,0.19,0.16,0.40,0.20,0.02,
3.439,0.10,0.19,0.16,0.40,0.20,0.02,
3.439,0.18,0.16,0.11,0.40,0.20,0.02,
3.44,0.18,0.16,0.11,0.40,0.20,0.02,
3.448,0.18,0.16,0.11,0.33,0.19,0.04,
3.449,0.18,0.16,0.11,0.33,0.19,0.04,
3.45,0.20,0.14,0.07,0.33,0.19,0.04,
3.451,0.20,0.14,0.07,0.33,0.19,0.04,
3.458,0.20,0.14,0.07,0.24,0.16,0.04,
3.459,0.20,0.14,0.07,0.24,0.16,0.04,
3.46,0.12,0.12,0.07,0.24,0.16,0.04,
3.461,0.12,0.12,0.07,0.24,0.16,0.04,
3.466,0.12,0.12,0.07,0.16,0.11,0.03,
3.466,0.12,0.12,0.07,0.16,0.11,0.03,
3.467,-0.02,0.08,0.08,0.16,0.11,0.03,
3.467,-0.02,0.08,0.08,0.16,0.11,0.03,
3.476,-0.02,0.08,0.08,0.08,0.08,0.03,
3.477,-0.02,0.08,0.08,0.08,0.08,0.03,
3.477,-0.19,0.00,0.09,0.08,0.08,0.03,
3.477,-0.19,0.00,0.09,0.08,0.08,0.03,
3.486,-0.19,0.00,0.09,0.03,0.06,0.04,
3.487,-0.19,0.00,0.09,0.03,0.06,0.04,
3.487,-0.32,-0.08,0.07,0.03,0.06,0.04,
3.488,-0.32,-0.08,0.07,0.03,0.06,0.04,
3.495,-0.32,-0.08,0.07,-0.01,0.07,0.08,
3.496,-0.32,-0.08,0.07,-0.01,0.07,0.08,
3.496,-0.34,-0.13,0.02,-0.01,0.07,0.08,
3.496,-0.34,-0.13,0.02,-0.01,0.07,0.08,
3.505,-0.34,-0.13,0.02,-0.04,0.11,0.14,
3.506,-0.34,-0.13,0.02,-0.04,0.11,0.14,
3.507,-0.28,-0.13,-0.04,-0.04,0.11,0.14,
3.507,-0.28,-0.13,-0.04,-0.04,0.11,0.14,
3.518,-0.28,-0.13,-0.04,-0.07,0.14,0.20,
3.519,-0.28,-0.13,-0.04,-0.07,0.14,0.20,
3.519,-0.12,-0.10,-0.09,-0.07,0.14,0.20,
3.52,-0.12,-0.10,-0.09,-0.07,0.14,0.20,
3.524,-0.12,-0.10,-0.09,-0.07,0.14,0.20,
3.525,-0.12,-0.10,-0.09,-0.07,0.14,0.20,
3.525,-0.12,-0.10,-0.09,-0.07,0.14,0.20,
3.526,-0.12,-0.10,-0.09,-0.07,0.14,0.20,
3.534,-0.12,-0.10,-0.09,-0.10,0.18,0.23,
3.535,-0.12,-0.10,-0.09,-0.10,0.18,0.23,
3.536,0.22,-0.07,-0.33,-0.10,0.18,0.23,
3.537,0.22,-0.07,-0.33,-0.10,0.18,0.23,
3.542,0.22,-0.07,-0.33,-0.14,0.20,0.22,
3.543,0.22,-0.07,-0.33,-0.14,0.20,0.22,
3.543,0.39,-0.09,-0.48,-0.14,0.20,0.22,
3.544,0.39,-0.09,-0.48,-0.14,0.20,0.22,
3.552,0.39,-0.09,-0.48,-0.20,0.18,0.14,
3.553,0.39,-0.09,-0.48,-0.20,0.18,0.14,
3.553,0.50,-0.11,-0.62,-0.20,0.18,0.14,
3.554,0.50,-0.11,-0.62,-0.20,0.18,0.14,
3.561,0.50,-0.11,-0.62,-0.29,0.10,0.02,
3.562,0.50,-0.11,-0.62,-0.29,0.10,0.02,
3.562,0.58,-0.12,-0.65,-0.29,0.10,0.02,
3.563,0.58,-0.12,-0.65,-0.29,0.10,0.02,
3.572,0.58,-0.12,-0.65,-0.40,-0.00,-0.12,
3.573,0.58,-0.12,-0.65,-0.40,-0.00,-0.12,
3.573,0.65,-0.11,-0.56,-0.40,-0.00,-0.12,
3.574,0.65,-0.11,-0.56,-0.40,-0.00,-0.12,
3.581,0.65,-0.11,-0.56,-0.50,-0.12,-0.26,
3.581,0.65,-0.11,-0.56,-0.50,-0.12,-0.26,
3.582,0.70,-0.08,-0.43,-0.50,-0.12,-0.26,
3.582,0.70,-0.08,-0.43,-0.50,-0.12,-0.26,
3.59,0.70,-0.08,-0.43,-0.55,-0.21,-0.37,
3.591,0.70,-0.08,-0.43,-0.55,-0.21,-0.37,
3.591,0.72,-0.06,-0.30,-0.55,-0.21,-0.37,
3.591,0.72,-0.06,-0.30,-0.55,-0.21,-0.37,
3.601,0.72,-0.06,-0.30,-0.55,-0.27,-0.46,
3.602,0.72,-0.06,-0.30,-0.55,-0.27,-0.46,
3.602,0.72,-0.03,-0.25,-0.55,-0.27,-0.46,
3.602,0.72,-0.03,-0.25,-0.55,-0.27,-0.46,
3.609,0.72,-0.03,-0.25,-0.49,-0.31,-0.52,
3.61,0.72,-0.03,-0.25,-0.49,-0.31,-0.52,
3.611,0.69,-0.00,-0.26,-0.49,-0.31,-0.52,
3.612,0.69,-0.00,-0.26,-0.49,-0.31,-0.52,
3.618,0.69,-0.00,-0.26,-0.39,-0.32,-0.55,
3.62,0.69,-0.00,-0.26,-0.39,-0.32,-0.55,
3.62,0.67,0.01,-0.31,-0.39,-0.32,-0.55,
3.621,0.67,0.01,-0.31,-0.39,-0.32,-0.55,
3.628,0.67,0.01,-0.31,-0.29,-0.31,-0.55,
3.629,0.67,0.01,-0.31,-0.29,-0.31,-0.55,
3.63,0.64,0.02,-0.37,-0.29,-0.31,-0.55,
3.63,0.64,0.02,-0.37,-0.29,-0.31,-0.55,
3.638,0.64,0.02,-0.37,-0.21,-0.30,-0.53,
3.639,0.64,0.02,-0.37,-0.21,-0.30,-0.53,
3.639,0.60,0.00,-0.41,-0.21,-0.30,-0.53,
3.64,0.60,0.00,-0.41,-0.21,-0.30,-0.53,
3.647,0.60,0.00,-0.41,-0.16,-0.28,-0.49,
3.648,0.60,0.00,-0.41,-0.16,-0.28,-0.49,
3.648,0.57,0.00,-0.43,-0.16,-0.28,-0.49,
3.649,0.57,0.00,-0.43,-0.16,-0.28,-0.49,
3.658,0.57,0.00,-0.43,-0.13,-0.25,-0.44,
3.659,0.57,0.00,-0.43,-0.13,-0.25,-0.44,
3.66,0.48,0.03,-0.43,-0.13,-0.25,-0.44,
3.661,0.48,0.03,-0.43,-0.13,-0.25,-0.44,
3.672,0.48,0.03,-0.43,-0.12,-0.21,-0.37,
3.673,0.48,0.03,-0.43,-0.12,-0.21,-0.37,
3.674,0.40,0.06,-0.43,-0.12,-0.21,-0.37,
3.674,0.40,0.06,-0.43,-0.12,-0.21,-0.37,
3.676,0.40,0.06,-0.43,-0.12,-0.18,-0.30,
3.677,0.40,0.06,-0.43,-0.12,-0.18,-0.30,
3.677,0.32,0.10,-0.40,-0.12,-0.18,-0.30,
3.677,0.32,0.10,-0.40,-0.12,-0.18,-0.30,
3.687,0.32,0.10,-0.40,-0.12,-0.16,-0.22,
3.687,0.32,0.10,-0.40,-0.12,-0.16,-0.22,
3.688,0.23,0.12,-0.36,-0.12,-0.16,-0.22,
3.688,0.23,0.12,-0.36,-0.12,-0.16,-0.22,
3.694,0.23,0.12,-0.36,-0.11,-0.14,-0.13,
3.695,0.23,0.12,-0.36,-0.11,-0.14,-0.13,
3.695,0.15,0.12,-0.30,-0.11,-0.14,-0.13,
3.696,0.15,0.12,-0.30,-0.11,-0.14,-0.13,
3.705,0.15,0.12,-0.30,-0.09,-0.12,-0.04,
3.706,0.15,0.12,-0.30,-0.09,-0.12,-0.04,
3.707,0.09,0.13,-0.23,-0.09,-0.12,-0.04,
3.707,0.09,0.13,-0.23,-0.09,-0.12,-0.04,
3.714,0.09,0.13,-0.23,-0.09,-0.12,-0.04,
3.715,0.09,0.13,-0.23,-0.09,-0.12,-0.04,
3.715,0.09,0.13,-0.23,-0.09,-0.12,-0.04,
3.716,0.09,0.13,-0.23,-0.09,-0.12,-0.04,
3.724,0.09,0.13,-0.23,-0.06,-0.10,0.05,
3.726,0.09,0.13,-0.23,-0.06,-0.10,0.05,
3.727,0.05,0.14,-0.15,-0.06,-0.10,0.05,
3.727,0.05,0.14,-0.15,-0.06,-0.10,0.05,
3.734,0.05,0.14,-0.15,-0.02,-0.07,0.13,
3.735,0.05,0.14,-0.15,-0.02,-0.07,0.13,
3.735,0.06,0.12,-0.15,-0.02,-0.07,0.13,
3.736,0.06,0.12,-0.15,-0.02,-0.07,0.13,
3.742,0.06,0.12,-0.15,0.02,-0.03,0.19,
3.743,0.06,0.12,-0.15,0.02,-0.03,0.19,
3.743,0.08,0.08,-0.17,0.02,-0.03,0.19,
3.744,0.08,0.08,-0.17,0.02,-0.03,0.19,
3.752,0.08,0.08,-0.17,0.07,0.01,0.23,
3.753,0.08,0.08,-0.17,0.07,0.01,0.23,
3.754,0.09,0.04,-0.18,0.07,0.01,0.23,
3.755,0.09,0.04,-0.18,0.07,0.01,0.23,
3.761,0.09,0.04,-0.18,0.10,0.03,0.24,
3.762,0.09,0.04,-0.18,0.10,0.03,0.24,
3.762,0.12,0.02,-0.17,0.10,0.03,0.24,
3.763,0.12,0.02,-0.17,0.10,0.03,0.24,
3.772,0.12,0.02,-0.17,0.11,0.01,0.24,
3.773,0.12,0.02,-0.17,0.11,0.01,0.24,
3.774,0.14,0.01,-0.12,0.11,0.01,0.24,
3.775,0.14,0.01,-0.12,0.11,0.01,0.24,
3.781,0.14,0.01,-0.12,0.10,-0.02,0.23,
3.782,0.14,0.01,-0.12,0.10,-0.02,0.23,
3.783,0.15,0.02,-0.07,0.10,-0.02,0.23,
3.783,0.15,0.02,-0.07,0.10,-0.02,0.23,
3.79,0.15,0.02,-0.07,0.10,-0.03,0.19,
3.791,0.15,0.02,-0.07,0.10,-0.03,0.19,
3.791,0.14,0.01,-0.02,0.10,-0.03,0.19,
3.792,0.14,0.01,-0.02,0.10,-0.03,0.19,
3.8,0.14,0.01,-0.02,0.10,-0.02,0.15,
3.801,0.14,0.01,-0.02,0.10,-0.02,0.15,
3.802,0.11,0.03,-0.00,0.10,-0.02,0.15,
3.802,0.11,0.03,-0.00,0.10,-0.02,0.15,
3.821,0.11,0.03,-0.00,0.11,0.01,0.11,
3.823,0.11,0.03,-0.00,0.11,0.01,0.11,
3.824,0.07,0.07,-0.04,0.11,0.01,0.11,
3.826,0.07,0.07,-0.04,0.11,0.01,0.11,
3.826,0.07,0.07,-0.04,0.11,0.01,0.11,
3.827,0.07,0.07,-0.04,0.11,0.01,0.11,
3.828,0.07,0.07,-0.04,0.11,0.01,0.11,
3.829,0.07,0.07,-0.04,0.11,0.01,0.11,
3.829,0.07,0.07,-0.04,0.13,0.06,0.05,
3.829,0.07,0.07,-0.04,0.13,0.06,0.05,
3.83,0.07,0.13,-0.10,0.13,0.06,0.05,
3.83,0.07,0.13,-0.10,0.13,0.06,0.05,
3.837,0.07,0.13,-0.10,0.12,0.07,0.04,
3.838,0.07,0.13,-0.10,0.12,0.07,0.04,
3.839,0.10,0.17,-0.13,0.12,0.07,0.04,
3.839,0.10,0.17,-0.13,0.12,0.07,0.04,
3.847,0.10,0.17,-0.13,0.09,0.08,0.03,
3.848,0.10,0.17,-0.13,0.09,0.08,0.03,
3.848,0.09,0.19,-0.12,0.09,0.08,0.03,
3.849,0.09,0.19,-0.12,0.09,0.08,0.03,
3.858,0.09,0.19,-0.12,0.06,0.07,0.03,
3.859,0.09,0.19,-0.12,0.06,0.07,0.03,
3.86,0.05,0.21,-0.08,0.06,0.07,0.03,
3.86,0.05,0.21,-0.08,0.06,0.07,0.03,
3.872,0.05,0.21,-0.08,0.03,0.06,0.02,
3.873,0.05,0.21,-0.08,0.03,0.06,0.02,
3.874,-0.04,0.24,-0.03,0.03,0.06,0.02,
3.874,-0.04,0.24,-0.03,0.03,0.06,0.02,
3.875,-0.04,0.24,-0.03,0.01,0.07,0.01,
3.876,-0.04,0.24,-0.03,0.01,0.07,0.01,
3.876,-0.12,0.22,0.01,0.01,0.07,0.01,
3.877,-0.12,0.22,0.01,0.01,0.07,0.01,
3.885,-0.12,0.22,0.01,0.01,0.08,0.02,
3.886,-0.12,0.22,0.01,0.01,0.08,0.02,
3.886,-0.18,0.19,0.06,0.01,0.08,0.02,
3.887,-0.18,0.19,0.06,0.01,0.08,0.02,
3.896,-0.18,0.19,0.06,0.02,0.10,0.04,
3.897,-0.18,0.19,0.06,0.02,0.10,0.04,
3.897,-0.19,0.16,0.09,0.02,0.10,0.04,
3.898,-0.19,0.16,0.09,0.02,0.10,0.04,
3.905,-0.19,0.16,0.09,0.04,0.12,0.08,
3.906,-0.19,0.16,0.09,0.04,0.12,0.08,
3.906,-0.19,0.13,0.11,0.04,0.12,0.08,
3.907,-0.19,0.13,0.11,0.04,0.12,0.08,
3.914,-0.19,0.13,0.11,0.04,0.12,0.08,
3.914,-0.19,0.13,0.11,0.04,0.12,0.08,
3.915,-0.19,0.13,0.11,0.04,0.12,0.08,
3.915,-0.19,0.13,0.11,0.04,0.12,0.08,
3.923,-0.19,0.13,0.11,0.06,0.12,0.11,
3.924,-0.19,0.13,0.11,0.06,0.12,0.11,
3.924,-0.21,0.12,0.12,0.06,0.12,0.11,
3.925,-0.21,0.12,0.12,0.06,0.12,0.11,
3.933,-0.21,0.12,0.12,0.08,0.13,0.14,
3.934,-0.21,0.12,0.12,0.08,0.13,0.14,
3.935,-0.24,0.13,0.10,0.08,0.13,0.14,
3.935,-0.24,0.13,0.10,0.08,0.13,0.14,
3.942,-0.24,0.13,0.10,0.09,0.14,0.15,
3.943,-0.24,0.13,0.10,0.09,0.14,0.15,
3.943,-0.23,0.16,0.05,0.09,0.14,0.15,
3.944,-0.23,0.16,0.05,0.09,0.14,0.15,
3.952,-0.23,0.16,0.05,0.10,0.15,0.15,
3.953,-0.23,0.16,0.05,0.10,0.15,0.15,
3.954,-0.23,0.22,0.02,0.10,0.15,0.15,
3.955,-0.23,0.22,0.02,0.10,0.15,0.15,
3.961,-0.23,0.22,0.02,0.09,0.15,0.15,
3.962,-0.23,0.22,0.02,0.09,0.15,0.15,
3.962,-0.17,0.24,-0.02,0.09,0.15,0.15,
3.963,-0.17,0.24,-0.02,0.09,0.15,0.15,
3.972,-0.17,0.24,-0.02,0.06,0.15,0.14,
3.973,-0.17,0.24,-0.02,0.06,0.15,0.14,
3.973,-0.14,0.28,-0.02,0.06,0.15,0.14,
3.974,-0.14,0.28,-0.02,0.06,0.15,0.14,
3.98,-0.14,0.28,-0.02,0.04,0.15,0.13,
3.981,-0.14,0.28,-0.02,0.04,0.15,0.13,
3.982,-0.12,0.29,-0.01,0.04,0.15,0.13,
3.982,-0.12,0.29,-0.01,0.04,0.15,0.13,
3.99,-0.12,0.29,-0.01,0.01,0.15,0.10,
3.991,-0.12,0.29,-0.01,0.01,0.15,0.10,
3.991,-0.11,0.29,-0.01,0.01,0.15,0.10,
3.992,-0.11,0.29,-0.01,0.01,0.15,0.10,
4.0,-0.11,0.29,-0.01,-0.01,0.16,0.06,
4.001,-0.11,0.29,-0.01,-0.01,0.16,0.06,
4.001,-0.11,0.29,-0.02,-0.01,0.16,0.06,
4.002,-0.11,0.29,-0.02,-0.01,0.16,0.06,
4.009,-0.11,0.29,-0.02,-0.02,0.15,0.03,
4.01,-0.11,0.29,-0.02,-0.02,0.15,0.03,
4.01,-0.10,0.29,-0.02,-0.02,0.15,0.03,
4.011,-0.10,0.29,-0.02,-0.02,0.15,0.03,
4.018,-0.10,0.29,-0.02,-0.03,0.14,0.01,
4.02,-0.10,0.29,-0.02,-0.03,0.14,0.01,
4.02,-0.10,0.29,-0.02,-0.03,0.14,0.01,
4.021,-0.10,0.29,-0.02,-0.03,0.14,0.01,
4.028,-0.10,0.29,-0.02,-0.03,0.13,-0.01,
4.03,-0.10,0.29,-0.02,-0.03,0.13,-0.01,
4.031,-0.09,0.28,-0.02,-0.03,0.13,-0.01,
4.031,-0.09,0.28,-0.02,-0.03,0.13,-0.01,
4.038,-0.09,0.28,-0.02,-0.03,0.11,-0.01,
4.039,-0.09,0.28,-0.02,-0.03,0.11,-0.01,
4.04,-0.08,0.28,-0.03,-0.03,0.11,-0.01,
4.041,-0.08,0.28,-0.03,-0.03,0.11,-0.01,
4.047,-0.08,0.28,-0.03,-0.02,0.09,-0.01,
4.047,-0.08,0.28,-0.03,-0.02,0.09,-0.01,
4.048,-0.08,0.28,-0.03,-0.02,0.09,-0.01,
4.048,-0.08,0.28,-0.03,-0.02,0.09,-0.01,
4.059,-0.08,0.28,-0.03,-0.02,0.08,-0.01,
4.059,-0.08,0.28,-0.03,-0.02,0.08,-0.01,
4.06,-0.07,0.28,-0.03,-0.02,0.08,-0.01,
4.06,-0.07,0.28,-0.03,-0.02,0.08,-0.01,
4.067,-0.07,0.28,-0.03,-0.01,0.06,-0.01,
4.067,-0.07,0.28,-0.03,-0.01,0.06,-0.01,
4.068,-0.07,0.28,-0.04,-0.01,0.06,-0.01,
4.068,-0.07,0.28,-0.04,-0.01,0.06,-0.01,
4.075,-0.07,0.28,-0.04,-0.01,0.05,-0.00,
4.075,-0.07,0.28,-0.04,-0.01,0.05,-0.00,
4.075,-0.06,0.28,-0.04,-0.01,0.05,-0.00,
4.076,-0.06,0.28,-0.04,-0.01,0.05,-0.00,
4.085,-0.06,0.28,-0.04,-0.01,0.04,-0.00,
4.086,-0.06,0.28,-0.04,-0.01,0.04,-0.00,
4.086,-0.06,0.28,-0.04,-0.01,0.04,-0.00,
4.086,-0.06,0.28,-0.04,-0.01,0.04,-0.00,
4.095,-0.06,0.28,-0.04,-0.01,0.03,-0.00,
4.096,-0.06,0.28,-0.04,-0.01,0.03,-0.00,
4.096,-0.05,0.28,-0.04,-0.01,0.03,-0.00,
4.097,-0.05,0.28,-0.04,-0.01,0.03,-0.00,
4.104,-0.05,0.28,-0.04,-0.01,0.03,-0.00,
4.106,-0.05,0.28,-0.04,-0.01,0.03,-0.00,
4.106,-0.04,0.28,-0.04,-0.01,0.03,-0.00,
4.106,-0.04,0.28,-0.04,-0.01,0.03,-0.00,
4.114,-0.04,0.28,-0.04,-0.01,0.03,-0.00,
4.115,-0.04,0.28,-0.04,-0.01,0.03,-0.00,
4.115,-0.04,0.28,-0.04,-0.01,0.03,-0.00,
4.116,-0.04,0.28,-0.04,-0.01,0.03,-0.00,
4.123,-0.04,0.28,-0.04,-0.01,0.02,-0.00,
4.125,-0.04,0.28,-0.04,-0.01,0.02,-0.00,
4.125,-0.04,0.28,-0.05,-0.01,0.02,-0.00,
4.126,-0.04,0.28,-0.05,-0.01,0.02,-0.00,
4.134,-0.04,0.28,-0.05,-0.00,0.02,-0.00,
4.135,-0.04,0.28,-0.05,-0.00,0.02,-0.00,
4.135,-0.03,0.28,-0.05,-0.00,0.02,-0.00,
4.136,-0.03,0.28,-0.05,-0.00,0.02,-0.00,
4.142,-0.03,0.28,-0.05,-0.00,0.02,-0.00,
4.142,-0.03,0.28,-0.05,-0.00,0.02,-0.00,
4.143,-0.03,0.27,-0.05,-0.00,0.02,-0.00,
4.143,-0.03,0.27,-0.05,-0.00,0.02,-0.00,
4.151,-0.03,0.27,-0.05,-0.00,0.01,-0.00,
4.152,-0.03,0.27,-0.05,-0.00,0.01,-0.00,
4.153,-0.02,0.27,-0.05,-0.00,0.01,-0.00,
4.153,-0.02,0.27,-0.05,-0.00,0.01,-0.00,
4.161,-0.02,0.27,-0.05,-0.00,0.01,-0.00,
4.162,-0.02,0.27,-0.05,-0.00,0.01,-0.00,
4.162,-0.02,0.27,-0.05,-0.00,0.01,-0.00,
4.163,-0.02,0.27,-0.05,-0.00,0.01,-0.00,
4.172,-0.02,0.27,-0.05,-0.00,0.01,-0.00,
4.173,-0.02,0.27,-0.05,-0.00,0.01,-0.00,
4.174,-0.01,0.27,-0.05,-0.00,0.01,-0.00,
4.174,-0.01,0.27,-0.05,-0.00,0.01,-0.00,
4.18,-0.01,0.27,-0.05,-0.00,0.01,-0.00,
4.181,-0.01,0.27,-0.05,-0.00,0.01,-0.00,
4.181,-0.01,0.27,-0.05,-0.00,0.01,-0.00,
4.181,-0.01,0.27,-0.05,-0.00,0.01,-0.00,
4.19,-0.01,0.27,-0.05,-0.00,0.01,-0.00,
4.191,-0.01,0.27,-0.05,-0.00,0.01,-0.00,
4.192,-0.00,0.27,-0.05,-0.00,0.01,-0.00,
4.192,-0.00,0.27,-0.05,-0.00,0.01,-0.00,
4.2,-0.00,0.27,-0.05,-0.00,0.00,-0.00,
4.201,-0.00,0.27,-0.05,-0.00,0.00,-0.00,
4.201,0.00,0.27,-0.05,-0.00,0.00,-0.00,
4.201,0.00,0.27,-0.05,-0.00,0.00,-0.00,
4.209,0.00,0.27,-0.05,-0.00,-0.00,0.00,
4.209,0.00,0.27,-0.05,-0.00,-0.00,0.00,
4.21,0.01,0.27,-0.05,-0.00,-0.00,0.00,
4.211,0.01,0.27,-0.05,-0.00,-0.00,0.00,
4.218,0.01,0.27,-0.05,0.00,0.00,0.00,
4.219,0.01,0.27,-0.05,0.00,0.00,0.00,
4.22,0.01,0.27,-0.05,0.00,0.00,0.00,
4.22,0.01,0.27,-0.05,0.00,0.00,0.00,
4.228,0.01,0.27,-0.05,0.00,-0.00,0.00,
4.229,0.01,0.27,-0.05,0.00,-0.00,0.00,
4.229,0.01,0.27,-0.05,0.00,-0.00,0.00,
4.23,0.01,0.27,-0.05,0.00,-0.00,0.00,
4.237,0.01,0.27,-0.05,-0.00,-0.00,-0.00,
4.238,0.01,0.27,-0.05,-0.00,-0.00,-0.00,
4.239,0.16,0.10,-0.14,-0.00,-0.00,-0.00,
4.24,0.16,0.10,-0.14,-0.00,-0.00,-0.00,
4.246,0.16,0.10,-0.14,-0.00,0.00,0.00,
4.247,0.16,0.10,-0.14,-0.00,0.00,0.00,
4.248,0.26,0.07,-0.31,-0.00,0.00,0.00,
4.249,0.26,0.07,-0.31,-0.00,0.00,0.00,
4.256,0.26,0.07,-0.31,0.00,-0.00,0.00,
4.257,0.26,0.07,-0.31,0.00,-0.00,0.00,
4.259,0.35,0.03,-0.46,0.00,-0.00,0.00,
4.259,0.35,0.03,-0.46,0.00,-0.00,0.00,
4.27,0.35,0.03,-0.46,-0.00,-0.00,0.00,
4.271,0.35,0.03,-0.46,-0.00,-0.00,0.00,
4.271,0.42,-0.01,-0.62,-0.00,-0.00,0.00,
4.272,0.42,-0.01,-0.62,-0.00,-0.00,0.00,
4.277,0.42,-0.01,-0.62,-0.00,-0.00,-0.00,
4.278,0.42,-0.01,-0.62,-0.00,-0.00,-0.00,
4.278,0.51,-0.06,-0.79,-0.00,-0.00,-0.00,
4.279,0.51,-0.06,-0.79,-0.00,-0.00,-0.00,
4.284,0.51,-0.06,-0.79,-0.00,0.00,0.00,
4.285,0.51,-0.06,-0.79,-0.00,0.00,0.00,
4.285,0.59,-0.09,-0.90,-0.00,0.00,0.00,
4.286,0.59,-0.09,-0.90,-0.00,0.00,0.00,
4.294,0.59,-0.09,-0.90,-0.00,-0.00,0.00,
4.295,0.59,-0.09,-0.90,-0.00,-0.00,0.00,
4.295,0.72,-0.13,-0.97,-0.00,-0.00,0.00,
4.296,0.72,-0.13,-0.97,-0.00,-0.00,0.00,
4.303,0.72,-0.13,-0.97,-0.00,-0.00,0.00,
4.305,0.72,-0.13,-0.97,-0.00,-0.00,0.00,
4.305,0.72,-0.13,-0.97,-0.00,-0.00,0.00,
4.305,0.72,-0.13,-0.97,-0.00,-0.00,0.00,
4.313,0.72,-0.13,-0.97,-0.55,-0.53,-0.28,
4.314,0.72,-0.13,-0.97,-0.55,-0.53,-0.28,
4.314,0.98,-0.18,-1.05,-0.55,-0.53,-0.28,
4.315,0.98,-0.18,-1.05,-0.55,-0.53,-0.28,
4.325,0.98,-0.18,-1.05,-0.66,-0.64,-0.34,
4.326,0.98,-0.18,-1.05,-0.66,-0.64,-0.34,
4.327,1.13,-0.21,-1.16,-0.66,-0.64,-0.34,
4.329,1.13,-0.21,-1.16,-0.66,-0.64,-0.34,
4.334,1.13,-0.21,-1.16,-0.75,-0.73,-0.42,
4.336,1.13,-0.21,-1.16,-0.75,-0.73,-0.42,
4.337,1.29,-0.25,-1.31,-0.75,-0.73,-0.42,
4.339,1.29,-0.25,-1.31,-0.75,-0.73,-0.42,
4.341,1.29,-0.25,-1.31,-0.81,-0.81,-0.52,
4.344,1.29,-0.25,-1.31,-0.81,-0.81,-0.52,
4.345,1.43,-0.33,-1.54,-0.81,-0.81,-0.52,
4.346,1.43,-0.33,-1.54,-0.81,-0.81,-0.52,
4.351,1.43,-0.33,-1.54,-0.87,-0.88,-0.63,
4.354,1.43,-0.33,-1.54,-0.87,-0.88,-0.63,
4.355,1.57,-0.40,-1.83,-0.87,-0.88,-0.63,
4.358,1.57,-0.40,-1.83,-0.87,-0.88,-0.63,
4.36,1.57,-0.40,-1.83,-0.94,-0.94,-0.74,
4.361,1.57,-0.40,-1.83,-0.94,-0.94,-0.74,
4.361,1.67,-0.45,-2.11,-0.94,-0.94,-0.74,
4.362,1.67,-0.45,-2.11,-0.94,-0.94,-0.74,
4.37,1.67,-0.45,-2.11,-1.03,-1.02,-0.83,
4.371,1.67,-0.45,-2.11,-1.03,-1.02,-0.83,
4.372,1.71,-0.44,-2.35,-1.03,-1.02,-0.83,
4.372,1.71,-0.44,-2.35,-1.03,-1.02,-0.83,
4.38,1.71,-0.44,-2.35,-1.15,-1.09,-0.91,
4.381,1.71,-0.44,-2.35,-1.15,-1.09,-0.91,
4.381,1.73,-0.34,-2.54,-1.15,-1.09,-0.91,
4.382,1.73,-0.34,-2.54,-1.15,-1.09,-0.91,
4.39,1.73,-0.34,-2.54,-1.27,-1.16,-0.96,
4.391,1.73,-0.34,-2.54,-1.27,-1.16,-0.96,
4.391,1.75,-0.18,-2.71,-1.27,-1.16,-0.96,
4.392,1.75,-0.18,-2.71,-1.27,-1.16,-0.96,
4.408,1.75,-0.18,-2.71,-1.39,-1.20,-0.98,
4.409,1.75,-0.18,-2.71,-1.39,-1.20,-0.98,
4.409,1.74,0.06,-2.89,-1.39,-1.20,-0.98,
4.41,1.74,0.06,-2.89,-1.39,-1.20,-0.98,
4.41,1.74,0.06,-2.89,-1.49,-1.17,-0.97,
4.411,1.74,0.06,-2.89,-1.49,-1.17,-0.97,
4.411,1.79,0.33,-3.12,-1.49,-1.17,-0.97,
4.412,1.79,0.33,-3.12,-1.49,-1.17,-0.97,
4.418,1.79,0.33,-3.12,-1.58,-1.10,-0.95,
4.419,1.79,0.33,-3.12,-1.58,-1.10,-0.95,
4.419,1.87,0.58,-3.34,-1.58,-1.10,-0.95,
4.419,1.87,0.58,-3.34,-1.58,-1.10,-0.95,
4.427,1.87,0.58,-3.34,-1.65,-1.01,-0.91,
4.428,1.87,0.58,-3.34,-1.65,-1.01,-0.91,
4.429,1.89,0.76,-3.50,-1.65,-1.01,-0.91,
4.429,1.89,0.76,-3.50,-1.65,-1.01,-0.91,
4.437,1.89,0.76,-3.50,-1.73,-0.93,-0.89,
4.438,1.89,0.76,-3.50,-1.73,-0.93,-0.89,
4.439,1.86,0.76,-3.57,-1.73,-0.93,-0.89,
4.44,1.86,0.76,-3.57,-1.73,-0.93,-0.89,
4.447,1.86,0.76,-3.57,-1.81,-0.87,-0.87,
4.448,1.86,0.76,-3.57,-1.81,-0.87,-0.87,
4.449,1.74,0.53,-3.52,-1.81,-0.87,-0.87,
4.449,1.74,0.53,-3.52,-1.81,-0.87,-0.87,
4.456,1.74,0.53,-3.52,-1.87,-0.81,-0.84,
4.457,1.74,0.53,-3.52,-1.87,-0.81,-0.84,
4.458,1.50,0.05,-3.43,-1.87,-0.81,-0.84,
4.459,1.50,0.05,-3.43,-1.87,-0.81,-0.84,
4.47,1.50,0.05,-3.43,-1.88,-0.70,-0.78,
4.471,1.50,0.05,-3.43,-1.88,-0.70,-0.78,
4.472,1.21,-1.52,-3.40,-1.88,-0.70,-0.78,
4.473,1.21,-1.52,-3.40,-1.88,-0.70,-0.78,
4.474,1.21,-1.52,-3.40,-1.82,-0.51,-0.65,
4.476,1.21,-1.52,-3.40,-1.82,-0.51,-0.65,
4.477,0.90,-3.08,-3.64,-1.82,-0.51,-0.65,
4.478,0.90,-3.08,-3.64,-1.82,-0.51,-0.65,
4.487,0.90,-3.08,-3.64,-1.69,-0.22,-0.43,
4.488,0.90,-3.08,-3.64,-1.69,-0.22,-0.43,
4.488,0.62,-4.94,-5.40,-1.69,-0.22,-0.43,
4.489,0.62,-4.94,-5.40,-1.69,-0.22,-0.43,
4.494,0.62,-4.94,-5.40,-1.54,0.11,-0.14,
4.494,0.62,-4.94,-5.40,-1.54,0.11,-0.14,
4.495,0.44,-6.64,-5.75,-1.54,0.11,-0.14,
4.495,0.44,-6.64,-5.75,-1.54,0.11,-0.14,
4.503,0.44,-6.64,-5.75,-1.54,0.11,-0.14,
4.504,0.44,-6.64,-5.75,-1.54,0.11,-0.14,
4.505,0.44,-6.64,-5.75,-1.54,0.11,-0.14,
4.505,0.44,-6.64,-5.75,-1.54,0.11,-0.14,
4.513,0.44,-6.64,-5.75,-1.47,0.37,0.17,
4.514,0.44,-6.64,-5.75,-1.47,0.37,0.17,
4.514,0.92,-7.58,-7.32,-1.47,0.37,0.17,
4.514,0.92,-7.58,-7.32,-1.47,0.37,0.17,
4.522,0.92,-7.58,-7.32,-1.53,0.48,0.41,
4.523,0.92,-7.58,-7.32,-1.53,0.48,0.41,
4.524,1.39,-7.50,-7.00,-1.53,0.48,0.41,
4.524,1.39,-7.50,-7.00,-1.53,0.48,0.41,
4.533,1.39,-7.50,-7.00,-1.66,0.44,0.50,
4.533,1.39,-7.50,-7.00,-1.66,0.44,0.50,
4.534,1.78,-7.03,-5.26,-1.66,0.44,0.50,
4.534,1.78,-7.03,-5.26,-1.66,0.44,0.50,
4.541,1.78,-7.03,-5.26,-1.74,0.34,0.45,
4.542,1.78,-7.03,-5.26,-1.74,0.34,0.45,
4.543,1.78,-5.46,-4.78,-1.74,0.34,0.45,
4.543,1.78,-5.46,-4.78,-1.74,0.34,0.45,
4.551,1.78,-5.46,-4.78,-1.67,0.28,0.30,
4.552,1.78,-5.46,-4.78,-1.67,0.28,0.30,
4.552,1.20,-4.96,-4.14,-1.67,0.28,0.30,
4.553,1.20,-4.96,-4.14,-1.67,0.28,0.30,
4.561,1.20,-4.96,-4.14,-1.45,0.32,0.15,
4.561,1.20,-4.96,-4.14,-1.45,0.32,0.15,
4.562,-0.61,-4.34,-3.65,-1.45,0.32,0.15,
4.563,-0.61,-4.34,-3.65,-1.45,0.32,0.15,
4.571,-0.61,-4.34,-3.65,-1.14,0.44,0.10,
4.572,-0.61,-4.34,-3.65,-1.14,0.44,0.10,
4.573,-1.20,-3.72,-3.35,-1.14,0.44,0.10,
4.574,-1.20,-3.72,-3.35,-1.14,0.44,0.10,
4.58,-1.20,-3.72,-3.35,-0.83,0.64,0.24,
4.581,-1.20,-3.72,-3.35,-0.83,0.64,0.24,
4.581,-1.72,-3.20,-3.14,-0.83,0.64,0.24,
4.582,-1.72,-3.20,-3.14,-0.83,0.64,0.24,
4.589,-1.72,-3.20,-3.14,-0.56,0.91,0.57,
4.59,-1.72,-3.20,-3.14,-0.56,0.91,0.57,
4.591,-1.84,-2.76,-2.92,-0.56,0.91,0.57,
4.591,-1.84,-2.76,-2.92,-0.56,0.91,0.57,
4.6,-1.84,-2.76,-2.92,-0.33,1.20,1.00,
4.601,-1.84,-2.76,-2.92,-0.33,1.20,1.00,
4.601,-1.50,-2.38,-2.71,-0.33,1.20,1.00,
4.602,-1.50,-2.38,-2.71,-0.33,1.20,1.00,
4.608,-1.50,-2.38,-2.71,-0.15,1.43,1.39,
4.609,-1.50,-2.38,-2.71,-0.15,1.43,1.39,
4.609,0.07,-2.02,-2.62,-0.15,1.43,1.39,
4.61,0.07,-2.02,-2.62,-0.15,1.43,1.39,
4.618,0.07,-2.02,-2.62,-0.03,1.32,1.59,
4.619,0.07,-2.02,-2.62,-0.03,1.32,1.59,
4.619,1.83,-1.73,-2.90,-0.03,1.32,1.59,
4.62,1.83,-1.73,-2.90,-0.03,1.32,1.59,
4.628,1.83,-1.73,-2.90,0.04,1.08,1.50,
4.629,1.83,-1.73,-2.90,0.04,1.08,1.50,
4.629,2.14,-1.44,-4.60,0.04,1.08,1.50,
4.63,2.14,-1.44,-4.60,0.04,1.08,1.50,
4.637,2.14,-1.44,-4.60,-0.01,0.89,1.05,
4.638,2.14,-1.44,-4.60,-0.01,0.89,1.05,
4.639,2.53,-1.18,-4.85,-0.01,0.89,1.05,
4.64,2.53,-1.18,-4.85,-0.01,0.89,1.05,
4.647,2.53,-1.18,-4.85,-0.23,0.57,0.35,
4.648,2.53,-1.18,-4.85,-0.23,0.57,0.35,
4.649,2.65,-0.94,-5.16,-0.23,0.57,0.35,
4.649,2.65,-0.94,-5.16,-0.23,0.57,0.35,
4.657,2.65,-0.94,-5.16,-0.62,0.20,-0.42,
4.658,2.65,-0.94,-5.16,-0.62,0.20,-0.42,
4.659,2.48,-0.64,-4.97,-0.62,0.20,-0.42,
4.66,2.48,-0.64,-4.97,-0.62,0.20,-0.42,
4.67,2.48,-0.64,-4.97,-1.06,-0.12,-1.08,
4.671,2.48,-0.64,-4.97,-1.06,-0.12,-1.08,
4.671,2.01,-0.28,-2.96,-1.06,-0.12,-1.08,
4.672,2.01,-0.28,-2.96,-1.06,-0.12,-1.08,
4.674,2.01,-0.28,-2.96,-1.39,-0.36,-1.54,
4.675,2.01,-0.28,-2.96,-1.39,-0.36,-1.54,
4.676,1.41,0.24,-1.08,-1.39,-0.36,-1.54,
4.676,1.41,0.24,-1.08,-1.39,-0.36,-1.54,
4.684,1.41,0.24,-1.08,-1.47,-0.45,-1.79,
4.685,1.41,0.24,-1.08,-1.47,-0.45,-1.79,
4.685,0.81,1.70,-0.50,-1.47,-0.45,-1.79,
4.685,0.81,1.70,-0.50,-1.47,-0.45,-1.79,
4.695,0.81,1.70,-0.50,-1.23,-0.40,-1.79,
4.696,0.81,1.70,-0.50,-1.23,-0.40,-1.79,
4.696,0.27,2.21,0.16,-1.23,-0.40,-1.79,
4.697,0.27,2.21,0.16,-1.23,-0.40,-1.79,
4.704,0.27,2.21,0.16,-1.23,-0.40,-1.79,
4.705,0.27,2.21,0.16,-1.23,-0.40,-1.79,
4.705,0.27,2.21,0.16,-1.23,-0.40,-1.79,
4.706,0.27,2.21,0.16,-1.23,-0.40,-1.79,
4.713,0.27,2.21,0.16,-0.77,-0.28,-1.61,
4.714,0.27,2.21,0.16,-0.77,-0.28,-1.61,
4.715,-0.61,4.27,0.77,-0.77,-0.28,-1.61,
4.715,-0.61,4.27,0.77,-0.77,-0.28,-1.61,
4.723,-0.61,4.27,0.77,-0.24,-0.17,-1.29,
4.724,-0.61,4.27,0.77,-0.24,-0.17,-1.29,
4.725,-1.01,4.89,0.95,-0.24,-0.17,-1.29,
4.725,-1.01,4.89,0.95,-0.24,-0.17,-1.29,
4.733,-1.01,4.89,0.95,0.22,-0.10,-0.89,
4.734,-1.01,4.89,0.95,0.22,-0.10,-0.89,
4.735,-1.34,5.51,1.10,0.22,-0.10,-0.89,
4.735,-1.34,5.51,1.10,0.22,-0.10,-0.89,
4.742,-1.34,5.51,1.10,0.57,-0.08,-0.40,
4.742,-1.34,5.51,1.10,0.57,-0.08,-0.40,
4.743,-1.54,6.08,1.23,0.57,-0.08,-0.40,
4.743,-1.54,6.08,1.23,0.57,-0.08,-0.40,
4.751,-1.54,6.08,1.23,0.82,-0.08,0.14,
4.751,-1.54,6.08,1.23,0.82,-0.08,0.14,
4.752,-1.57,6.54,1.35,0.82,-0.08,0.14,
4.754,-1.57,6.54,1.35,0.82,-0.08,0.14,
4.76,-1.57,6.54,1.35,0.97,-0.12,0.68,
4.761,-1.57,6.54,1.35,0.97,-0.12,0.68,
4.762,-1.44,6.88,1.42,0.97,-0.12,0.68,
4.762,-1.44,6.88,1.42,0.97,-0.12,0.68,
4.77,-1.44,6.88,1.42,1.05,-0.19,1.19,
4.77,-1.44,6.88,1.42,1.05,-0.19,1.19,
4.771,-1.27,7.15,1.45,1.05,-0.19,1.19,
4.771,-1.27,7.15,1.45,1.05,-0.19,1.19,
4.779,-1.27,7.15,1.45,1.06,-0.28,1.61,
4.78,-1.27,7.15,1.45,1.06,-0.28,1.61,
4.78,-1.07,7.34,1.42,1.06,-0.28,1.61,
4.781,-1.07,7.34,1.42,1.06,-0.28,1.61,
4.789,-1.07,7.34,1.42,1.01,-0.38,1.90,
4.79,-1.07,7.34,1.42,1.01,-0.38,1.90,
4.791,-0.89,7.45,1.25,1.01,-0.38,1.90,
4.791,-0.89,7.45,1.25,1.01,-0.38,1.90,
4.798,-0.89,7.45,1.25,0.87,-0.48,2.03,
4.799,-0.89,7.45,1.25,0.87,-0.48,2.03,
4.799,-0.77,7.51,1.00,0.87,-0.48,2.03,
4.8,-0.77,7.51,1.00,0.87,-0.48,2.03,
4.821,-0.77,7.51,1.00,0.60,-0.56,2.01,
4.822,-0.77,7.51,1.00,0.60,-0.56,2.01,
4.823,-0.69,7.53,0.61,0.60,-0.56,2.01,
4.823,-0.69,7.53,0.61,0.60,-0.56,2.01,
4.824,-0.69,7.53,0.61,0.15,-0.61,1.72,
4.824,-0.69,7.53,0.61,0.15,-0.61,1.72,
4.825,-0.69,7.49,0.19,0.15,-0.61,1.72,
4.825,-0.69,7.49,0.19,0.15,-0.61,1.72,
4.827,-0.69,7.49,0.19,-0.54,-0.68,1.35,
4.828,-0.69,7.49,0.19,-0.54,-0.68,1.35,
4.828,-0.77,7.42,-0.28,-0.54,-0.68,1.35,
4.829,-0.77,7.42,-0.28,-0.54,-0.68,1.35,
4.837,-0.77,7.42,-0.28,-1.49,-0.82,1.08,
4.838,-0.77,7.42,-0.28,-1.49,-0.82,1.08,
4.838,-0.92,7.24,-0.80,-1.49,-0.82,1.08,
4.838,-0.92,7.24,-0.80,-1.49,-0.82,1.08,
4.846,-0.92,7.24,-0.80,-2.65,-0.99,0.80,
4.847,-0.92,7.24,-0.80,-2.65,-0.99,0.80,
4.847,-1.09,6.96,-1.27,-2.65,-0.99,0.80,
4.848,-1.09,6.96,-1.27,-2.65,-0.99,0.80,
4.855,-1.09,6.96,-1.27,-3.89,-1.23,0.53,
4.856,-1.09,6.96,-1.27,-3.89,-1.23,0.53,
4.856,-1.24,6.57,-1.78,-3.89,-1.23,0.53,
4.857,-1.24,6.57,-1.78,-3.89,-1.23,0.53,
4.871,-1.24,6.57,-1.78,-5.00,-1.52,0.29,
4.872,-1.24,6.57,-1.78,-5.00,-1.52,0.29,
4.873,-1.29,6.14,-2.24,-5.00,-1.52,0.29,
4.873,-1.29,6.14,-2.24,-5.00,-1.52,0.29,
4.875,-1.29,6.14,-2.24,-5.79,-1.80,0.04,
4.875,-1.29,6.14,-2.24,-5.79,-1.80,0.04,
4.876,-1.31,5.71,-2.61,-5.79,-1.80,0.04,
4.877,-1.31,5.71,-2.61,-5.79,-1.80,0.04,
4.888,-1.31,5.71,-2.61,-6.16,-2.02,-0.22,
4.889,-1.31,5.71,-2.61,-6.16,-2.02,-0.22,
4.889,-1.31,5.32,-2.93,-6.16,-2.02,-0.22,
4.889,-1.31,5.32,-2.93,-6.16,-2.02,-0.22,
4.894,-1.31,5.32,-2.93,-6.16,-2.02,-0.22,
4.895,-1.31,5.32,-2.93,-6.16,-2.02,-0.22,
4.896,-1.31,5.32,-2.93,-6.16,-2.02,-0.22,
4.896,-1.31,5.32,-2.93,-6.16,-2.02,-0.22,
4.904,-1.31,5.32,-2.93,-6.11,-2.12,-0.50,
4.906,-1.31,5.32,-2.93,-6.11,-2.12,-0.50,
4.906,-1.43,4.89,-3.30,-6.11,-2.12,-0.50,
4.907,-1.43,4.89,-3.30,-6.11,-2.12,-0.50,
4.913,-1.43,4.89,-3.30,-5.75,-2.09,-0.74,
4.914,-1.43,4.89,-3.30,-5.75,-2.09,-0.74,
4.914,-1.50,4.78,-3.32,-5.75,-2.09,-0.74,
4.915,-1.50,4.78,-3.32,-5.75,-2.09,-0.74,
4.922,-1.50,4.78,-3.32,-5.20,-1.97,-0.88,
4.923,-1.50,4.78,-3.32,-5.20,-1.97,-0.88,
4.924,-1.61,4.69,-3.25,-5.20,-1.97,-0.88,
4.925,-1.61,4.69,-3.25,-5.20,-1.97,-0.88,
4.933,-1.61,4.69,-3.25,-4.56,-1.81,-0.92,
4.934,-1.61,4.69,-3.25,-4.56,-1.81,-0.92,
4.935,-1.80,4.57,-3.12,-4.56,-1.81,-0.92,
4.935,-1.80,4.57,-3.12,-4.56,-1.81,-0.92,
4.941,-1.80,4.57,-3.12,-3.92,-1.65,-0.84,
4.943,-1.80,4.57,-3.12,-3.92,-1.65,-0.84,
4.943,-2.04,4.45,-2.96,-3.92,-1.65,-0.84,
4.943,-2.04,4.45,-2.96,-3.92,-1.65,-0.84,
4.951,-2.04,4.45,-2.96,-3.29,-1.50,-0.66,
4.952,-2.04,4.45,-2.96,-3.29,-1.50,-0.66,
4.953,-2.48,4.22,-3.22,-3.29,-1.50,-0.66,
4.953,-2.48,4.22,-3.22,-3.29,-1.50,-0.66,
4.961,-2.48,4.22,-3.22,-2.69,-1.37,-0.38,
4.962,-2.48,4.22,-3.22,-2.69,-1.37,-0.38,
4.963,-4.05,3.66,-7.58,-2.69,-1.37,-0.38,
4.965,-4.05,3.66,-7.58,-2.69,-1.37,-0.38,
4.977,-4.05,3.66,-7.58,-2.26,-1.33,-0.04,
4.977,-4.05,3.66,-7.58,-2.26,-1.33,-0.04,
4.978,-4.55,1.55,-12.14,-2.26,-1.33,-0.04,
4.978,-4.55,1.55,-12.14,-2.26,-1.33,-0.04,
4.979,-4.55,1.55,-12.14,-2.24,-1.46,0.16,
4.979,-4.55,1.55,-12.14,-2.24,-1.46,0.16,
4.98,-4.69,-0.60,-12.68,-2.24,-1.46,0.16,
4.98,-4.69,-0.60,-12.68,-2.24,-1.46,0.16,
4.997,-4.69,-0.60,-12.68,-2.58,-1.42,0.04,
4.998,-4.69,-0.60,-12.68,-2.58,-1.42,0.04,
4.998,-4.30,-2.95,-12.56,-2.58,-1.42,0.04,
4.998,-4.30,-2.95,-12.56,-2.58,-1.42,0.04,
4.999,-4.30,-2.95,-12.56,-2.79,-1.14,-0.25,
4.999,-4.30,-2.95,-12.56,-2.79,-1.14,-0.25,
5.0,-3.73,-5.08,-9.52,-2.79,-1.14,-0.25,
5.0,-3.73,-5.08,-9.52,-2.79,-1.14,-0.25,
5.008,-3.73,-5.08,-9.52,-2.40,-0.84,-0.33,
5.009,-3.73,-5.08,-9.52,-2.40,-0.84,-0.33,
5.009,-1.26,-5.29,-4.42,-2.40,-0.84,-0.33,
5.01,-1.26,-5.29,-4.42,-2.40,-0.84,-0.33,
5.017,-1.26,-5.29,-4.42,-1.35,-0.33,-0.04,
5.018,-1.26,-5.29,-4.42,-1.35,-0.33,-0.04,
5.018,0.25,-3.57,-2.09,-1.35,-0.33,-0.04,
5.019,0.25,-3.57,-2.09,-1.35,-0.33,-0.04,
5.027,0.25,-3.57,-2.09,0.07,0.39,0.40,
5.028,0.25,-3.57,-2.09,0.07,0.39,0.40,
5.029,-0.01,-0.90,-1.43,0.07,0.39,0.40,
5.029,-0.01,-0.90,-1.43,0.07,0.39,0.40,
5.037,-0.01,-0.90,-1.43,1.46,1.11,0.69,
5.038,-0.01,-0.90,-1.43,1.46,1.11,0.69,
5.039,-0.33,2.27,0.47,1.46,1.11,0.69,
5.039,-0.33,2.27,0.47,1.46,1.11,0.69,
5.046,-0.33,2.27,0.47,2.47,1.62,0.74,
5.047,-0.33,2.27,0.47,2.47,1.62,0.74,
5.047,-1.79,3.79,2.55,2.47,1.62,0.74,
5.048,-1.79,3.79,2.55,2.47,1.62,0.74,
5.055,-1.79,3.79,2.55,2.99,1.88,0.75,
5.056,-1.79,3.79,2.55,2.99,1.88,0.75,
5.057,-2.06,5.44,5.06,2.99,1.88,0.75,
5.058,-2.06,5.44,5.06,2.99,1.88,0.75,
5.07,-2.06,5.44,5.06,3.21,1.95,1.01,
5.071,-2.06,5.44,5.06,3.21,1.95,1.01,
5.072,-1.70,5.33,8.10,3.21,1.95,1.01,
5.072,-1.70,5.33,8.10,3.21,1.95,1.01,
5.075,-1.70,5.33,8.10,3.28,1.86,1.67,
5.076,-1.70,5.33,8.10,3.28,1.86,1.67,
5.077,0.03,4.80,10.15,3.28,1.86,1.67,
5.077,0.03,4.80,10.15,3.28,1.86,1.67,
5.085,0.03,4.80,10.15,3.95,1.71,2.16,
5.086,0.03,4.80,10.15,3.95,1.71,2.16,
5.086,0.44,2.50,10.40,3.95,1.71,2.16,
5.086,0.44,2.50,10.40,3.95,1.71,2.16,
5.094,0.44,2.50,10.40,3.95,1.71,2.16,
5.095,0.44,2.50,10.40,3.95,1.71,2.16,
5.096,0.44,2.50,10.40,3.95,1.71,2.16,
5.097,0.44,2.50,10.40,3.95,1.71,2.16,
5.103,0.44,2.50,10.40,5.76,1.97,2.60,
5.105,0.44,2.50,10.40,5.76,1.97,2.60,
5.106,0.58,-4.93,5.80,5.76,1.97,2.60,
5.107,0.58,-4.93,5.80,5.76,1.97,2.60,
5.112,0.58,-4.93,5.80,8.04,2.33,2.75,
5.113,0.58,-4.93,5.80,8.04,2.33,2.75,
5.113,0.65,-8.47,3.31,8.04,2.33,2.75,
5.114,0.65,-8.47,3.31,8.04,2.33,2.75,
5.122,0.65,-8.47,3.31,9.42,2.19,1.79,
5.123,0.65,-8.47,3.31,9.42,2.19,1.79,
5.124,1.01,-10.38,1.31,9.42,2.19,1.79,
5.125,1.01,-10.38,1.31,9.42,2.19,1.79,
5.133,1.01,-10.38,1.31,8.87,1.82,0.42,
5.134,1.01,-10.38,1.31,8.87,1.82,0.42,
5.134,1.60,-12.23,1.03,8.87,1.82,0.42,
5.135,1.60,-12.23,1.03,8.87,1.82,0.42,
5.141,1.60,-12.23,1.03,6.98,1.51,-0.69,
5.142,1.60,-12.23,1.03,6.98,1.51,-0.69,
5.143,2.22,-12.29,0.86,6.98,1.51,-0.69,
5.144,2.22,-12.29,0.86,6.98,1.51,-0.69,
5.15,2.22,-12.29,0.86,4.97,1.26,-1.40,
5.151,2.22,-12.29,0.86,4.97,1.26,-1.40,
5.152,2.73,-10.03,1.21,4.97,1.26,-1.40,
5.152,2.73,-10.03,1.21,4.97,1.26,-1.40,
5.161,2.73,-10.03,1.21,3.38,1.07,-1.79,
5.162,2.73,-10.03,1.21,3.38,1.07,-1.79,
5.164,2.90,-7.41,2.84,3.38,1.07,-1.79,
5.165,2.90,-7.41,2.84,3.38,1.07,-1.79,
5.178,2.90,-7.41,2.84,2.28,0.92,-2.00,
5.179,2.90,-7.41,2.84,2.28,0.92,-2.00,
5.179,2.75,-5.13,4.76,2.28,0.92,-2.00,
5.179,2.75,-5.13,4.76,2.28,0.92,-2.00,
5.18,2.75,-5.13,4.76,1.57,0.82,-2.07,
5.18,2.75,-5.13,4.76,1.57,0.82,-2.07,
5.181,2.41,-3.24,5.01,1.57,0.82,-2.07,
5.181,2.41,-3.24,5.01,1.57,0.82,-2.07,
5.199,2.41,-3.24,5.01,1.21,0.78,-2.03,
5.2,2.41,-3.24,5.01,1.21,0.78,-2.03,
5.201,2.04,-2.74,5.36,1.21,0.78,-2.03,
5.201,2.04,-2.74,5.36,1.21,0.78,-2.03,
5.201,2.04,-2.74,5.36,1.09,0.82,-1.90,
5.201,2.04,-2.74,5.36,1.09,0.82,-1.90,
5.202,1.76,-2.13,5.67,1.09,0.82,-1.90,
5.202,1.76,-2.13,5.67,1.09,0.82,-1.90,
5.208,1.76,-2.13,5.67,1.11,0.91,-1.69,
5.208,1.76,-2.13,5.67,1.11,0.91,-1.69,
5.209,1.57,-1.67,5.88,1.11,0.91,-1.69,
5.209,1.57,-1.67,5.88,1.11,0.91,-1.69,
5.217,1.57,-1.67,5.88,1.18,1.01,-1.42,
5.218,1.57,-1.67,5.88,1.18,1.01,-1.42,
5.218,1.60,-1.44,5.92,1.18,1.01,-1.42,
5.219,1.60,-1.44,5.92,1.18,1.01,-1.42,
5.227,1.60,-1.44,5.92,1.27,1.09,-1.13,
5.228,1.60,-1.44,5.92,1.27,1.09,-1.13,
5.229,1.87,-1.46,5.70,1.27,1.09,-1.13,
5.229,1.87,-1.46,5.70,1.27,1.09,-1.13,
5.236,1.87,-1.46,5.70,1.35,1.14,-0.87,
5.237,1.87,-1.46,5.70,1.35,1.14,-0.87,
5.238,2.29,-1.63,5.24,1.35,1.14,-0.87,
5.239,2.29,-1.63,5.24,1.35,1.14,-0.87,
5.246,2.29,-1.63,5.24,1.40,1.14,-0.69,
5.248,2.29,-1.63,5.24,1.40,1.14,-0.69,
5.248,3.91,-1.85,4.71,1.40,1.14,-0.69,
5.249,3.91,-1.85,4.71,1.40,1.14,-0.69,
5.255,3.91,-1.85,4.71,1.38,1.02,-0.68,
5.256,3.91,-1.85,4.71,1.38,1.02,-0.68,
5.257,4.13,-2.11,4.20,1.38,1.02,-0.68,
5.257,4.13,-2.11,4.20,1.38,1.02,-0.68,
5.269,4.13,-2.11,4.20,1.25,0.75,-0.90,
5.27,4.13,-2.11,4.20,1.25,0.75,-0.90,
5.27,4.53,-2.34,3.77,1.25,0.75,-0.90,
5.271,4.53,-2.34,3.77,1.25,0.75,-0.90,
5.275,4.53,-2.34,3.77,1.04,0.31,-1.31,
5.276,4.53,-2.34,3.77,1.04,0.31,-1.31,
5.276,4.92,-2.46,3.48,1.04,0.31,-1.31,
5.276,4.92,-2.46,3.48,1.04,0.31,-1.31,
5.289,4.92,-2.46,3.48,1.04,0.31,-1.31,
5.29,4.92,-2.46,3.48,1.04,0.31,-1.31,
5.29,4.92,-2.46,3.48,1.04,0.31,-1.31,
5.29,4.92,-2.46,3.48,1.04,0.31,-1.31,
5.294,4.92,-2.46,3.48,0.80,-0.23,-1.80,
5.294,4.92,-2.46,3.48,0.80,-0.23,-1.80,
5.294,5.15,-2.20,3.52,0.80,-0.23,-1.80,
5.295,5.15,-2.20,3.52,0.80,-0.23,-1.80,
5.303,5.15,-2.20,3.52,0.59,-0.76,-2.23,
5.304,5.15,-2.20,3.52,0.59,-0.76,-2.23,
5.305,4.83,-1.70,3.61,0.59,-0.76,-2.23,
5.305,4.83,-1.70,3.61,0.59,-0.76,-2.23,
5.313,4.83,-1.70,3.61,0.45,-0.83,-2.54,
5.314,4.83,-1.70,3.61,0.45,-0.83,-2.54,
5.314,4.32,-1.09,3.70,0.45,-0.83,-2.54,
5.315,4.32,-1.09,3.70,0.45,-0.83,-2.54,
5.323,4.32,-1.09,3.70,0.40,-0.82,-2.70,
5.324,4.32,-1.09,3.70,0.40,-0.82,-2.70,
5.325,3.69,-0.48,3.66,0.40,-0.82,-2.70,
5.325,3.69,-0.48,3.66,0.40,-0.82,-2.70,
5.332,3.69,-0.48,3.66,0.41,-1.09,-2.70,
5.333,3.69,-0.48,3.66,0.41,-1.09,-2.70,
5.334,3.00,0.11,3.43,0.41,-1.09,-2.70,
5.334,3.00,0.11,3.43,0.41,-1.09,-2.70,
5.341,3.00,0.11,3.43,0.46,-1.21,-2.53,
5.342,3.00,0.11,3.43,0.46,-1.21,-2.53,
5.343,1.21,0.63,3.13,0.46,-1.21,-2.53,
5.343,1.21,0.63,3.13,0.46,-1.21,-2.53,
5.35,1.21,0.63,3.13,0.48,-1.22,-2.16,
5.352,1.21,0.63,3.13,0.48,-1.22,-2.16,
5.354,0.88,1.06,2.75,0.48,-1.22,-2.16,
5.355,0.88,1.06,2.75,0.48,-1.22,-2.16,
5.36,0.88,1.06,2.75,0.44,-1.12,-1.59,
5.361,0.88,1.06,2.75,0.44,-1.12,-1.59,
5.361,0.41,1.42,2.41,0.44,-1.12,-1.59,
5.362,0.41,1.42,2.41,0.44,-1.12,-1.59,
5.37,0.41,1.42,2.41,0.38,-0.94,-0.86,
5.371,0.41,1.42,2.41,0.38,-0.94,-0.86,
5.372,-0.07,1.68,2.09,0.38,-0.94,-0.86,
5.372,-0.07,1.68,2.09,0.38,-0.94,-0.86,
5.379,-0.07,1.68,2.09,0.36,-0.71,-0.07,
5.38,-0.07,1.68,2.09,0.36,-0.71,-0.07,
5.381,-0.47,1.86,1.77,0.36,-0.71,-0.07,
5.381,-0.47,1.86,1.77,0.36,-0.71,-0.07,
5.393,-0.47,1.86,1.77,0.37,-0.45,0.66,
5.394,-0.47,1.86,1.77,0.37,-0.45,0.66,
5.394,-0.68,1.98,1.51,0.37,-0.45,0.66,
5.395,-0.68,1.98,1.51,0.37,-0.45,0.66,
5.4,-0.68,1.98,1.51,0.36,-0.39,1.31,
5.401,-0.68,1.98,1.51,0.36,-0.39,1.31,
5.401,-0.77,2.04,1.36,0.36,-0.39,1.31,
5.402,-0.77,2.04,1.36,0.36,-0.39,1.31,
5.408,-0.77,2.04,1.36,0.20,-0.28,1.87,
5.409,-0.77,2.04,1.36,0.20,-0.28,1.87,
5.409,-0.77,2.01,1.42,0.20,-0.28,1.87,
5.41,-0.77,2.01,1.42,0.20,-0.28,1.87,
5.418,-0.77,2.01,1.42,-0.07,0.05,2.29,
5.419,-0.77,2.01,1.42,-0.07,0.05,2.29,
5.419,-0.70,1.89,1.67,-0.07,0.05,2.29,
5.42,-0.70,1.89,1.67,-0.07,0.05,2.29,
5.427,-0.70,1.89,1.67,-0.22,0.36,2.54,
5.428,-0.70,1.89,1.67,-0.22,0.36,2.54,
5.428,-0.50,1.75,2.10,-0.22,0.36,2.54,
5.429,-0.50,1.75,2.10,-0.22,0.36,2.54,
5.436,-0.50,1.75,2.10,-0.19,0.67,2.64,
5.437,-0.50,1.75,2.10,-0.19,0.67,2.64,
5.438,-0.18,1.64,2.52,-0.19,0.67,2.64,
5.439,-0.18,1.64,2.52,-0.19,0.67,2.64,
5.445,-0.18,1.64,2.52,-0.16,0.96,2.56,
5.446,-0.18,1.64,2.52,-0.16,0.96,2.56,
5.447,0.24,1.56,2.78,-0.16,0.96,2.56,
5.447,0.24,1.56,2.78,-0.16,0.96,2.56,
5.455,0.24,1.56,2.78,0.06,0.84,2.30,
5.456,0.24,1.56,2.78,0.06,0.84,2.30,
5.457,0.69,1.53,2.87,0.06,0.84,2.30,
5.458,0.69,1.53,2.87,0.06,0.84,2.30,
5.471,0.69,1.53,2.87,0.60,0.65,1.86,
5.472,0.69,1.53,2.87,0.60,0.65,1.86,
5.473,1.02,1.51,2.77,0.60,0.65,1.86,
5.473,1.02,1.51,2.77,0.60,0.65,1.86,
5.474,1.02,1.51,2.77,1.11,0.65,1.29,
5.475,1.02,1.51,2.77,1.11,0.65,1.29,
5.476,1.18,1.44,2.58,1.11,0.65,1.29,
5.476,1.18,1.44,2.58,1.11,0.65,1.29,
5.486,1.18,1.44,2.58,1.11,0.65,1.29,
5.486,1.18,1.44,2.58,1.11,0.65,1.29,
5.487,1.18,1.44,2.58,1.11,0.65,1.29,
5.487,1.18,1.44,2.58,1.11,0.65,1.29,
5.493,1.18,1.44,2.58,1.51,0.49,0.66,
5.494,1.18,1.44,2.58,1.51,0.49,0.66,
5.494,0.91,1.05,2.39,1.51,0.49,0.66,
5.495,0.91,1.05,2.39,1.51,0.49,0.66,
5.503,0.91,1.05,2.39,1.76,0.28,0.09,
5.504,0.91,1.05,2.39,1.76,0.28,0.09,
5.505,0.61,0.75,2.24,1.76,0.28,0.09,
5.505,0.61,0.75,2.24,1.76,0.28,0.09,
5.513,0.61,0.75,2.24,1.85,0.10,-0.33,
5.514,0.61,0.75,2.24,1.85,0.10,-0.33,
5.514,0.34,0.44,2.11,1.85,0.10,-0.33,
5.515,0.34,0.44,2.11,1.85,0.10,-0.33,
5.522,0.34,0.44,2.11,1.82,0.00,-0.56,
5.523,0.34,0.44,2.11,1.82,0.00,-0.56,
5.524,0.19,0.18,1.98,1.82,0.00,-0.56,
5.524,0.19,0.18,1.98,1.82,0.00,-0.56,
5.532,0.19,0.18,1.98,1.71,-0.03,-0.61,
5.533,0.19,0.18,1.98,1.71,-0.03,-0.61,
5.533,0.11,-0.06,1.91,1.71,-0.03,-0.61,
5.533,0.11,-0.06,1.91,1.71,-0.03,-0.61,
5.541,0.11,-0.06,1.91,1.56,-0.03,-0.54,
5.541,0.11,-0.06,1.91,1.56,-0.03,-0.54,
5.542,0.07,-0.30,1.91,1.56,-0.03,-0.54,
5.542,0.07,-0.30,1.91,1.56,-0.03,-0.54,
5.55,0.07,-0.30,1.91,1.38,-0.01,-0.42,
5.551,0.07,-0.30,1.91,1.38,-0.01,-0.42,
5.551,0.02,-0.58,2.03,1.38,-0.01,-0.42,
5.552,0.02,-0.58,2.03,1.38,-0.01,-0.42,
5.56,0.02,-0.58,2.03,1.22,0.01,-0.30,
5.561,0.02,-0.58,2.03,1.22,0.01,-0.30,
5.562,-0.08,-1.02,2.33,1.22,0.01,-0.30,
5.562,-0.08,-1.02,2.33,1.22,0.01,-0.30,
5.57,-0.08,-1.02,2.33,1.09,0.05,-0.20,
5.571,-0.08,-1.02,2.33,1.09,0.05,-0.20,
5.571,-0.28,-2.73,2.71,1.09,0.05,-0.20,
5.572,-0.28,-2.73,2.71,1.09,0.05,-0.20,
5.579,-0.28,-2.73,2.71,1.01,0.11,-0.10,
5.58,-0.28,-2.73,2.71,1.01,0.11,-0.10,
5.58,-0.54,-2.99,3.03,1.01,0.11,-0.10,
5.581,-0.54,-2.99,3.03,1.01,0.11,-0.10,
5.589,-0.54,-2.99,3.03,1.01,0.22,0.00,
5.59,-0.54,-2.99,3.03,1.01,0.22,0.00,
5.591,-0.81,-3.33,3.09,1.01,0.22,0.00,
5.591,-0.81,-3.33,3.09,1.01,0.22,0.00,
5.603,-0.81,-3.33,3.09,1.05,0.37,0.13,
5.604,-0.81,-3.33,3.09,1.05,0.37,0.13,
5.605,-1.00,-3.57,2.85,1.05,0.37,0.13,
5.605,-1.00,-3.57,2.85,1.05,0.37,0.13,
5.607,-1.00,-3.57,2.85,1.09,0.54,0.26,
5.608,-1.00,-3.57,2.85,1.09,0.54,0.26,
5.608,-1.04,-3.68,2.47,1.09,0.54,0.26,
5.609,-1.04,-3.68,2.47,1.09,0.54,0.26,
5.617,-1.04,-3.68,2.47,1.07,0.69,0.40,
5.617,-1.04,-3.68,2.47,1.07,0.69,0.40,
5.618,-0.98,-3.94,2.20,1.07,0.69,0.40,
5.618,-0.98,-3.94,2.20,1.07,0.69,0.40,
5.626,-0.98,-3.94,2.20,0.99,0.80,0.50,
5.627,-0.98,-3.94,2.20,0.99,0.80,0.50,
5.628,-0.90,-4.50,2.34,0.99,0.80,0.50,
5.628,-0.90,-4.50,2.34,0.99,0.80,0.50,
5.636,-0.90,-4.50,2.34,0.84,0.83,0.55,
5.638,-0.90,-4.50,2.34,0.84,0.83,0.55,
5.638,-0.88,-6.12,2.74,0.84,0.83,0.55,
5.638,-0.88,-6.12,2.74,0.84,0.83,0.55,
5.645,-0.88,-6.12,2.74,0.69,0.80,0.56,
5.646,-0.88,-6.12,2.74,0.69,0.80,0.56,
5.647,-1.03,-6.48,2.69,0.69,0.80,0.56,
5.647,-1.03,-6.48,2.69,0.69,0.80,0.56,
5.655,-1.03,-6.48,2.69,0.57,0.75,0.54,
5.656,-1.03,-6.48,2.69,0.57,0.75,0.54,
5.657,-1.35,-6.62,-0.47,0.57,0.75,0.54,
5.657,-1.35,-6.62,-0.47,0.57,0.75,0.54,
5.67,-1.35,-6.62,-0.47,0.42,0.67,0.51,
5.671,-1.35,-6.62,-0.47,0.42,0.67,0.51,
5.672,-1.65,-6.37,-3.50,0.42,0.67,0.51,
5.672,-1.65,-6.37,-3.50,0.42,0.67,0.51,
5.674,-1.65,-6.37,-3.50,0.06,0.53,0.52,
5.675,-1.65,-6.37,-3.50,0.06,0.53,0.52,
5.676,-1.77,-4.67,-5.81,0.06,0.53,0.52,
5.676,-1.77,-4.67,-5.81,0.06,0.53,0.52,
5.686,-1.77,-4.67,-5.81,0.06,0.53,0.52,
5.687,-1.77,-4.67,-5.81,0.06,0.53,0.52,
5.688,-1.77,-4.67,-5.81,0.06,0.53,0.52,
5.688,-1.77,-4.67,-5.81,0.06,0.53,0.52,
5.692,-1.77,-4.67,-5.81,-0.64,0.28,0.57,
5.693,-1.77,-4.67,-5.81,-0.64,0.28,0.57,
5.693,-1.32,-3.65,-5.45,-0.64,0.28,0.57,
5.694,-1.32,-3.65,-5.45,-0.64,0.28,0.57,
5.709,-1.32,-3.65,-5.45,-2.53,-0.47,0.63,
5.71,-1.32,-3.65,-5.45,-2.53,-0.47,0.63,
5.711,-0.88,-3.03,-3.80,-2.53,-0.47,0.63,
5.711,-0.88,-3.03,-3.80,-2.53,-0.47,0.63,
5.714,-0.88,-3.03,-3.80,-2.53,-0.47,0.63,
5.715,-0.88,-3.03,-3.80,-2.53,-0.47,0.63,
5.716,-0.88,-3.03,-3.80,-2.53,-0.47,0.63,
5.717,-0.88,-3.03,-3.80,-2.53,-0.47,0.63,
5.721,-0.88,-3.03,-3.80,-3.14,-0.80,0.54,
5.722,-0.88,-3.03,-3.80,-3.14,-0.80,0.54,
5.723,0.07,-2.34,-2.91,-3.14,-0.80,0.54,
5.723,0.07,-2.34,-2.91,-3.14,-0.80,0.54,
5.731,0.07,-2.34,-2.91,-3.33,-0.99,0.39,
5.732,0.07,-2.34,-2.91,-3.33,-0.99,0.39,
5.732,1.61,-2.24,-2.77,-3.33,-0.99,0.39,
5.733,1.61,-2.24,-2.77,-3.33,-0.99,0.39,
5.74,1.61,-2.24,-2.77,-3.19,-1.06,0.15,
5.741,1.61,-2.24,-2.77,-3.19,-1.06,0.15,
5.741,2.12,-2.24,-2.83,-3.19,-1.06,0.15,
5.741,2.12,-2.24,-2.83,-3.19,-1.06,0.15,
5.75,2.12,-2.24,-2.83,-2.87,-1.11,-0.22,
5.75,2.12,-2.24,-2.83,-2.87,-1.11,-0.22,
5.751,2.61,-2.31,-2.87,-2.87,-1.11,-0.22,
5.751,2.61,-2.31,-2.87,-2.87,-1.11,-0.22,
5.759,2.61,-2.31,-2.87,-2.50,-1.16,-0.73,
5.76,2.61,-2.31,-2.87,-2.50,-1.16,-0.73,
5.761,2.81,-2.49,-2.63,-2.50,-1.16,-0.73,
5.761,2.81,-2.49,-2.63,-2.50,-1.16,-0.73,
5.769,2.81,-2.49,-2.63,-2.11,-1.16,-1.25,
5.77,2.81,-2.49,-2.63,-2.11,-1.16,-1.25,
5.77,2.53,-2.79,-0.87,-2.11,-1.16,-1.25,
5.771,2.53,-2.79,-0.87,-2.11,-1.16,-1.25,
5.778,2.53,-2.79,-0.87,-1.71,-1.00,-1.65,
5.779,2.53,-2.79,-0.87,-1.71,-1.00,-1.65,
5.78,0.65,-3.20,-0.41,-1.71,-1.00,-1.65,
5.78,0.65,-3.20,-0.41,-1.71,-1.00,-1.65,
5.788,0.65,-3.20,-0.41,-1.23,-0.57,-1.80,
5.789,0.65,-3.20,-0.41,-1.23,-0.57,-1.80,
5.79,0.20,-3.60,1.09,-1.23,-0.57,-1.80,
5.79,0.20,-3.60,1.09,-1.23,-0.57,-1.80,
5.805,0.20,-3.60,1.09,-0.65,0.15,-1.60,
5.806,0.20,-3.60,1.09,-0.65,0.15,-1.60,
5.806,-1.30,-3.87,1.33,-0.65,0.15,-1.60,
5.806,-1.30,-3.87,1.33,-0.65,0.15,-1.60,
5.819,-1.30,-3.87,1.33,0.02,1.06,-1.10,
5.821,-1.30,-3.87,1.33,0.02,1.06,-1.10,
5.821,-1.67,-3.94,1.46,0.02,1.06,-1.10,
5.822,-1.67,-3.94,1.46,0.02,1.06,-1.10,
5.822,-1.67,-3.94,1.46,0.02,1.06,-1.10,
5.823,-1.67,-3.94,1.46,0.02,1.06,-1.10,
5.823,-1.67,-3.94,1.46,0.02,1.06,-1.10,
5.824,-1.67,-3.94,1.46,0.02,1.06,-1.10,
5.826,-1.67,-3.94,1.46,0.77,2.77,0.18,
5.827,-1.67,-3.94,1.46,0.77,2.77,0.18,
5.827,-2.40,-3.24,1.03,0.77,2.77,0.18,
5.828,-2.40,-3.24,1.03,0.77,2.77,0.18,
5.836,-2.40,-3.24,1.03,0.77,3.34,0.71,
5.837,-2.40,-3.24,1.03,0.77,3.34,0.71,
5.837,-2.60,-1.64,0.57,0.77,3.34,0.71,
5.838,-2.60,-1.64,0.57,0.77,3.34,0.71,
5.845,-2.60,-1.64,0.57,1.12,3.69,1.24,
5.846,-2.60,-1.64,0.57,1.12,3.69,1.24,
5.846,-2.69,0.03,0.14,1.12,3.69,1.24,
5.847,-2.69,0.03,0.14,1.12,3.69,1.24,
5.855,-2.69,0.03,0.14,1.30,3.84,1.62,
5.856,-2.69,0.03,0.14,1.30,3.84,1.62,
5.857,-2.61,0.38,-0.12,1.30,3.84,1.62,
5.857,-2.61,0.38,-0.12,1.30,3.84,1.62,
5.87,-2.61,0.38,-0.12,1.33,3.85,1.88,
5.871,-2.61,0.38,-0.12,1.33,3.85,1.88,
5.871,-2.30,0.89,-0.24,1.33,3.85,1.88,
5.872,-2.30,0.89,-0.24,1.33,3.85,1.88,
5.874,-2.30,0.89,-0.24,1.25,3.74,2.04,
5.876,-2.30,0.89,-0.24,1.25,3.74,2.04,
5.877,-1.74,1.32,-0.44,1.25,3.74,2.04,
5.878,-1.74,1.32,-0.44,1.25,3.74,2.04,
5.883,-1.74,1.32,-0.44,1.25,3.74,2.04,
5.884,-1.74,1.32,-0.44,1.25,3.74,2.04,
5.885,-1.74,1.32,-0.44,1.25,3.74,2.04,
5.885,-1.74,1.32,-0.44,1.25,3.74,2.04,
5.893,-1.74,1.32,-0.44,1.11,3.53,1.72,
5.894,-1.74,1.32,-0.44,1.11,3.53,1.72,
5.895,0.46,1.46,-2.35,1.11,3.53,1.72,
5.895,0.46,1.46,-2.35,1.11,3.53,1.72,
5.902,0.46,1.46,-2.35,0.88,3.19,1.30,
5.904,0.46,1.46,-2.35,0.88,3.19,1.30,
5.904,1.97,1.25,-2.68,0.88,3.19,1.30,
5.905,1.97,1.25,-2.68,0.88,3.19,1.30,
5.912,1.97,1.25,-2.68,0.46,2.68,1.02,
5.913,1.97,1.25,-2.68,0.46,2.68,1.02,
5.914,2.26,0.99,-2.79,0.46,2.68,1.02,
5.914,2.26,0.99,-2.79,0.46,2.68,1.02,
5.926,2.26,0.99,-2.79,-0.47,1.51,-0.56,
5.927,2.26,0.99,-2.79,-0.47,1.51,-0.56,
5.927,2.52,0.77,-2.53,-0.47,1.51,-0.56,
5.928,2.52,0.77,-2.53,-0.47,1.51,-0.56,
5.932,2.52,0.77,-2.53,-0.47,1.51,-0.56,
5.933,2.52,0.77,-2.53,-0.47,1.51,-0.56,
5.933,2.52,0.77,-2.53,-0.47,1.51,-0.56,
5.934,2.52,0.77,-2.53,-0.47,1.51,-0.56,
5.94,2.52,0.77,-2.53,-0.80,1.12,-1.47,
5.94,2.52,0.77,-2.53,-0.80,1.12,-1.47,
5.941,2.48,0.72,-1.70,-0.80,1.12,-1.47,
5.942,2.48,0.72,-1.70,-0.80,1.12,-1.47,
5.95,2.48,0.72,-1.70,-1.06,0.81,-2.16,
5.95,2.48,0.72,-1.70,-1.06,0.81,-2.16,
5.951,2.20,0.95,-1.32,-1.06,0.81,-2.16,
5.951,2.20,0.95,-1.32,-1.06,0.81,-2.16,
5.959,2.20,0.95,-1.32,-1.18,0.56,-2.58,
5.96,2.20,0.95,-1.32,-1.18,0.56,-2.58,
5.961,1.72,1.36,-0.98,-1.18,0.56,-2.58,
5.961,1.72,1.36,-0.98,-1.18,0.56,-2.58,
5.97,1.72,1.36,-0.98,-1.07,0.27,-2.74,
5.971,1.72,1.36,-0.98,-1.07,0.27,-2.74,
5.971,1.13,1.90,-0.62,-1.07,0.27,-2.74,
5.972,1.13,1.90,-0.62,-1.07,0.27,-2.74,
5.978,1.13,1.90,-0.62,-0.82,0.01,-2.66,
5.979,1.13,1.90,-0.62,-0.82,0.01,-2.66,
5.98,0.47,2.54,-0.21,-0.82,0.01,-2.66,
5.98,0.47,2.54,-0.21,-0.82,0.01,-2.66,
5.988,0.47,2.54,-0.21,-0.51,-0.14,-2.36,
5.989,0.47,2.54,-0.21,-0.51,-0.14,-2.36,
5.99,-0.95,4.06,0.23,-0.51,-0.14,-2.36,
5.99,-0.95,4.06,0.23,-0.51,-0.14,-2.36,
6.002,-0.95,4.06,0.23,-0.19,-0.22,-1.88,
6.003,-0.95,4.06,0.23,-0.19,-0.22,-1.88,
6.003,-1.22,4.47,0.74,-0.19,-0.22,-1.88,
6.004,-1.22,4.47,0.74,-0.19,-0.22,-1.88,
6.007,-1.22,4.47,0.74,0.15,-0.26,-1.20,
6.007,-1.22,4.47,0.74,0.15,-0.26,-1.20,
6.008,-1.48,5.04,1.24,0.15,-0.26,-1.20,
6.008,-1.48,5.04,1.24,0.15,-0.26,-1.20,
6.016,-1.48,5.04,1.24,0.53,-0.29,-0.39,
6.017,-1.48,5.04,1.24,0.53,-0.29,-0.39,
6.017,-1.65,5.59,1.69,0.53,-0.29,-0.39,
6.017,-1.65,5.59,1.69,0.53,-0.29,-0.39,
6.025,-1.65,5.59,1.69,0.99,-0.31,0.47,
6.026,-1.65,5.59,1.69,0.99,-0.31,0.47,
6.026,-1.71,6.04,1.94,0.99,-0.31,0.47,
6.027,-1.71,6.04,1.94,0.99,-0.31,0.47,
6.035,-1.71,6.04,1.94,1.54,-0.37,1.26,
6.036,-1.71,6.04,1.94,1.54,-0.37,1.26,
6.036,-1.62,6.35,1.89,1.54,-0.37,1.26,
6.037,-1.62,6.35,1.89,1.54,-0.37,1.26,
6.048,-1.62,6.35,1.89,2.12,-0.48,1.36,
6.05,-1.62,6.35,1.89,2.12,-0.48,1.36,
6.05,-1.45,6.50,1.60,2.12,-0.48,1.36,
6.051,-1.45,6.50,1.60,2.12,-0.48,1.36,
6.054,-1.45,6.50,1.60,2.64,-0.66,1.44,
6.055,-1.45,6.50,1.60,2.64,-0.66,1.44,
6.055,-1.31,6.52,1.05,2.64,-0.66,1.44,
6.056,-1.31,6.52,1.05,2.64,-0.66,1.44,
6.065,-1.31,6.52,1.05,2.64,-0.66,1.44,
6.066,-1.31,6.52,1.05,2.64,-0.66,1.44,
6.066,-1.31,6.52,1.05,2.64,-0.66,1.44,
6.067,-1.31,6.52,1.05,2.64,-0.66,1.44,
6.073,-1.31,6.52,1.05,2.96,-0.89,2.03,
6.074,-1.31,6.52,1.05,2.96,-0.89,2.03,
6.075,-1.41,6.58,-0.94,2.96,-0.89,2.03,
6.075,-1.41,6.58,-0.94,2.96,-0.89,2.03,
6.088,-1.41,6.58,-0.94,2.87,-1.07,2.46,
6.089,-1.41,6.58,-0.94,2.87,-1.07,2.46,
6.09,-1.54,6.69,-2.37,2.87,-1.07,2.46,
6.091,-1.54,6.69,-2.37,2.87,-1.07,2.46,
6.095,-1.54,6.69,-2.37,0.58,-0.86,2.58,
6.096,-1.54,6.69,-2.37,0.58,-0.86,2.58,
6.097,-1.52,6.84,-2.72,0.58,-0.86,2.58,
6.097,-1.52,6.84,-2.72,0.58,-0.86,2.58,
6.107,-1.52,6.84,-2.72,0.58,-0.86,2.58,
6.107,-1.52,6.84,-2.72,0.58,-0.86,2.58,
6.108,-1.52,6.84,-2.72,0.58,-0.86,2.58,
6.108,-1.52,6.84,-2.72,0.58,-0.86,2.58,
6.113,-1.52,6.84,-2.72,-1.46,-0.48,2.04,
6.113,-1.52,6.84,-2.72,-1.46,-0.48,2.04,
6.113,-1.00,6.84,-3.48,-1.46,-0.48,2.04,
6.114,-1.00,6.84,-3.48,-1.46,-0.48,2.04,
6.122,-1.00,6.84,-3.48,-3.51,-0.11,1.90,
6.123,-1.00,6.84,-3.48,-3.51,-0.11,1.90,
6.124,-0.46,6.58,-3.56,-3.51,-0.11,1.90,
6.124,-0.46,6.58,-3.56,-3.51,-0.11,1.90,
6.133,-0.46,6.58,-3.56,-5.24,0.10,1.90,
6.135,-0.46,6.58,-3.56,-5.24,0.10,1.90,
6.135,0.20,6.19,-3.37,-5.24,0.10,1.90,
6.136,0.20,6.19,-3.37,-5.24,0.10,1.90,
6.143,0.20,6.19,-3.37,-6.54,0.07,1.53,
6.143,0.20,6.19,-3.37,-6.54,0.07,1.53,
6.144,0.83,5.74,-2.92,-6.54,0.07,1.53,
6.144,0.83,5.74,-2.92,-6.54,0.07,1.53,
6.15,0.83,5.74,-2.92,-7.34,-0.20,0.56,
6.151,0.83,5.74,-2.92,-7.34,-0.20,0.56,
6.152,1.30,5.30,-2.40,-7.34,-0.20,0.56,
6.152,1.30,5.30,-2.40,-7.34,-0.20,0.56,
6.159,1.30,5.30,-2.40,-7.04,-0.34,-0.99,
6.159,1.30,5.30,-2.40,-7.04,-0.34,-0.99,
6.16,1.50,4.90,-2.01,-7.04,-0.34,-0.99,
6.16,1.50,4.90,-2.01,-7.04,-0.34,-0.99,
6.17,1.50,4.90,-2.01,-6.06,-0.25,-2.52,
6.17,1.50,4.90,-2.01,-6.06,-0.25,-2.52,
6.171,1.38,4.55,-1.90,-6.06,-0.25,-2.52,
6.171,1.38,4.55,-1.90,-6.06,-0.25,-2.52,
6.178,1.38,4.55,-1.90,-5.03,-0.17,-3.67,
6.178,1.38,4.55,-1.90,-5.03,-0.17,-3.67,
6.179,1.00,4.22,-3.52,-5.03,-0.17,-3.67,
6.179,1.00,4.22,-3.52,-5.03,-0.17,-3.67,
6.195,1.00,4.22,-3.52,-3.29,-0.24,-4.46,
6.199,1.00,4.22,-3.52,-3.29,-0.24,-4.46,
6.201,0.46,3.74,-7.69,-3.29,-0.24,-4.46,
6.203,0.46,3.74,-7.69,-3.29,-0.24,-4.46,
6.204,0.46,3.74,-7.69,-3.29,-0.24,-4.46,
6.205,0.46,3.74,-7.69,-3.29,-0.24,-4.46,
6.206,0.46,3.74,-7.69,-3.29,-0.24,-4.46,
6.207,0.46,3.74,-7.69,-3.29,-0.24,-4.46,
6.208,0.46,3.74,-7.69,-3.49,-0.50,-4.38,
6.209,0.46,3.74,-7.69,-3.49,-0.50,-4.38,
6.209,-2.04,0.40,-13.07,-3.49,-0.50,-4.38,
6.21,-2.04,0.40,-13.07,-3.49,-0.50,-4.38,
6.216,-2.04,0.40,-13.07,-4.27,-0.80,-4.17,
6.218,-2.04,0.40,-13.07,-4.27,-0.80,-4.17,
6.218,-3.96,-3.13,-13.19,-4.27,-0.80,-4.17,
6.219,-3.96,-3.13,-13.19,-4.27,-0.80,-4.17,
6.225,-3.96,-3.13,-13.19,-4.94,-1.08,-3.66,
6.227,-3.96,-3.13,-13.19,-4.94,-1.08,-3.66,
6.227,-3.78,-4.91,-9.36,-4.94,-1.08,-3.66,
6.228,-3.78,-4.91,-9.36,-4.94,-1.08,-3.66,
6.235,-3.78,-4.91,-9.36,-4.80,-1.31,-2.61,
6.237,-3.78,-4.91,-9.36,-4.80,-1.31,-2.61,
6.238,-1.54,-6.59,-2.92,-4.80,-1.31,-2.61,
6.239,-1.54,-6.59,-2.92,-4.80,-1.31,-2.61,
6.244,-1.54,-6.59,-2.92,-3.65,-1.13,-1.12,
6.245,-1.54,-6.59,-2.92,-3.65,-1.13,-1.12,
6.245,0.22,-6.83,-1.37,-3.65,-1.13,-1.12,
6.245,0.22,-6.83,-1.37,-3.65,-1.13,-1.12,
6.254,0.22,-6.83,-1.37,-1.70,-0.41,0.21,
6.255,0.22,-6.83,-1.37,-1.70,-0.41,0.21,
6.255,1.99,-6.45,-1.05,-1.70,-0.41,0.21,
6.255,1.99,-6.45,-1.05,-1.70,-0.41,0.21,
6.264,1.99,-6.45,-1.05,0.50,0.42,0.85,
6.265,1.99,-6.45,-1.05,0.50,0.42,0.85,
6.266,2.36,-2.65,-0.93,0.50,0.42,0.85,
6.267,2.36,-2.65,-0.93,0.50,0.42,0.85,
6.273,2.36,-2.65,-0.93,0.50,0.42,0.85,
6.273,2.36,-2.65,-0.93,0.50,0.42,0.85,
6.274,2.36,-2.65,-0.93,0.50,0.42,0.85,
6.274,2.36,-2.65,-0.93,0.50,0.42,0.85,
6.284,2.36,-2.65,-0.93,2.32,0.67,0.83,
6.285,2.36,-2.65,-0.93,2.32,0.67,0.83,
6.286,0.51,1.68,-1.40,2.32,0.67,0.83,
6.286,0.51,1.68,-1.40,2.32,0.67,0.83,
6.292,0.51,1.68,-1.40,3.39,0.42,0.62,
6.293,0.51,1.68,-1.40,3.39,0.42,0.62,
6.293,0.53,3.61,0.66,3.39,0.42,0.62,
6.293,0.53,3.61,0.66,3.39,0.42,0.62,
6.302,0.53,3.61,0.66,3.71,0.42,0.38,
6.303,0.53,3.61,0.66,3.71,0.42,0.38,
6.303,0.62,3.77,2.46,3.71,0.42,0.38,
6.304,0.62,3.77,2.46,3.71,0.42,0.38,
6.311,0.62,3.77,2.46,3.65,0.42,0.22,
6.311,0.62,3.77,2.46,3.65,0.42,0.22,
6.312,0.57,3.45,2.64,3.65,0.42,0.22,
6.312,0.57,3.45,2.64,3.65,0.42,0.22,
6.32,0.57,3.45,2.64,3.57,0.20,0.17,
6.321,0.57,3.45,2.64,3.57,0.20,0.17,
6.321,0.42,1.45,2.47,3.57,0.20,0.17,
6.322,0.42,1.45,2.47,3.57,0.20,0.17,
6.331,0.42,1.45,2.47,3.71,0.02,0.14,
6.331,0.42,1.45,2.47,3.71,0.02,0.14,
6.332,0.40,-0.69,1.08,3.71,0.02,0.14,
6.332,0.40,-0.69,1.08,3.71,0.02,0.14,
6.339,0.40,-0.69,1.08,3.96,0.12,0.25,
6.34,0.40,-0.69,1.08,3.96,0.12,0.25,
6.34,0.57,-2.57,-0.36,3.96,0.12,0.25,
6.34,0.57,-2.57,-0.36,3.96,0.12,0.25,
6.349,0.57,-2.57,-0.36,4.02,0.43,0.26,
6.35,0.57,-2.57,-0.36,4.02,0.43,0.26,
6.35,0.93,-4.45,-0.40,4.02,0.43,0.26,
6.351,0.93,-4.45,-0.40,4.02,0.43,0.26,
6.358,0.93,-4.45,-0.40,3.69,0.61,0.15,
6.359,0.93,-4.45,-0.40,3.69,0.61,0.15,
6.359,1.37,-4.65,-0.43,3.69,0.61,0.15,
6.36,1.37,-4.65,-0.43,3.69,0.61,0.15,
6.368,1.37,-4.65,-0.43,3.07,0.68,0.09,
6.369,1.37,-4.65,-0.43,3.07,0.68,0.09,
6.369,1.70,-4.76,-0.19,3.07,0.68,0.09,
6.369,1.70,-4.76,-0.19,3.07,0.68,0.09,
6.377,1.70,-4.76,-0.19,2.41,0.67,-0.08,
6.378,1.70,-4.76,-0.19,2.41,0.67,-0.08,
6.378,1.80,-4.60,0.34,2.41,0.67,-0.08,
6.378,1.80,-4.60,0.34,2.41,0.67,-0.08,
6.391,1.80,-4.60,0.34,1.87,0.62,-0.31,
6.393,1.80,-4.60,0.34,1.87,0.62,-0.31,
6.393,1.71,-4.15,1.08,1.87,0.62,-0.31,
6.393,1.71,-4.15,1.08,1.87,0.62,-0.31,
6.397,1.71,-4.15,1.08,1.48,0.57,-0.52,
6.398,1.71,-4.15,1.08,1.48,0.57,-0.52,
6.399,1.58,-3.59,2.68,1.48,0.57,-0.52,
6.399,1.58,-3.59,2.68,1.48,0.57,-0.52,
6.406,1.58,-3.59,2.68,1.27,0.55,-0.65,
6.406,1.58,-3.59,2.68,1.27,0.55,-0.65,
6.407,1.47,-3.05,3.07,1.27,0.55,-0.65,
6.407,1.47,-3.05,3.07,1.27,0.55,-0.65,
6.415,1.47,-3.05,3.07,1.25,0.57,-0.69,
6.416,1.47,-3.05,3.07,1.25,0.57,-0.69,
6.416,1.52,-2.60,3.38,1.25,0.57,-0.69,
6.417,1.52,-2.60,3.38,1.25,0.57,-0.69,
6.425,1.52,-2.60,3.38,1.38,0.63,-0.68,
6.425,1.52,-2.60,3.38,1.38,0.63,-0.68,
6.426,1.74,-2.21,3.60,1.38,0.63,-0.68,
6.426,1.74,-2.21,3.60,1.38,0.63,-0.68,
6.434,1.74,-2.21,3.60,1.55,0.71,-0.64,
6.435,1.74,-2.21,3.60,1.55,0.71,-0.64,
6.435,2.06,-1.91,3.68,1.55,0.71,-0.64,
6.436,2.06,-1.91,3.68,1.55,0.71,-0.64,
6.444,2.06,-1.91,3.68,1.70,0.75,-0.64,
6.444,2.06,-1.91,3.68,1.70,0.75,-0.64,
6.445,2.44,-1.70,3.63,1.70,0.75,-0.64,
6.445,2.44,-1.70,3.63,1.70,0.75,-0.64,
6.454,2.44,-1.70,3.63,1.78,0.73,-0.70,
6.455,2.44,-1.70,3.63,1.78,0.73,-0.70,
6.455,2.81,-1.55,3.43,1.78,0.73,-0.70,
6.455,2.81,-1.55,3.43,1.78,0.73,-0.70,
6.464,2.81,-1.55,3.43,1.78,0.73,-0.70,
6.464,2.81,-1.55,3.43,1.78,0.73,-0.70,
6.465,2.81,-1.55,3.43,1.78,0.73,-0.70,
6.465,2.81,-1.55,3.43,1.78,0.73,-0.70,
6.473,2.81,-1.55,3.43,1.80,0.63,-0.85,
6.473,2.81,-1.55,3.43,1.80,0.63,-0.85,
6.474,3.32,-1.37,2.79,1.80,0.63,-0.85,
6.474,3.32,-1.37,2.79,1.80,0.63,-0.85,
6.482,3.32,-1.37,2.79,1.74,0.43,-1.08,
6.483,3.32,-1.37,2.79,1.74,0.43,-1.08,
6.483,3.45,-1.27,2.41,1.74,0.43,-1.08,
6.483,3.45,-1.27,2.41,1.74,0.43,-1.08,
6.492,3.45,-1.27,2.41,1.59,0.14,-1.35,
6.493,3.45,-1.27,2.41,1.59,0.14,-1.35,
6.493,3.47,-1.21,2.11,1.59,0.14,-1.35,
6.494,3.47,-1.21,2.11,1.59,0.14,-1.35,
6.502,3.47,-1.21,2.11,1.36,0.12,-1.62,
6.504,3.47,-1.21,2.11,1.36,0.12,-1.62,
6.506,3.39,-1.19,1.86,1.36,0.12,-1.62,
6.507,3.39,-1.19,1.86,1.36,0.12,-1.62,
6.51,3.39,-1.19,1.86,1.08,-0.01,-1.84,
6.511,3.39,-1.19,1.86,1.08,-0.01,-1.84,
6.511,3.26,-1.16,1.73,1.08,-0.01,-1.84,
6.511,3.26,-1.16,1.73,1.08,-0.01,-1.84,
6.52,3.26,-1.16,1.73,0.81,-0.52,-1.96,
6.521,3.26,-1.16,1.73,0.81,-0.52,-1.96,
6.521,3.03,-1.07,1.79,0.81,-0.52,-1.96,
6.521,3.03,-1.07,1.79,0.81,-0.52,-1.96,
6.53,3.03,-1.07,1.79,0.59,-0.92,-1.98,
6.531,3.03,-1.07,1.79,0.59,-0.92,-1.98,
6.531,2.70,-0.89,2.02,0.59,-0.92,-1.98,
6.532,2.70,-0.89,2.02,0.59,-0.92,-1.98,
6.539,2.70,-0.89,2.02,0.44,-1.23,-1.90,
6.539,2.70,-0.89,2.02,0.44,-1.23,-1.90,
6.54,2.37,-0.55,2.31,0.44,-1.23,-1.90,
6.54,2.37,-0.55,2.31,0.44,-1.23,-1.90,
6.549,2.37,-0.55,2.31,0.40,-1.45,-1.75,
6.55,2.37,-0.55,2.31,0.40,-1.45,-1.75,
6.55,2.01,-0.10,2.60,0.40,-1.45,-1.75,
6.55,2.01,-0.10,2.60,0.40,-1.45,-1.75,
6.558,2.01,-0.10,2.60,0.46,-1.59,-1.52,
6.559,2.01,-0.10,2.60,0.46,-1.59,-1.52,
6.559,1.62,0.43,2.68,0.46,-1.59,-1.52,
6.559,1.62,0.43,2.68,0.46,-1.59,-1.52,
6.568,1.62,0.43,2.68,0.58,-1.63,-1.25,
6.568,1.62,0.43,2.68,0.58,-1.63,-1.25,
6.569,1.19,1.00,2.37,0.58,-1.63,-1.25,
6.569,1.19,1.00,2.37,0.58,-1.63,-1.25,
6.577,1.19,1.00,2.37,0.72,-1.59,-0.94,
6.578,1.19,1.00,2.37,0.72,-1.59,-0.94,
6.578,0.69,1.51,1.73,0.72,-1.59,-0.94,
6.578,0.69,1.51,1.73,0.72,-1.59,-0.94,
6.588,0.69,1.51,1.73,0.81,-1.48,-0.62,
6.589,0.69,1.51,1.73,0.81,-1.48,-0.62,
6.59,0.21,1.87,0.03,0.81,-1.48,-0.62,
6.591,0.21,1.87,0.03,0.81,-1.48,-0.62,
6.6,0.21,1.87,0.03,0.74,-1.36,-0.27,
6.6,0.21,1.87,0.03,0.74,-1.36,-0.27,
6.601,-0.15,2.09,-0.55,0.74,-1.36,-0.27,
6.601,-0.15,2.09,-0.55,0.74,-1.36,-0.27,
6.606,-0.15,2.09,-0.55,0.44,-1.33,0.11,
6.606,-0.15,2.09,-0.55,0.44,-1.33,0.11,
6.607,-0.30,2.17,-1.07,0.44,-1.33,0.11,
6.607,-0.30,2.17,-1.07,0.44,-1.33,0.11,
6.615,-0.30,2.17,-1.07,-0.11,-1.34,0.11,
6.616,-0.30,2.17,-1.07,-0.11,-1.34,0.11,
6.617,-0.28,2.19,-1.41,-0.11,-1.34,0.11,
6.617,-0.28,2.19,-1.41,-0.11,-1.34,0.11,
6.625,-0.28,2.19,-1.41,-0.78,-1.51,0.11,
6.625,-0.28,2.19,-1.41,-0.78,-1.51,0.11,
6.626,-0.11,2.22,-1.58,-0.78,-1.51,0.11,
6.626,-0.11,2.22,-1.58,-0.78,-1.51,0.11,
6.635,-0.11,2.22,-1.58,-1.41,-1.91,0.41,
6.636,-0.11,2.22,-1.58,-1.41,-1.91,0.41,
6.636,0.20,2.27,-1.57,-1.41,-1.91,0.41,
6.637,0.20,2.27,-1.57,-1.41,-1.91,0.41,
6.644,0.20,2.27,-1.57,-1.40,-2.39,0.51,
6.645,0.20,2.27,-1.57,-1.40,-2.39,0.51,
6.645,0.61,2.31,-1.39,-1.40,-2.39,0.51,
6.645,0.61,2.31,-1.39,-1.40,-2.39,0.51,
6.654,0.61,2.31,-1.39,-1.40,-2.39,0.51,
6.656,0.61,2.31,-1.39,-1.40,-2.39,0.51,
6.657,0.61,2.31,-1.39,-1.40,-2.39,0.51,
6.658,0.61,2.31,-1.39,-1.40,-2.39,0.51,
6.664,0.61,2.31,-1.39,-1.30,-2.92,0.38,
6.665,0.61,2.31,-1.39,-1.30,-2.92,0.38,
6.665,1.62,2.35,-0.55,-1.30,-2.92,0.38,
6.666,1.62,2.35,-0.55,-1.30,-2.92,0.38,
6.672,1.62,2.35,-0.55,-1.54,-3.35,0.03,
6.673,1.62,2.35,-0.55,-1.54,-3.35,0.03,
6.673,1.98,2.28,-0.05,-1.54,-3.35,0.03,
6.673,1.98,2.28,-0.05,-1.54,-3.35,0.03,
6.682,1.98,2.28,-0.05,-1.49,-3.56,-0.48,
6.682,1.98,2.28,-0.05,-1.49,-3.56,-0.48,
6.683,2.07,2.08,0.42,-1.49,-3.56,-0.48,
6.683,2.07,2.08,0.42,-1.49,-3.56,-0.48,
6.691,2.07,2.08,0.42,-1.16,-3.41,-1.04,
6.692,2.07,2.08,0.42,-1.16,-3.41,-1.04,
6.693,1.89,1.69,0.82,-1.16,-3.41,-1.04,
6.693,1.89,1.69,0.82,-1.16,-3.41,-1.04,
6.701,1.89,1.69,0.82,-0.63,-2.92,-1.50,
6.702,1.89,1.69,0.82,-0.63,-2.92,-1.50,
6.703,1.56,1.21,1.13,-0.63,-2.92,-1.50,
6.703,1.56,1.21,1.13,-0.63,-2.92,-1.50,
6.71,1.56,1.21,1.13,-0.01,-2.20,-1.74,
6.711,1.56,1.21,1.13,-0.01,-2.20,-1.74,
6.711,1.18,0.73,1.31,-0.01,-2.20,-1.74,
6.712,1.18,0.73,1.31,-0.01,-2.20,-1.74,
6.72,1.18,0.73,1.31,0.59,-1.34,-1.73,
6.721,1.18,0.73,1.31,0.59,-1.34,-1.73,
6.721,0.94,0.31,1.38,0.59,-1.34,-1.73,
6.721,0.94,0.31,1.38,0.59,-1.34,-1.73,
6.73,0.94,0.31,1.38,1.09,-0.41,-1.49,
6.731,0.94,0.31,1.38,1.09,-0.41,-1.49,
6.731,0.82,-0.02,1.38,1.09,-0.41,-1.49,
6.732,0.82,-0.02,1.38,1.09,-0.41,-1.49,
6.742,0.82,-0.02,1.38,1.46,0.45,-1.12,
6.742,0.82,-0.02,1.38,1.46,0.45,-1.12,
6.743,0.78,-0.35,1.40,1.46,0.45,-1.12,
6.743,0.78,-0.35,1.40,1.46,0.45,-1.12,
6.75,0.78,-0.35,1.40,1.69,1.12,-0.74,
6.751,0.78,-0.35,1.40,1.69,1.12,-0.74,
6.752,0.76,-0.68,1.47,1.69,1.12,-0.74,
6.752,0.76,-0.68,1.47,1.69,1.12,-0.74,
6.758,0.76,-0.68,1.47,1.75,1.53,-0.42,
6.759,0.76,-0.68,1.47,1.75,1.53,-0.42,
6.76,0.70,-0.96,1.61,1.75,1.53,-0.42,
6.76,0.70,-0.96,1.61,1.75,1.53,-0.42,
6.768,0.70,-0.96,1.61,1.73,1.76,-0.18,
6.769,0.70,-0.96,1.61,1.73,1.76,-0.18,
6.769,0.60,-1.15,1.75,1.73,1.76,-0.18,
6.77,0.60,-1.15,1.75,1.73,1.76,-0.18,
6.777,0.60,-1.15,1.75,1.74,1.87,-0.02,
6.778,0.60,-1.15,1.75,1.74,1.87,-0.02,
6.779,0.44,-1.20,1.84,1.74,1.87,-0.02,
6.78,0.44,-1.20,1.84,1.74,1.87,-0.02,
6.79,0.44,-1.20,1.84,1.72,1.93,0.10,
6.791,0.44,-1.20,1.84,1.72,1.93,0.10,
6.791,0.25,-1.28,1.97,1.72,1.93,0.10,
6.792,0.25,-1.28,1.97,1.72,1.93,0.10,
6.802,0.25,-1.28,1.97,1.68,1.94,0.19,
6.803,0.25,-1.28,1.97,1.68,1.94,0.19,
6.803,-0.01,-1.55,2.13,1.68,1.94,0.19,
6.803,-0.01,-1.55,2.13,1.68,1.94,0.19,
6.818,-0.01,-1.55,2.13,1.64,1.95,0.28,
6.819,-0.01,-1.55,2.13,1.64,1.95,0.28,
6.819,-0.38,-2.12,2.29,1.64,1.95,0.28,
6.82,-0.38,-2.12,2.29,1.64,1.95,0.28,
6.82,-0.38,-2.12,2.29,1.64,1.95,0.28,
6.821,-0.38,-2.12,2.29,1.64,1.95,0.28,
6.821,-0.38,-2.12,2.29,1.64,1.95,0.28,
6.822,-0.38,-2.12,2.29,1.64,1.95,0.28,
6.825,-0.38,-2.12,2.29,1.53,2.05,0.52,
6.826,-0.38,-2.12,2.29,1.53,2.05,0.52,
6.826,-1.20,-4.13,2.55,1.53,2.05,0.52,
6.827,-1.20,-4.13,2.55,1.53,2.05,0.52,
6.834,-1.20,-4.13,2.55,1.47,2.18,0.71,
6.835,-1.20,-4.13,2.55,1.47,2.18,0.71,
6.835,-1.49,-4.45,2.50,1.47,2.18,0.71,
6.836,-1.49,-4.45,2.50,1.47,2.18,0.71,
6.844,-1.49,-4.45,2.50,1.40,2.33,0.92,
6.845,-1.49,-4.45,2.50,1.40,2.33,0.92,
6.845,-1.59,-4.74,2.36,1.40,2.33,0.92,
6.845,-1.59,-4.74,2.36,1.40,2.33,0.92,
6.853,-1.59,-4.74,2.36,1.40,2.33,0.92,
6.853,-1.59,-4.74,2.36,1.40,2.33,0.92,
6.854,-1.59,-4.74,2.36,1.40,2.33,0.92,
6.854,-1.59,-4.74,2.36,1.40,2.33,0.92,
6.863,-1.59,-4.74,2.36,1.30,2.43,1.08,
6.864,-1.59,-4.74,2.36,1.30,2.43,1.08,
6.865,-1.56,-5.75,2.15,1.30,2.43,1.08,
6.865,-1.56,-5.75,2.15,1.30,2.43,1.08,
6.873,-1.56,-5.75,2.15,1.17,2.45,1.17,
6.873,-1.56,-5.75,2.15,1.17,2.45,1.17,
6.874,-1.62,-7.17,2.28,1.17,2.45,1.17,
6.874,-1.62,-7.17,2.28,1.17,2.45,1.17,
6.882,-1.62,-7.17,2.28,1.01,2.37,1.19,
6.883,-1.62,-7.17,2.28,1.01,2.37,1.19,
6.883,-1.95,-7.23,-0.40,1.01,2.37,1.19,
6.883,-1.95,-7.23,-0.40,1.01,2.37,1.19,
6.891,-1.95,-7.23,-0.40,0.78,2.17,1.17,
6.892,-1.95,-7.23,-0.40,0.78,2.17,1.17,
6.893,-3.60,-7.01,-4.47,0.78,2.17,1.17,
6.893,-3.60,-7.01,-4.47,0.78,2.17,1.17,
6.901,-3.60,-7.01,-4.47,0.32,1.85,1.17,
6.902,-3.60,-7.01,-4.47,0.32,1.85,1.17,
6.903,-3.73,-6.47,-8.03,0.32,1.85,1.17,
6.904,-3.73,-6.47,-8.03,0.32,1.85,1.17,
6.91,-3.73,-6.47,-8.03,-0.52,1.34,1.26,
6.911,-3.73,-6.47,-8.03,-0.52,1.34,1.26,
6.911,-3.67,-4.90,-9.96,-0.52,1.34,1.26,
6.911,-3.67,-4.90,-9.96,-0.52,1.34,1.26,
6.92,-3.67,-4.90,-9.96,-1.77,0.56,1.39,
6.92,-3.67,-4.90,-9.96,-1.77,0.56,1.39,
6.921,-1.83,-4.49,-10.09,-1.77,0.56,1.39,
6.921,-1.83,-4.49,-10.09,-1.77,0.56,1.39,
6.93,-1.83,-4.49,-10.09,-3.21,-0.62,1.38,
6.931,-1.83,-4.49,-10.09,-3.21,-0.62,1.38,
6.931,-0.27,-4.11,-7.12,-3.21,-0.62,1.38,
6.931,-0.27,-4.11,-7.12,-3.21,-0.62,1.38,
6.939,-0.27,-4.11,-7.12,-4.47,-2.18,0.99,
6.94,-0.27,-4.11,-7.12,-4.47,-2.18,0.99,
6.94,0.01,-3.95,-4.70,-4.47,-2.18,0.99,
6.94,0.01,-3.95,-4.70,-4.47,-2.18,0.99,
6.948,0.01,-3.95,-4.70,-4.61,-3.53,0.77,
6.949,0.01,-3.95,-4.70,-4.61,-3.53,0.77,
6.95,0.35,-3.91,-2.50,-4.61,-3.53,0.77,
6.95,0.35,-3.91,-2.50,-4.61,-3.53,0.77,
6.958,0.35,-3.91,-2.50,-3.89,-3.86,0.53,
6.959,0.35,-3.91,-2.50,-3.89,-3.86,0.53,
6.96,0.63,-3.87,-0.86,-3.89,-3.86,0.53,
6.96,0.63,-3.87,-0.86,-3.89,-3.86,0.53,
6.968,0.63,-3.87,-0.86,-3.13,-2.95,0.06,
6.969,0.63,-3.87,-0.86,-3.13,-2.95,0.06,
6.97,0.96,-3.69,-0.55,-3.13,-2.95,0.06,
6.971,0.96,-3.69,-0.55,-3.13,-2.95,0.06,
6.977,0.96,-3.69,-0.55,-2.17,-1.33,-0.04,
6.978,0.96,-3.69,-0.55,-2.17,-1.33,-0.04,
6.978,1.44,-3.40,-0.12,-2.17,-1.33,-0.04,
6.979,1.44,-3.40,-0.12,-2.17,-1.33,-0.04,
6.986,1.44,-3.40,-0.12,-1.14,0.30,-0.06,
6.987,1.44,-3.40,-0.12,-1.14,0.30,-0.06,
6.988,1.86,-3.24,0.25,-1.14,0.30,-0.06,
6.988,1.86,-3.24,0.25,-1.14,0.30,-0.06,
6.997,1.86,-3.24,0.25,-0.24,1.58,-0.15,
6.998,1.86,-3.24,0.25,-0.24,1.58,-0.15,
6.998,1.93,-3.32,0.62,-0.24,1.58,-0.15,
6.998,1.93,-3.32,0.62,-0.24,1.58,-0.15,
7.005,1.93,-3.32,0.62,0.48,2.44,-0.35,
7.006,1.93,-3.32,0.62,0.48,2.44,-0.35,
7.006,1.55,-3.58,1.03,0.48,2.44,-0.35,
7.007,1.55,-3.58,1.03,0.48,2.44,-0.35,
7.015,1.55,-3.58,1.03,1.03,2.99,-0.56,
7.015,1.55,-3.58,1.03,1.03,2.99,-0.56,
7.016,-0.16,-3.74,1.40,1.03,2.99,-0.56,
7.016,-0.16,-3.74,1.40,1.03,2.99,-0.56,
7.024,-0.16,-3.74,1.40,1.45,3.39,-0.68,
7.025,-0.16,-3.74,1.40,1.45,3.39,-0.68,
7.026,-1.97,-3.57,1.77,1.45,3.39,-0.68,
7.026,-1.97,-3.57,1.77,1.45,3.39,-0.68,
7.035,-1.97,-3.57,1.77,1.76,3.76,-0.56,
7.037,-1.97,-3.57,1.77,1.76,3.76,-0.56,
7.038,-2.25,-1.71,2.18,1.76,3.76,-0.56,
7.039,-2.25,-1.71,2.18,1.76,3.76,-0.56,
7.044,-2.25,-1.71,2.18,2.00,4.15,-0.16,
7.045,-2.25,-1.71,2.18,2.00,4.15,-0.16,
7.045,-2.60,-0.06,2.61,2.00,4.15,-0.16,
7.046,-2.60,-0.06,2.61,2.00,4.15,-0.16,
7.054,-2.60,-0.06,2.61,2.00,4.15,-0.16,
7.055,-2.60,-0.06,2.61,2.00,4.15,-0.16,
7.055,-2.60,-0.06,2.61,2.00,4.15,-0.16,
7.056,-2.60,-0.06,2.61,2.00,4.15,-0.16,
7.064,-2.60,-0.06,2.61,2.19,4.49,0.39,
7.065,-2.60,-0.06,2.61,2.19,4.49,0.39,
7.065,-2.91,2.00,2.55,2.19,4.49,0.39,
7.066,-2.91,2.00,2.55,2.19,4.49,0.39,
7.074,-2.91,2.00,2.55,2.40,4.67,0.94,
7.075,-2.91,2.00,2.55,2.40,4.67,0.94,
7.075,-2.70,2.32,-1.51,2.40,4.67,0.94,
7.076,-2.70,2.32,-1.51,2.40,4.67,0.94,
7.082,-2.70,2.32,-1.51,2.51,4.63,1.38,
7.083,-2.70,2.32,-1.51,2.51,4.63,1.38,
7.084,-2.29,2.60,-4.69,2.51,4.63,1.38,
7.085,-2.29,2.60,-4.69,2.51,4.63,1.38,
7.091,-2.29,2.60,-4.69,2.23,4.35,1.71,
7.092,-2.29,2.60,-4.69,2.23,4.35,1.71,
7.093,-1.82,2.79,-6.40,2.23,4.35,1.71,
7.093,-1.82,2.79,-6.40,2.23,4.35,1.71,
7.103,-1.82,2.79,-6.40,1.27,3.90,1.93,
7.104,-1.82,2.79,-6.40,1.27,3.90,1.93,
7.105,-1.33,2.89,-6.27,1.27,3.90,1.93,
7.105,-1.33,2.89,-6.27,1.27,3.90,1.93,
7.117,-1.33,2.89,-6.27,-0.35,3.30,2.00,
7.118,-1.33,2.89,-6.27,-0.35,3.30,2.00,
7.118,-0.90,2.97,-4.49,-0.35,3.30,2.00,
7.119,-0.90,2.97,-4.49,-0.35,3.30,2.00,
7.12,-0.90,2.97,-4.49,-2.10,2.56,1.86,
7.121,-0.90,2.97,-4.49,-2.10,2.56,1.86,
7.121,-0.47,3.07,-1.98,-2.10,2.56,1.86,
7.121,-0.47,3.07,-1.98,-2.10,2.56,1.86,
7.132,-0.47,3.07,-1.98,-3.34,1.74,1.49,
7.134,-0.47,3.07,-1.98,-3.34,1.74,1.49,
7.135,0.03,3.20,-0.03,-3.34,1.74,1.49,
7.136,0.03,3.20,-0.03,-3.34,1.74,1.49,
7.139,0.03,3.20,-0.03,-3.67,0.95,0.97,
7.14,0.03,3.20,-0.03,-3.67,0.95,0.97,
7.14,0.48,3.28,0.40,-3.67,0.95,0.97,
7.141,0.48,3.28,0.40,-3.67,0.95,0.97,
7.148,0.48,3.28,0.40,-3.10,0.29,0.45,
7.149,0.48,3.28,0.40,-3.10,0.29,0.45,
7.149,0.79,3.41,0.64,-3.10,0.29,0.45,
7.15,0.79,3.41,0.64,-3.10,0.29,0.45,
7.158,0.79,3.41,0.64,-1.98,-0.21,0.06,
