
time,ax,ay,az,wx,wy,wz,
0.001,-0.20,0.35,0.10,0.33,0.32,0.29,
0.002,-0.20,0.35,0.10,0.33,0.32,0.29,
0.002,-0.22,0.25,0.28,0.33,0.32,0.29,
0.002,-0.22,0.25,0.28,0.33,0.32,0.29,
0.003,-0.22,0.25,0.28,0.32,0.27,0.26,
0.003,-0.22,0.25,0.28,0.32,0.27,0.26,
0.003,-0.27,0.16,0.34,0.32,0.27,0.26,
0.004,-0.27,0.16,0.34,0.32,0.27,0.26,
0.014,-0.27,0.16,0.34,0.26,0.20,0.18,
0.014,-0.27,0.16,0.34,0.26,0.20,0.18,
0.015,-0.35,0.07,0.35,0.26,0.20,0.18,
0.015,-0.35,0.07,0.35,0.26,0.20,0.18,
0.029,-0.35,0.07,0.35,0.16,0.14,0.09,
0.03,-0.35,0.07,0.35,0.16,0.14,0.09,
0.031,-0.43,0.00,0.30,0.16,0.14,0.09,
0.031,-0.43,0.00,0.30,0.16,0.14,0.09,
0.031,-0.43,0.00,0.30,0.05,0.10,0.01,
0.032,-0.43,0.00,0.30,0.05,0.10,0.01,
0.032,-0.47,-0.01,0.24,0.05,0.10,0.01,
0.032,-0.47,-0.01,0.24,0.05,0.10,0.01,
0.045,-0.47,-0.01,0.24,-0.05,0.10,-0.04,
0.045,-0.47,-0.01,0.24,-0.05,0.10,-0.04,
0.046,-0.42,0.00,0.18,-0.05,0.10,-0.04,
0.046,-0.42,0.00,0.18,-0.05,0.10,-0.04,
0.051,-0.42,0.00,0.18,-0.13,0.12,-0.08,
0.051,-0.42,0.00,0.18,-0.13,0.12,-0.08,
0.052,-0.32,0.07,0.13,-0.13,0.12,-0.08,
0.052,-0.32,0.07,0.13,-0.13,0.12,-0.08,
0.06,-0.32,0.07,0.13,-0.17,0.13,-0.10,
0.06,-0.32,0.07,0.13,-0.17,0.13,-0.10,
0.061,-0.19,0.17,0.13,-0.17,0.13,-0.10,
0.061,-0.19,0.17,0.13,-0.17,0.13,-0.10,
0.07,-0.19,0.17,0.13,-0.18,0.12,-0.12,
0.07,-0.19,0.17,0.13,-0.18,0.12,-0.12,
0.07,-0.05,0.27,0.15,-0.18,0.12,-0.12,
0.071,-0.05,0.27,0.15,-0.18,0.12,-0.12,
0.079,-0.05,0.27,0.15,-0.15,0.09,-0.12,
0.08,-0.05,0.27,0.15,-0.15,0.09,-0.12,
0.08,0.04,0.33,0.19,-0.15,0.09,-0.12,
0.081,0.04,0.33,0.19,-0.15,0.09,-0.12,
0.089,0.04,0.33,0.19,-0.10,0.03,-0.09,
0.09,0.04,0.33,0.19,-0.10,0.03,-0.09,
0.09,0.08,0.33,0.27,-0.10,0.03,-0.09,
0.091,0.08,0.33,0.27,-0.10,0.03,-0.09,
0.1,0.08,0.33,0.27,-0.10,0.03,-0.09,
0.101,0.08,0.33,0.27,-0.10,0.03,-0.09,
0.102,0.08,0.33,0.27,-0.10,0.03,-0.09,
0.102,0.08,0.33,0.27,-0.10,0.03,-0.09,
0.107,0.08,0.33,0.27,-0.03,-0.04,-0.04,
0.108,0.08,0.33,0.27,-0.03,-0.04,-0.04,
0.109,-0.06,0.19,0.39,-0.03,-0.04,-0.04,
0.11,-0.06,0.19,0.39,-0.03,-0.04,-0.04,
0.118,-0.06,0.19,0.39,0.02,-0.10,0.02,
0.119,-0.06,0.19,0.39,0.02,-0.10,0.02,
0.119,-0.15,0.08,0.43,0.02,-0.10,0.02,
0.12,-0.15,0.08,0.43,0.02,-0.10,0.02,
0.133,-0.15,0.08,0.43,0.04,-0.13,0.06,
0.134,-0.15,0.08,0.43,0.04,-0.13,0.06,
0.135,-0.23,-0.00,0.42,0.04,-0.13,0.06,
0.135,-0.23,-0.00,0.42,0.04,-0.13,0.06,
0.138,-0.23,-0.00,0.42,0.02,-0.13,0.04,
0.139,-0.23,-0.00,0.42,0.02,-0.13,0.04,
0.14,-0.25,-0.05,0.37,0.02,-0.13,0.04,
0.14,-0.25,-0.05,0.37,0.02,-0.13,0.04,
0.146,-0.25,-0.05,0.37,-0.03,-0.11,-0.01,
0.147,-0.25,-0.05,0.37,-0.03,-0.11,-0.01,
0.148,-0.26,-0.05,0.30,-0.03,-0.11,-0.01,
0.149,-0.26,-0.05,0.30,-0.03,-0.11,-0.01,
0.155,-0.26,-0.05,0.30,-0.08,-0.08,-0.08,
0.156,-0.26,-0.05,0.30,-0.08,-0.08,-0.08,
0.157,-0.22,-0.01,0.22,-0.08,-0.08,-0.08,
0.157,-0.22,-0.01,0.22,-0.08,-0.08,-0.08,
0.165,-0.22,-0.01,0.22,-0.12,-0.04,-0.12,
0.166,-0.22,-0.01,0.22,-0.12,-0.04,-0.12,
0.166,-0.15,0.04,0.17,-0.12,-0.04,-0.12,
0.167,-0.15,0.04,0.17,-0.12,-0.04,-0.12,
0.174,-0.15,0.04,0.17,-0.14,-0.01,-0.13,
0.176,-0.15,0.04,0.17,-0.14,-0.01,-0.13,
0.177,-0.09,0.08,0.10,-0.14,-0.01,-0.13,
0.178,-0.09,0.08,0.10,-0.14,-0.01,-0.13,
0.184,-0.09,0.08,0.10,-0.13,0.01,-0.12,
0.185,-0.09,0.08,0.10,-0.13,0.01,-0.12,
0.185,0.00,0.14,0.06,-0.13,0.01,-0.12,
0.186,0.00,0.14,0.06,-0.13,0.01,-0.12,
0.193,0.00,0.14,0.06,-0.09,0.02,-0.09,
0.195,0.00,0.14,0.06,-0.09,0.02,-0.09,
0.196,0.07,0.17,0.01,-0.09,0.02,-0.09,
0.197,0.07,0.17,0.01,-0.09,0.02,-0.09,
0.204,0.07,0.17,0.01,-0.04,-0.00,-0.05,
0.206,0.07,0.17,0.01,-0.04,-0.00,-0.05,
0.207,0.11,0.19,-0.04,-0.04,-0.00,-0.05,
0.208,0.11,0.19,-0.04,-0.04,-0.00,-0.05,
0.227,0.11,0.19,-0.04,0.06,-0.08,-0.01,
0.228,0.11,0.19,-0.04,0.06,-0.08,-0.01,
0.229,0.11,0.19,-0.04,0.06,-0.08,-0.01,
0.229,0.11,0.19,-0.04,0.06,-0.08,-0.01,
0.23,0.09,0.18,-0.03,0.06,-0.08,-0.01,
0.23,0.09,0.18,-0.03,0.06,-0.08,-0.01,
0.231,0.09,0.18,-0.03,0.06,-0.08,-0.01,
0.231,0.09,0.18,-0.03,0.06,-0.08,-0.01,
0.237,0.09,0.18,-0.03,0.11,-0.11,0.01,
0.239,0.09,0.18,-0.03,0.11,-0.11,0.01,
0.239,-0.01,0.10,0.15,0.11,-0.11,0.01,
0.24,-0.01,0.10,0.15,0.11,-0.11,0.01,
0.241,-0.01,0.10,0.15,0.13,-0.12,0.01,
0.242,-0.01,0.10,0.15,0.13,-0.12,0.01,
0.243,-0.06,0.03,0.30,0.13,-0.12,0.01,
0.243,-0.06,0.03,0.30,0.13,-0.12,0.01,
0.254,-0.06,0.03,0.30,0.13,-0.11,0.01,
0.255,-0.06,0.03,0.30,0.13,-0.11,0.01,
0.257,-0.07,-0.03,0.42,0.13,-0.11,0.01,
0.258,-0.07,-0.03,0.42,0.13,-0.11,0.01,
0.26,-0.07,-0.03,0.42,0.09,-0.08,0.01,
0.261,-0.07,-0.03,0.42,0.09,-0.08,0.01,
0.263,-0.07,-0.07,0.52,0.09,-0.08,0.01,
0.264,-0.07,-0.07,0.52,0.09,-0.08,0.01,
0.269,-0.07,-0.07,0.52,0.03,-0.05,0.00,
0.27,-0.07,-0.07,0.52,0.03,-0.05,0.00,
0.27,-0.01,-0.08,0.55,0.03,-0.05,0.00,
0.271,-0.01,-0.08,0.55,0.03,-0.05,0.00,
0.28,-0.01,-0.08,0.55,-0.05,-0.02,-0.01,
0.28,-0.01,-0.08,0.55,-0.05,-0.02,-0.01,
0.281,0.04,-0.05,0.51,-0.05,-0.02,-0.01,
0.281,0.04,-0.05,0.51,-0.05,-0.02,-0.01,
0.289,0.04,-0.05,0.51,-0.11,0.00,-0.02,
0.29,0.04,-0.05,0.51,-0.11,0.00,-0.02,
0.29,0.10,0.02,0.45,-0.11,0.00,-0.02,
0.291,0.10,0.02,0.45,-0.11,0.00,-0.02,
0.298,0.10,0.02,0.45,-0.11,0.00,-0.02,
0.299,0.10,0.02,0.45,-0.11,0.00,-0.02,
0.299,0.10,0.02,0.45,-0.11,0.00,-0.02,
0.3,0.10,0.02,0.45,-0.11,0.00,-0.02,
0.308,0.10,0.02,0.45,-0.16,0.00,-0.03,
0.309,0.10,0.02,0.45,-0.16,0.00,-0.03,
0.31,0.15,0.19,0.24,-0.16,0.00,-0.03,
0.311,0.15,0.19,0.24,-0.16,0.00,-0.03,
0.317,0.15,0.19,0.24,-0.17,-0.01,-0.01,
0.317,0.15,0.19,0.24,-0.17,-0.01,-0.01,
0.318,0.13,0.25,0.13,-0.17,-0.01,-0.01,
0.318,0.13,0.25,0.13,-0.17,-0.01,-0.01,
0.328,0.13,0.25,0.13,-0.13,-0.03,0.00,
0.33,0.13,0.25,0.13,-0.13,-0.03,0.00,
0.331,0.07,0.25,0.03,-0.13,-0.03,0.00,
0.332,0.07,0.25,0.03,-0.13,-0.03,0.00,
0.336,0.07,0.25,0.03,-0.06,-0.04,0.03,
0.338,0.07,0.25,0.03,-0.06,-0.04,0.03,
0.339,0.00,0.20,-0.03,-0.06,-0.04,0.03,
0.339,0.00,0.20,-0.03,-0.06,-0.04,0.03,
0.346,0.00,0.20,-0.03,0.02,-0.04,0.05,
0.347,0.00,0.20,-0.03,0.02,-0.04,0.05,
0.347,-0.03,0.14,-0.06,0.02,-0.04,0.05,
0.347,-0.03,0.14,-0.06,0.02,-0.04,0.05,
0.356,-0.03,0.14,-0.06,0.10,-0.01,0.08,
0.357,-0.03,0.14,-0.06,0.10,-0.01,0.08,
0.358,-0.02,0.08,-0.02,0.10,-0.01,0.08,
0.358,-0.02,0.08,-0.02,0.10,-0.01,0.08,
0.365,-0.02,0.08,-0.02,0.13,0.03,0.11,
0.366,-0.02,0.08,-0.02,0.13,0.03,0.11,
0.366,0.06,0.05,0.05,0.13,0.03,0.11,
0.367,0.06,0.05,0.05,0.13,0.03,0.11,
0.375,0.06,0.05,0.05,0.14,0.06,0.13,
0.376,0.06,0.05,0.05,0.14,0.06,0.13,
0.377,0.14,0.07,0.16,0.14,0.06,0.13,
0.377,0.14,0.07,0.16,0.14,0.06,0.13,
0.384,0.14,0.07,0.16,0.12,0.08,0.14,
0.385,0.14,0.07,0.16,0.12,0.08,0.14,
0.385,0.20,0.13,0.25,0.12,0.08,0.14,
0.386,0.20,0.13,0.25,0.12,0.08,0.14,
0.393,0.20,0.13,0.25,0.10,0.06,0.13,
0.394,0.20,0.13,0.25,0.10,0.06,0.13,
0.395,0.25,0.17,0.36,0.10,0.06,0.13,
0.395,0.25,0.17,0.36,0.10,0.06,0.13,
0.402,0.25,0.17,0.36,0.07,0.02,0.12,
0.403,0.25,0.17,0.36,0.07,0.02,0.12,
0.404,0.25,0.20,0.41,0.07,0.02,0.12,
0.404,0.25,0.20,0.41,0.07,0.02,0.12,
0.412,0.25,0.20,0.41,0.05,-0.03,0.10,
0.413,0.25,0.20,0.41,0.05,-0.03,0.10,
0.414,0.25,0.21,0.41,0.05,-0.03,0.10,
0.414,0.25,0.21,0.41,0.05,-0.03,0.10,
0.431,0.25,0.21,0.41,0.03,-0.08,0.07,
0.433,0.25,0.21,0.41,0.03,-0.08,0.07,
0.434,0.22,0.22,0.34,0.03,-0.08,0.07,
0.435,0.22,0.22,0.34,0.03,-0.08,0.07,
0.436,0.22,0.22,0.34,0.03,-0.13,0.04,
0.436,0.22,0.22,0.34,0.03,-0.13,0.04,
0.438,0.21,0.22,0.25,0.03,-0.13,0.04,
0.439,0.21,0.22,0.25,0.03,-0.13,0.04,
0.45,0.21,0.22,0.25,0.03,-0.15,0.01,
0.451,0.21,0.22,0.25,0.03,-0.15,0.01,
0.452,0.17,0.24,0.18,0.03,-0.15,0.01,
0.452,0.17,0.24,0.18,0.03,-0.15,0.01,
0.453,0.17,0.24,0.18,0.04,-0.14,0.02,
0.453,0.17,0.24,0.18,0.04,-0.14,0.02,
0.454,0.13,0.24,0.15,0.04,-0.14,0.02,
0.454,0.13,0.24,0.15,0.04,-0.14,0.02,
0.46,0.13,0.24,0.15,0.05,-0.12,0.04,
0.461,0.13,0.24,0.15,0.05,-0.12,0.04,
0.461,0.10,0.26,0.17,0.05,-0.12,0.04,
0.462,0.10,0.26,0.17,0.05,-0.12,0.04,
0.47,0.10,0.26,0.17,0.07,-0.09,0.05,
0.471,0.10,0.26,0.17,0.07,-0.09,0.05,
0.472,0.03,0.26,0.25,0.07,-0.09,0.05,
0.472,0.03,0.26,0.25,0.07,-0.09,0.05,
0.48,0.03,0.26,0.25,0.09,-0.06,0.06,
0.48,0.03,0.26,0.25,0.09,-0.06,0.06,
0.481,-0.01,0.21,0.37,0.09,-0.06,0.06,
0.481,-0.01,0.21,0.37,0.09,-0.06,0.06,
0.489,-0.01,0.21,0.37,0.09,-0.06,0.06,
0.49,-0.01,0.21,0.37,0.09,-0.06,0.06,
0.491,-0.01,0.21,0.37,0.09,-0.06,0.06,
0.491,-0.01,0.21,0.37,0.09,-0.06,0.06,
0.499,-0.01,0.21,0.37,0.09,-0.01,0.07,
0.5,-0.01,0.21,0.37,0.09,-0.01,0.07,
0.5,-0.05,-0.03,0.67,0.09,-0.01,0.07,
0.501,-0.05,-0.03,0.67,0.09,-0.01,0.07,
0.507,-0.05,-0.03,0.67,0.08,0.02,0.06,
0.509,-0.05,-0.03,0.67,0.08,0.02,0.06,
0.51,-0.03,-0.14,0.77,0.08,0.02,0.06,
0.511,-0.03,-0.14,0.77,0.08,0.02,0.06,
0.516,-0.03,-0.14,0.77,0.02,0.05,0.01,
0.517,-0.03,-0.14,0.77,0.02,0.05,0.01,
0.518,-0.00,-0.18,0.72,0.02,0.05,0.01,
0.518,-0.00,-0.18,0.72,0.02,0.05,0.01,
0.526,-0.00,-0.18,0.72,-0.07,0.05,-0.05,
0.527,-0.00,-0.18,0.72,-0.07,0.05,-0.05,
0.527,0.02,-0.13,0.52,-0.07,0.05,-0.05,
0.528,0.02,-0.13,0.52,-0.07,0.05,-0.05,
0.536,0.02,-0.13,0.52,-0.17,0.05,-0.10,
0.537,0.02,-0.13,0.52,-0.17,0.05,-0.10,
0.537,0.06,-0.02,0.20,-0.17,0.05,-0.10,
0.537,0.06,-0.02,0.20,-0.17,0.05,-0.10,
0.546,0.06,-0.02,0.20,-0.24,0.04,-0.12,
0.547,0.06,-0.02,0.20,-0.24,0.04,-0.12,
0.547,0.07,0.07,-0.20,-0.24,0.04,-0.12,
0.548,0.07,0.07,-0.20,-0.24,0.04,-0.12,
0.555,0.07,0.07,-0.20,-0.25,0.03,-0.11,
0.556,0.07,0.07,-0.20,-0.25,0.03,-0.11,
0.556,0.09,0.14,-0.60,-0.25,0.03,-0.11,
0.557,0.09,0.14,-0.60,-0.25,0.03,-0.11,
0.565,0.09,0.14,-0.60,-0.18,0.02,-0.07,
0.566,0.09,0.14,-0.60,-0.18,0.02,-0.07,
0.567,0.10,0.18,-0.92,-0.18,0.02,-0.07,
0.568,0.10,0.18,-0.92,-0.18,0.02,-0.07,
0.574,0.10,0.18,-0.92,-0.07,0.03,0.01,
0.576,0.10,0.18,-0.92,-0.07,0.03,0.01,
0.577,0.15,0.21,-1.10,-0.07,0.03,0.01,
0.577,0.15,0.21,-1.10,-0.07,0.03,0.01,
0.583,0.15,0.21,-1.10,0.08,0.04,0.12,
0.584,0.15,0.21,-1.10,0.08,0.04,0.12,
0.584,0.28,0.23,-1.11,0.08,0.04,0.12,
0.585,0.28,0.23,-1.11,0.08,0.04,0.12,
0.593,0.28,0.23,-1.11,0.23,0.05,0.24,
0.594,0.28,0.23,-1.11,0.23,0.05,0.24,
0.594,0.53,0.30,-0.89,0.23,0.05,0.24,
0.595,0.53,0.30,-0.89,0.23,0.05,0.24,
0.603,0.53,0.30,-0.89,0.35,0.04,0.35,
0.604,0.53,0.30,-0.89,0.35,0.04,0.35,
0.604,0.92,0.39,-0.51,0.35,0.04,0.35,
0.604,0.92,0.39,-0.51,0.35,0.04,0.35,
0.611,0.92,0.39,-0.51,0.45,-0.02,0.44,
0.612,0.92,0.39,-0.51,0.45,-0.02,0.44,
0.612,1.33,0.41,-0.08,0.45,-0.02,0.44,
0.613,1.33,0.41,-0.08,0.45,-0.02,0.44,
0.623,1.33,0.41,-0.08,0.49,-0.17,0.48,
0.624,1.33,0.41,-0.08,0.49,-0.17,0.48,
0.624,1.73,0.38,0.37,0.49,-0.17,0.48,
0.625,1.73,0.38,0.37,0.49,-0.17,0.48,
0.631,1.73,0.38,0.37,0.47,-0.40,0.46,
0.632,1.73,0.38,0.37,0.47,-0.40,0.46,
0.632,2.05,0.30,0.75,0.47,-0.40,0.46,
0.632,2.05,0.30,0.75,0.47,-0.40,0.46,
0.64,2.05,0.30,0.75,0.39,-0.71,0.38,
0.641,2.05,0.30,0.75,0.39,-0.71,0.38,
0.642,2.27,0.16,1.01,0.39,-0.71,0.38,
0.642,2.27,0.16,1.01,0.39,-0.71,0.38,
0.65,2.27,0.16,1.01,0.25,-1.05,0.24,
0.651,2.27,0.16,1.01,0.25,-1.05,0.24,
0.652,2.46,0.02,1.03,0.25,-1.05,0.24,
0.652,2.46,0.02,1.03,0.25,-1.05,0.24,
0.66,2.46,0.02,1.03,0.06,-1.38,0.04,
0.661,2.46,0.02,1.03,0.06,-1.38,0.04,
0.662,2.54,-0.20,0.58,0.06,-1.38,0.04,
0.662,2.54,-0.20,0.58,0.06,-1.38,0.04,
0.671,2.54,-0.20,0.58,-0.14,-1.65,-0.19,
0.672,2.54,-0.20,0.58,-0.14,-1.65,-0.19,
0.673,2.41,-0.62,-1.45,-0.14,-1.65,-0.19,
0.674,2.41,-0.62,-1.45,-0.14,-1.65,-0.19,
0.679,2.41,-0.62,-1.45,-0.33,-1.85,-0.39,
0.68,2.41,-0.62,-1.45,-0.33,-1.85,-0.39,
0.681,2.13,-1.12,-3.25,-0.33,-1.85,-0.39,
0.681,2.13,-1.12,-3.25,-0.33,-1.85,-0.39,
0.688,2.13,-1.12,-3.25,-0.33,-1.85,-0.39,
0.689,2.13,-1.12,-3.25,-0.33,-1.85,-0.39,
0.69,2.13,-1.12,-3.25,-0.33,-1.85,-0.39,
0.691,2.13,-1.12,-3.25,-0.33,-1.85,-0.39,
0.698,2.13,-1.12,-3.25,-0.44,-1.97,-0.54,
0.699,2.13,-1.12,-3.25,-0.44,-1.97,-0.54,
0.699,1.50,-1.54,-4.95,-0.44,-1.97,-0.54,
0.7,1.50,-1.54,-4.95,-0.44,-1.97,-0.54,
0.707,1.50,-1.54,-4.95,-0.45,-2.04,-0.62,
0.708,1.50,-1.54,-4.95,-0.45,-2.04,-0.62,
0.709,1.52,-1.25,-4.86,-0.45,-2.04,-0.62,
0.711,1.52,-1.25,-4.86,-0.45,-2.04,-0.62,
0.716,1.52,-1.25,-4.86,-0.36,-2.04,-0.62,
0.717,1.52,-1.25,-4.86,-0.36,-2.04,-0.62,
0.718,1.77,-0.80,-3.25,-0.36,-2.04,-0.62,
0.718,1.77,-0.80,-3.25,-0.36,-2.04,-0.62,
0.726,1.77,-0.80,-3.25,-0.18,-1.97,-0.54,
0.728,1.77,-0.80,-3.25,-0.18,-1.97,-0.54,
0.729,2.16,-0.42,-2.72,-0.18,-1.97,-0.54,
0.731,2.16,-0.42,-2.72,-0.18,-1.97,-0.54,
0.736,2.16,-0.42,-2.72,0.01,-1.83,-0.41,
0.737,2.16,-0.42,-2.72,0.01,-1.83,-0.41,
0.737,2.63,-0.14,-1.22,0.01,-1.83,-0.41,
0.737,2.63,-0.14,-1.22,0.01,-1.83,-0.41,
0.745,2.63,-0.14,-1.22,0.16,-1.69,-0.27,
0.746,2.63,-0.14,-1.22,0.16,-1.69,-0.27,
0.747,3.13,-0.03,-1.13,0.16,-1.69,-0.27,
0.747,3.13,-0.03,-1.13,0.16,-1.69,-0.27,
0.755,3.13,-0.03,-1.13,0.23,-1.59,-0.16,
0.756,3.13,-0.03,-1.13,0.23,-1.59,-0.16,
0.757,3.54,-0.02,-1.36,0.23,-1.59,-0.16,
0.757,3.54,-0.02,-1.36,0.23,-1.59,-0.16,
0.765,3.54,-0.02,-1.36,0.24,-1.60,-0.10,
0.766,3.54,-0.02,-1.36,0.24,-1.60,-0.10,
0.766,3.83,-0.16,-1.96,0.24,-1.60,-0.10,
0.767,3.83,-0.16,-1.96,0.24,-1.60,-0.10,
0.774,3.83,-0.16,-1.96,0.20,-1.72,-0.07,
0.776,3.83,-0.16,-1.96,0.20,-1.72,-0.07,
0.776,3.89,-0.50,-3.44,0.20,-1.72,-0.07,
0.777,3.89,-0.50,-3.44,0.20,-1.72,-0.07,
0.783,3.89,-0.50,-3.44,0.14,-1.96,-0.11,
0.784,3.89,-0.50,-3.44,0.14,-1.96,-0.11,
0.785,3.72,-0.94,-3.71,0.14,-1.96,-0.11,
0.785,3.72,-0.94,-3.71,0.14,-1.96,-0.11,
0.793,3.72,-0.94,-3.71,0.10,-2.27,-0.20,
0.794,3.72,-0.94,-3.71,0.10,-2.27,-0.20,
0.795,3.47,-1.43,-3.97,0.10,-2.27,-0.20,
0.795,3.47,-1.43,-3.97,0.10,-2.27,-0.20,
0.802,3.47,-1.43,-3.97,0.02,-2.59,-0.29,
0.803,3.47,-1.43,-3.97,0.02,-2.59,-0.29,
0.803,3.23,-1.91,-4.22,0.02,-2.59,-0.29,
0.804,3.23,-1.91,-4.22,0.02,-2.59,-0.29,
0.812,3.23,-1.91,-4.22,0.00,-2.85,-0.31,
0.813,3.23,-1.91,-4.22,0.00,-2.85,-0.31,
0.813,3.09,-2.35,-4.44,0.00,-2.85,-0.31,
0.814,3.09,-2.35,-4.44,0.00,-2.85,-0.31,
0.822,3.09,-2.35,-4.44,0.06,-3.01,-0.26,
0.823,3.09,-2.35,-4.44,0.06,-3.01,-0.26,
0.823,3.10,-2.71,-4.55,0.06,-3.01,-0.26,
0.824,3.10,-2.71,-4.55,0.06,-3.01,-0.26,
0.831,3.10,-2.71,-4.55,0.10,-3.08,-0.22,
0.832,3.10,-2.71,-4.55,0.10,-3.08,-0.22,
0.832,3.29,-2.95,-4.69,0.10,-3.08,-0.22,
0.833,3.29,-2.95,-4.69,0.10,-3.08,-0.22,
0.841,3.29,-2.95,-4.69,-0.20,-2.64,-0.18,
0.842,3.29,-2.95,-4.69,-0.20,-2.64,-0.18,
0.842,3.61,-3.07,-4.94,-0.20,-2.64,-0.18,
0.843,3.61,-3.07,-4.94,-0.20,-2.64,-0.18,
0.853,3.61,-3.07,-4.94,-0.83,-1.82,-0.16,
0.853,3.61,-3.07,-4.94,-0.83,-1.82,-0.16,
0.854,4.03,-3.06,-5.11,-0.83,-1.82,-0.16,
0.854,4.03,-3.06,-5.11,-0.83,-1.82,-0.16,
0.859,4.03,-3.06,-5.11,-1.00,-1.69,-0.13,
0.86,4.03,-3.06,-5.11,-1.00,-1.69,-0.13,
0.861,4.37,-3.05,-5.07,-1.00,-1.69,-0.13,
0.861,4.37,-3.05,-5.07,-1.00,-1.69,-0.13,
0.869,4.37,-3.05,-5.07,-1.15,-2.19,-0.13,
0.87,4.37,-3.05,-5.07,-1.15,-2.19,-0.13,
0.871,4.51,-3.10,-4.85,-1.15,-2.19,-0.13,
0.871,4.51,-3.10,-4.85,-1.15,-2.19,-0.13,
0.879,4.51,-3.10,-4.85,-1.15,-2.19,-0.13,
0.88,4.51,-3.10,-4.85,-1.15,-2.19,-0.13,
0.88,4.51,-3.10,-4.85,-1.15,-2.19,-0.13,
0.881,4.51,-3.10,-4.85,-1.15,-2.19,-0.13,
0.888,4.51,-3.10,-4.85,-1.62,-2.68,-0.13,
0.89,4.51,-3.10,-4.85,-1.62,-2.68,-0.13,
0.891,4.39,-3.46,-4.00,-1.62,-2.68,-0.13,
0.892,4.39,-3.46,-4.00,-1.62,-2.68,-0.13,
0.898,4.39,-3.46,-4.00,-1.92,-3.04,-0.08,
0.899,4.39,-3.46,-4.00,-1.92,-3.04,-0.08,
0.9,4.22,-3.69,-3.87,-1.92,-3.04,-0.08,
0.901,4.22,-3.69,-3.87,-1.92,-3.04,-0.08,
0.907,4.22,-3.69,-3.87,-2.06,-3.14,0.10,
0.908,4.22,-3.69,-3.87,-2.06,-3.14,0.10,
0.909,4.14,-3.94,-3.96,-2.06,-3.14,0.10,
0.91,4.14,-3.94,-3.96,-2.06,-3.14,0.10,
0.916,4.14,-3.94,-3.96,-2.08,-2.96,0.39,
0.917,4.14,-3.94,-3.96,-2.08,-2.96,0.39,
0.917,4.09,-4.18,-4.17,-2.08,-2.96,0.39,
0.918,4.09,-4.18,-4.17,-2.08,-2.96,0.39,
0.926,4.09,-4.18,-4.17,-2.05,-2.66,0.70,
0.927,4.09,-4.18,-4.17,-2.05,-2.66,0.70,
0.928,4.01,-4.43,-4.30,-2.05,-2.66,0.70,
0.928,4.01,-4.43,-4.30,-2.05,-2.66,0.70,
0.935,4.01,-4.43,-4.30,-2.01,-2.37,1.00,
0.936,4.01,-4.43,-4.30,-2.01,-2.37,1.00,
0.937,3.87,-4.66,-4.28,-2.01,-2.37,1.00,
0.937,3.87,-4.66,-4.28,-2.01,-2.37,1.00,
0.945,3.87,-4.66,-4.28,-1.96,-2.15,1.26,
0.946,3.87,-4.66,-4.28,-1.96,-2.15,1.26,
0.946,3.63,-4.88,-4.20,-1.96,-2.15,1.26,
0.947,3.63,-4.88,-4.20,-1.96,-2.15,1.26,
0.954,3.63,-4.88,-4.20,-1.90,-1.99,1.50,
0.956,3.63,-4.88,-4.20,-1.90,-1.99,1.50,
0.956,3.26,-5.12,-4.25,-1.90,-1.99,1.50,
0.957,3.26,-5.12,-4.25,-1.90,-1.99,1.50,
0.964,3.26,-5.12,-4.25,-1.82,-1.83,1.74,
0.965,3.26,-5.12,-4.25,-1.82,-1.83,1.74,
0.966,2.76,-5.41,-4.53,-1.82,-1.83,1.74,
0.966,2.76,-5.41,-4.53,-1.82,-1.83,1.74,
0.975,2.76,-5.41,-4.53,-1.72,-1.66,1.99,
0.976,2.76,-5.41,-4.53,-1.72,-1.66,1.99,
0.977,2.19,-5.77,-4.91,-1.72,-1.66,1.99,
0.978,2.19,-5.77,-4.91,-1.72,-1.66,1.99,
0.983,2.19,-5.77,-4.91,-1.61,-1.49,2.26,
0.984,2.19,-5.77,-4.91,-1.61,-1.49,2.26,
0.984,1.75,-6.09,-5.15,-1.61,-1.49,2.26,
0.985,1.75,-6.09,-5.15,-1.61,-1.49,2.26,
0.993,1.75,-6.09,-5.15,-1.55,-1.34,2.55,
0.994,1.75,-6.09,-5.15,-1.55,-1.34,2.55,
0.995,1.58,-6.29,-5.04,-1.55,-1.34,2.55,
0.995,1.58,-6.29,-5.04,-1.55,-1.34,2.55,
1.002,1.58,-6.29,-5.04,-1.56,-1.24,2.86,
1.003,1.58,-6.29,-5.04,-1.56,-1.24,2.86,
1.003,1.80,-6.32,-4.62,-1.56,-1.24,2.86,
1.004,1.80,-6.32,-4.62,-1.56,-1.24,2.86,
1.011,1.80,-6.32,-4.62,-1.58,-1.17,3.17,
1.012,1.80,-6.32,-4.62,-1.58,-1.17,3.17,
1.013,3.32,-6.18,-4.08,-1.58,-1.17,3.17,
1.013,3.32,-6.18,-4.08,-1.58,-1.17,3.17,
1.021,3.32,-6.18,-4.08,-1.52,-1.18,3.42,
1.022,3.32,-6.18,-4.08,-1.52,-1.18,3.42,
1.023,5.11,-5.98,-3.54,-1.52,-1.18,3.42,
1.023,5.11,-5.98,-3.54,-1.52,-1.18,3.42,
1.031,5.11,-5.98,-3.54,-1.29,-1.34,3.48,
1.031,5.11,-5.98,-3.54,-1.29,-1.34,3.48,
1.032,5.33,-5.82,-2.98,-1.29,-1.34,3.48,
1.033,5.33,-5.82,-2.98,-1.29,-1.34,3.48,
1.041,5.33,-5.82,-2.98,-0.87,-1.67,3.31,
1.042,5.33,-5.82,-2.98,-0.87,-1.67,3.31,
1.043,6.68,-5.75,-0.94,-0.87,-1.67,3.31,
1.043,6.68,-5.75,-0.94,-0.87,-1.67,3.31,
1.05,6.68,-5.75,-0.94,-0.28,-2.05,2.97,
1.05,6.68,-5.75,-0.94,-0.28,-2.05,2.97,
1.051,6.84,-5.69,0.82,-0.28,-2.05,2.97,
1.051,6.84,-5.69,0.82,-0.28,-2.05,2.97,
1.06,6.84,-5.69,0.82,0.47,-2.24,2.64,
1.061,6.84,-5.69,0.82,0.47,-2.24,2.64,
1.062,7.01,-5.57,2.73,0.47,-2.24,2.64,
1.062,7.01,-5.57,2.73,0.47,-2.24,2.64,
1.069,7.01,-5.57,2.73,1.34,-2.12,2.43,
1.07,7.01,-5.57,2.73,1.34,-2.12,2.43,
1.071,7.16,-5.32,3.32,1.34,-2.12,2.43,
1.071,7.16,-5.32,3.32,1.34,-2.12,2.43,
1.078,7.16,-5.32,3.32,1.34,-2.12,2.43,
1.079,7.16,-5.32,3.32,1.34,-2.12,2.43,
1.079,7.16,-5.32,3.32,1.34,-2.12,2.43,
1.08,7.16,-5.32,3.32,1.34,-2.12,2.43,
1.088,7.16,-5.32,3.32,2.19,-1.74,2.34,
1.089,7.16,-5.32,3.32,2.19,-1.74,2.34,
1.09,7.92,-4.60,4.87,2.19,-1.74,2.34,
1.09,7.92,-4.60,4.87,2.19,-1.74,2.34,
1.097,7.92,-4.60,4.87,2.89,-1.26,2.32,
1.098,7.92,-4.60,4.87,2.89,-1.26,2.32,
1.099,8.33,-4.05,4.77,2.89,-1.26,2.32,
1.099,8.33,-4.05,4.77,2.89,-1.26,2.32,
1.107,8.33,-4.05,4.77,3.41,-0.83,2.28,
1.108,8.33,-4.05,4.77,3.41,-0.83,2.28,
1.109,8.74,-3.53,4.40,3.41,-0.83,2.28,
1.109,8.74,-3.53,4.40,3.41,-0.83,2.28,
1.116,8.74,-3.53,4.40,3.77,-0.56,2.19,
1.117,8.74,-3.53,4.40,3.77,-0.56,2.19,
1.118,9.02,-3.06,2.72,3.77,-0.56,2.19,
1.118,9.02,-3.06,2.72,3.77,-0.56,2.19,
1.126,9.02,-3.06,2.72,3.98,-0.49,2.08,
1.128,9.02,-3.06,2.72,3.98,-0.49,2.08,
1.129,9.15,-2.68,2.53,3.98,-0.49,2.08,
1.129,9.15,-2.68,2.53,3.98,-0.49,2.08,
1.136,9.15,-2.68,2.53,4.06,-0.63,1.94,
1.138,9.15,-2.68,2.53,4.06,-0.63,1.94,
1.138,9.23,-2.38,2.10,4.06,-0.63,1.94,
1.139,9.23,-2.38,2.10,4.06,-0.63,1.94,
1.144,9.23,-2.38,2.10,4.05,-0.90,1.82,
1.145,9.23,-2.38,2.10,4.05,-0.90,1.82,
1.146,9.35,-2.06,1.59,4.05,-0.90,1.82,
1.146,9.35,-2.06,1.59,4.05,-0.90,1.82,
1.154,9.35,-2.06,1.59,4.00,-1.23,1.73,
1.155,9.35,-2.06,1.59,4.00,-1.23,1.73,
1.156,9.50,-1.74,0.05,4.00,-1.23,1.73,
1.156,9.50,-1.74,0.05,4.00,-1.23,1.73,
1.164,9.50,-1.74,0.05,3.92,-1.55,1.65,
1.165,9.50,-1.74,0.05,3.92,-1.55,1.65,
1.165,9.66,-1.37,-0.06,3.92,-1.55,1.65,
1.166,9.66,-1.37,-0.06,3.92,-1.55,1.65,
1.173,9.66,-1.37,-0.06,3.83,-1.88,1.59,
1.175,9.66,-1.37,-0.06,3.83,-1.88,1.59,
1.175,9.76,-0.97,-0.36,3.83,-1.88,1.59,
1.176,9.76,-0.97,-0.36,3.83,-1.88,1.59,
1.183,9.76,-0.97,-0.36,3.75,-2.22,1.54,
1.184,9.76,-0.97,-0.36,3.75,-2.22,1.54,
1.185,9.71,-0.59,-1.85,3.75,-2.22,1.54,
1.186,9.71,-0.59,-1.85,3.75,-2.22,1.54,
1.192,9.71,-0.59,-1.85,3.67,-2.54,1.46,
1.194,9.71,-0.59,-1.85,3.67,-2.54,1.46,
1.195,9.48,-0.33,-1.96,3.67,-2.54,1.46,
1.195,9.48,-0.33,-1.96,3.67,-2.54,1.46,
1.202,9.48,-0.33,-1.96,3.59,-2.82,1.37,
1.204,9.48,-0.33,-1.96,3.59,-2.82,1.37,
1.205,9.13,-0.19,-2.28,3.59,-2.82,1.37,
1.205,9.13,-0.19,-2.28,3.59,-2.82,1.37,
1.224,9.13,-0.19,-2.28,3.51,-3.07,1.27,
1.225,9.13,-0.19,-2.28,3.51,-3.07,1.27,
1.227,8.67,-0.17,-2.65,3.51,-3.07,1.27,
1.228,8.67,-0.17,-2.65,3.51,-3.07,1.27,
1.229,8.67,-0.17,-2.65,3.44,-3.27,1.18,
1.23,8.67,-0.17,-2.65,3.44,-3.27,1.18,
1.23,8.16,-0.26,-2.91,3.44,-3.27,1.18,
1.231,8.16,-0.26,-2.91,3.44,-3.27,1.18,
1.232,8.16,-0.26,-2.91,3.38,-3.38,1.11,
1.232,8.16,-0.26,-2.91,3.38,-3.38,1.11,
1.233,7.59,-0.32,-3.02,3.38,-3.38,1.11,
1.233,7.59,-0.32,-3.02,3.38,-3.38,1.11,
1.241,7.59,-0.32,-3.02,3.31,-3.41,1.08,
1.242,7.59,-0.32,-3.02,3.31,-3.41,1.08,
1.243,6.88,-0.38,-3.02,3.31,-3.41,1.08,
1.243,6.88,-0.38,-3.02,3.31,-3.41,1.08,
1.253,6.88,-0.38,-3.02,3.20,-3.39,1.07,
1.254,6.88,-0.38,-3.02,3.20,-3.39,1.07,
1.255,5.28,-0.45,-2.97,3.20,-3.39,1.07,
1.255,5.28,-0.45,-2.97,3.20,-3.39,1.07,
1.259,5.28,-0.45,-2.97,3.20,-3.39,1.07,
1.26,5.28,-0.45,-2.97,3.20,-3.39,1.07,
1.26,5.28,-0.45,-2.97,3.20,-3.39,1.07,
1.26,5.28,-0.45,-2.97,3.20,-3.39,1.07,
1.269,5.28,-0.45,-2.97,2.83,-3.12,1.08,
1.269,5.28,-0.45,-2.97,2.83,-3.12,1.08,
1.27,4.03,-0.66,-2.84,2.83,-3.12,1.08,
1.27,4.03,-0.66,-2.84,2.83,-3.12,1.08,
1.278,4.03,-0.66,-2.84,2.83,-3.12,1.08,
1.279,4.03,-0.66,-2.84,2.83,-3.12,1.08,
1.279,4.03,-0.66,-2.84,2.83,-3.12,1.08,
1.28,4.03,-0.66,-2.84,2.83,-3.12,1.08,
1.287,4.03,-0.66,-2.84,2.61,-2.89,1.11,
1.289,4.03,-0.66,-2.84,2.61,-2.89,1.11,
1.289,3.07,-0.99,-3.16,2.61,-2.89,1.11,
1.29,3.07,-0.99,-3.16,2.61,-2.89,1.11,
1.297,3.07,-0.99,-3.16,2.44,-2.64,1.18,
1.298,3.07,-0.99,-3.16,2.44,-2.64,1.18,
1.299,2.68,-1.07,-5.11,2.44,-2.64,1.18,
1.299,2.68,-1.07,-5.11,2.44,-2.64,1.18,
1.307,2.68,-1.07,-5.11,2.31,-2.46,1.27,
1.309,2.68,-1.07,-5.11,2.31,-2.46,1.27,
1.31,2.29,-1.06,-8.00,2.31,-2.46,1.27,
1.311,2.29,-1.06,-8.00,2.31,-2.46,1.27,
1.316,2.29,-1.06,-8.00,2.15,-2.48,1.36,
1.317,2.29,-1.06,-8.00,2.15,-2.48,1.36,
1.318,1.82,-1.10,-9.63,2.15,-2.48,1.36,
1.318,1.82,-1.10,-9.63,2.15,-2.48,1.36,
1.328,1.82,-1.10,-9.63,1.95,-2.87,1.44,
1.328,1.82,-1.10,-9.63,1.95,-2.87,1.44,
1.329,-0.01,-1.23,-11.68,1.95,-2.87,1.44,
1.329,-0.01,-1.23,-11.68,1.95,-2.87,1.44,
1.339,-0.01,-1.23,-11.68,1.72,-3.68,1.50,
1.34,-0.01,-1.23,-11.68,1.72,-3.68,1.50,
1.34,-0.40,-1.39,-11.60,1.72,-3.68,1.50,
1.34,-0.40,-1.39,-11.60,1.72,-3.68,1.50,
1.344,-0.40,-1.39,-11.60,1.53,-4.78,1.54,
1.345,-0.40,-1.39,-11.60,1.53,-4.78,1.54,
1.345,-1.06,-1.59,-8.21,1.53,-4.78,1.54,
1.345,-1.06,-1.59,-8.21,1.53,-4.78,1.54,
1.354,-1.06,-1.59,-8.21,1.42,-5.84,1.58,
1.355,-1.06,-1.59,-8.21,1.42,-5.84,1.58,
1.356,-1.62,-1.84,-6.41,1.42,-5.84,1.58,
1.356,-1.62,-1.84,-6.41,1.42,-5.84,1.58,
1.364,-1.62,-1.84,-6.41,1.36,-6.40,1.64,
1.365,-1.62,-1.84,-6.41,1.36,-6.40,1.64,
1.366,-1.81,-2.13,-4.25,1.36,-6.40,1.64,
1.366,-1.81,-2.13,-4.25,1.36,-6.40,1.64,
1.373,-1.81,-2.13,-4.25,1.27,-6.18,1.75,
1.375,-1.81,-2.13,-4.25,1.27,-6.18,1.75,
1.375,-1.67,-2.43,-3.80,1.27,-6.18,1.75,
1.376,-1.67,-2.43,-3.80,1.27,-6.18,1.75,
1.382,-1.67,-2.43,-3.80,1.11,-5.21,1.95,
1.383,-1.67,-2.43,-3.80,1.11,-5.21,1.95,
1.384,-1.34,-2.68,-3.59,1.11,-5.21,1.95,
1.384,-1.34,-2.68,-3.59,1.11,-5.21,1.95,
1.392,-1.34,-2.68,-3.59,0.92,-4.13,2.21,
1.393,-1.34,-2.68,-3.59,0.92,-4.13,2.21,
1.394,-1.02,-2.78,-3.38,0.92,-4.13,2.21,
1.395,-1.02,-2.78,-3.38,0.92,-4.13,2.21,
1.401,-1.02,-2.78,-3.38,0.77,-2.99,2.44,
1.403,-1.02,-2.78,-3.38,0.77,-2.99,2.44,
1.403,-0.72,-2.77,-3.03,0.77,-2.99,2.44,
1.404,-0.72,-2.77,-3.03,0.77,-2.99,2.44,
1.411,-0.72,-2.77,-3.03,0.75,-1.74,2.54,
1.412,-0.72,-2.77,-3.03,0.75,-1.74,2.54,
1.413,-0.45,-2.71,-2.64,0.75,-1.74,2.54,
1.414,-0.45,-2.71,-2.64,0.75,-1.74,2.54,
1.42,-0.45,-2.71,-2.64,0.87,-0.81,2.50,
1.421,-0.45,-2.71,-2.64,0.87,-0.81,2.50,
1.422,-0.31,-2.67,-2.52,0.87,-0.81,2.50,
1.423,-0.31,-2.67,-2.52,0.87,-0.81,2.50,
1.43,-0.31,-2.67,-2.52,1.13,-0.16,2.32,
1.431,-0.31,-2.67,-2.52,1.13,-0.16,2.32,
1.431,-0.32,-2.60,-2.79,1.13,-0.16,2.32,
1.431,-0.32,-2.60,-2.79,1.13,-0.16,2.32,
1.44,-0.32,-2.60,-2.79,1.45,0.24,2.05,
1.441,-0.32,-2.60,-2.79,1.45,0.24,2.05,
1.441,-0.45,-2.50,-4.29,1.45,0.24,2.05,
1.442,-0.45,-2.50,-4.29,1.45,0.24,2.05,
1.451,-0.45,-2.50,-4.29,1.74,0.37,1.76,
1.452,-0.45,-2.50,-4.29,1.74,0.37,1.76,
1.452,-0.66,-2.46,-4.30,1.74,0.37,1.76,
1.453,-0.66,-2.46,-4.30,1.74,0.37,1.76,
1.46,-0.66,-2.46,-4.30,1.92,0.20,1.47,
1.461,-0.66,-2.46,-4.30,1.92,0.20,1.47,
1.461,-0.82,-2.47,-4.14,1.92,0.20,1.47,
1.462,-0.82,-2.47,-4.14,1.92,0.20,1.47,
1.468,-0.82,-2.47,-4.14,1.92,0.20,1.47,
1.469,-0.82,-2.47,-4.14,1.92,0.20,1.47,
1.47,-0.82,-2.47,-4.14,1.92,0.20,1.47,
1.47,-0.82,-2.47,-4.14,1.92,0.20,1.47,
1.478,-0.82,-2.47,-4.14,1.97,-0.21,1.21,
1.479,-0.82,-2.47,-4.14,1.97,-0.21,1.21,
1.479,-0.90,-2.60,-3.27,1.97,-0.21,1.21,
1.48,-0.90,-2.60,-3.27,1.97,-0.21,1.21,
1.487,-0.90,-2.60,-3.27,1.92,-0.63,1.00,
1.489,-0.90,-2.60,-3.27,1.92,-0.63,1.00,
1.489,-1.01,-2.68,-2.82,1.92,-0.63,1.00,
1.49,-1.01,-2.68,-2.82,1.92,-0.63,1.00,
1.497,-1.01,-2.68,-2.82,1.84,-0.87,0.85,
1.498,-1.01,-2.68,-2.82,1.84,-0.87,0.85,
1.499,-1.22,-2.79,-2.68,1.84,-0.87,0.85,
1.499,-1.22,-2.79,-2.68,1.84,-0.87,0.85,
1.506,-1.22,-2.79,-2.68,1.75,-0.88,0.77,
1.508,-1.22,-2.79,-2.68,1.75,-0.88,0.77,
1.508,-1.52,-2.91,-2.69,1.75,-0.88,0.77,
1.509,-1.52,-2.91,-2.69,1.75,-0.88,0.77,
1.515,-1.52,-2.91,-2.69,1.67,-0.74,0.76,
1.516,-1.52,-2.91,-2.69,1.67,-0.74,0.76,
1.516,-1.74,-3.00,-2.70,1.67,-0.74,0.76,
1.517,-1.74,-3.00,-2.70,1.67,-0.74,0.76,
1.525,-1.74,-3.00,-2.70,1.56,-0.58,0.80,
1.526,-1.74,-3.00,-2.70,1.56,-0.58,0.80,
1.527,-1.85,-2.97,-2.68,1.56,-0.58,0.80,
1.527,-1.85,-2.97,-2.68,1.56,-0.58,0.80,
1.537,-1.85,-2.97,-2.68,1.41,-0.46,0.90,
1.538,-1.85,-2.97,-2.68,1.41,-0.46,0.90,
1.538,-2.46,-2.98,-2.65,1.41,-0.46,0.90,
1.538,-2.46,-2.98,-2.65,1.41,-0.46,0.90,
1.544,-2.46,-2.98,-2.65,1.20,-0.38,1.02,
1.545,-2.46,-2.98,-2.65,1.20,-0.38,1.02,
1.545,-2.86,-3.09,-2.59,1.20,-0.38,1.02,
1.546,-2.86,-3.09,-2.59,1.20,-0.38,1.02,
1.555,-2.86,-3.09,-2.59,0.99,-0.33,1.15,
1.556,-2.86,-3.09,-2.59,0.99,-0.33,1.15,
1.556,-3.21,-3.28,-2.58,0.99,-0.33,1.15,
1.557,-3.21,-3.28,-2.58,0.99,-0.33,1.15,
1.564,-3.21,-3.28,-2.58,0.78,-0.32,1.32,
1.565,-3.21,-3.28,-2.58,0.78,-0.32,1.32,
1.565,-3.56,-3.54,-2.50,0.78,-0.32,1.32,
1.566,-3.56,-3.54,-2.50,0.78,-0.32,1.32,
1.573,-3.56,-3.54,-2.50,0.59,-0.32,1.54,
1.575,-3.56,-3.54,-2.50,0.59,-0.32,1.54,
1.575,-3.20,-3.67,-2.18,0.59,-0.32,1.54,
1.576,-3.20,-3.67,-2.18,0.59,-0.32,1.54,
1.582,-3.20,-3.67,-2.18,0.39,-0.30,1.78,
1.583,-3.20,-3.67,-2.18,0.39,-0.30,1.78,
1.584,-2.87,-3.71,-1.74,0.39,-0.30,1.78,
1.584,-2.87,-3.71,-1.74,0.39,-0.30,1.78,
1.592,-2.87,-3.71,-1.74,0.21,-0.23,2.01,
1.593,-2.87,-3.71,-1.74,0.21,-0.23,2.01,
1.593,-2.62,-3.64,-1.23,0.21,-0.23,2.01,
1.594,-2.62,-3.64,-1.23,0.21,-0.23,2.01,
1.602,-2.62,-3.64,-1.23,0.09,-0.09,2.15,
1.603,-2.62,-3.64,-1.23,0.09,-0.09,2.15,
1.603,-2.53,-3.57,-0.81,0.09,-0.09,2.15,
1.604,-2.53,-3.57,-0.81,0.09,-0.09,2.15,
1.611,-2.53,-3.57,-0.81,0.06,0.10,2.17,
1.612,-2.53,-3.57,-0.81,0.06,0.10,2.17,
1.613,-2.59,-3.64,-0.54,0.06,0.10,2.17,
1.613,-2.59,-3.64,-0.54,0.06,0.10,2.17,
1.62,-2.59,-3.64,-0.54,0.13,0.31,2.09,
1.621,-2.59,-3.64,-0.54,0.13,0.31,2.09,
1.622,-2.69,-3.69,-0.44,0.13,0.31,2.09,
1.623,-2.69,-3.69,-0.44,0.13,0.31,2.09,
1.63,-2.69,-3.69,-0.44,0.24,0.51,1.97,
1.631,-2.69,-3.69,-0.44,0.24,0.51,1.97,
1.632,-2.52,-3.63,-0.29,0.24,0.51,1.97,
1.632,-2.52,-3.63,-0.29,0.24,0.51,1.97,
1.64,-2.52,-3.63,-0.29,0.32,0.67,1.84,
1.641,-2.52,-3.63,-0.29,0.32,0.67,1.84,
1.641,-0.89,-3.52,-0.10,0.32,0.67,1.84,
1.642,-0.89,-3.52,-0.10,0.32,0.67,1.84,
1.651,-0.89,-3.52,-0.10,0.37,0.77,1.69,
1.652,-0.89,-3.52,-0.10,0.37,0.77,1.69,
1.652,-0.39,-3.34,-0.08,0.37,0.77,1.69,
1.652,-0.39,-3.34,-0.08,0.37,0.77,1.69,
1.659,-0.39,-3.34,-0.08,0.41,0.78,1.43,
1.66,-0.39,-3.34,-0.08,0.41,0.78,1.43,
1.66,-0.29,-2.90,-0.05,0.41,0.78,1.43,
1.661,-0.29,-2.90,-0.05,0.41,0.78,1.43,
1.668,-0.29,-2.90,-0.05,0.41,0.78,1.43,
1.669,-0.29,-2.90,-0.05,0.41,0.78,1.43,
1.669,-0.29,-2.90,-0.05,0.41,0.78,1.43,
1.67,-0.29,-2.90,-0.05,0.41,0.78,1.43,
1.678,-0.29,-2.90,-0.05,0.46,0.72,1.05,
1.679,-0.29,-2.90,-0.05,0.46,0.72,1.05,
1.681,-2.68,-1.94,-0.40,0.46,0.72,1.05,
1.682,-2.68,-1.94,-0.40,0.46,0.72,1.05,
1.687,-2.68,-1.94,-0.40,0.47,0.60,0.64,
1.688,-2.68,-1.94,-0.40,0.47,0.60,0.64,
1.689,-8.72,-1.59,-0.38,0.47,0.60,0.64,
1.689,-8.72,-1.59,-0.38,0.47,0.60,0.64,
1.697,-8.72,-1.59,-0.38,0.40,0.51,0.47,
1.697,-8.72,-1.59,-0.38,0.40,0.51,0.47,
1.698,-15.78,-1.58,-0.87,0.40,0.51,0.47,
1.699,-15.78,-1.58,-0.87,0.40,0.51,0.47,
1.706,-15.78,-1.58,-0.87,0.10,0.54,0.92,
1.707,-15.78,-1.58,-0.87,0.10,0.54,0.92,
1.707,-14.33,-1.54,-1.28,0.10,0.54,0.92,
1.708,-14.33,-1.54,-1.28,0.10,0.54,0.92,
1.715,-14.33,-1.54,-1.28,-0.59,0.92,2.39,
1.716,-14.33,-1.54,-1.28,-0.59,0.92,2.39,
1.716,-8.44,-1.10,-0.82,-0.59,0.92,2.39,
1.717,-8.44,-1.10,-0.82,-0.59,0.92,2.39,
1.725,-8.44,-1.10,-0.82,-1.66,1.82,4.78,
1.726,-8.44,-1.10,-0.82,-1.66,1.82,4.78,
1.727,1.19,-0.63,1.54,-1.66,1.82,4.78,
1.727,1.19,-0.63,1.54,-1.66,1.82,4.78,
1.737,1.19,-0.63,1.54,-2.44,2.74,6.57,
1.738,1.19,-0.63,1.54,-2.44,2.74,6.57,
1.738,9.14,-0.68,4.34,-2.44,2.74,6.57,
1.738,9.14,-0.68,4.34,-2.44,2.74,6.57,
1.744,9.14,-0.68,4.34,-1.90,2.44,5.54,
1.745,9.14,-0.68,4.34,-1.90,2.44,5.54,
1.745,7.63,-3.40,4.62,-1.90,2.44,5.54,
1.745,7.63,-3.40,4.62,-1.90,2.44,5.54,
1.754,7.63,-3.40,4.62,-0.05,1.16,1.87,
1.755,7.63,-3.40,4.62,-0.05,1.16,1.87,
1.755,1.58,-4.99,2.58,-0.05,1.16,1.87,
1.755,1.58,-4.99,2.58,-0.05,1.16,1.87,
1.763,1.58,-4.99,2.58,1.73,0.39,-1.56,
1.764,1.58,-4.99,2.58,1.73,0.39,-1.56,
1.765,-2.29,-6.82,0.59,1.73,0.39,-1.56,
1.765,-2.29,-6.82,0.59,1.73,0.39,-1.56,
1.773,-2.29,-6.82,0.59,2.34,0.31,-2.85,
1.774,-2.29,-6.82,0.59,2.34,0.31,-2.85,
1.775,-2.19,-7.04,0.24,2.34,0.31,-2.85,
1.775,-2.19,-7.04,0.24,2.34,0.31,-2.85,
1.784,-2.19,-7.04,0.24,1.92,0.39,-2.30,
1.785,-2.19,-7.04,0.24,1.92,0.39,-2.30,
1.785,-1.60,-7.14,0.19,1.92,0.39,-2.30,
1.786,-1.60,-7.14,0.19,1.92,0.39,-2.30,
1.792,-1.60,-7.14,0.19,1.04,0.43,-0.95,
1.793,-1.60,-7.14,0.19,1.04,0.43,-0.95,
1.793,0.14,-7.03,0.39,1.04,0.43,-0.95,
1.794,0.14,-7.03,0.39,1.04,0.43,-0.95,
1.801,0.14,-7.03,0.39,0.16,0.43,0.33,
1.802,0.14,-7.03,0.39,0.16,0.43,0.33,
1.803,0.39,-6.61,0.58,0.16,0.43,0.33,
1.803,0.39,-6.61,0.58,0.16,0.43,0.33,
1.811,0.39,-6.61,0.58,-0.43,0.38,1.09,
1.812,0.39,-6.61,0.58,-0.43,0.38,1.09,
1.813,0.44,-5.96,0.71,-0.43,0.38,1.09,
1.813,0.44,-5.96,0.71,-0.43,0.38,1.09,
1.82,0.44,-5.96,0.71,-0.71,0.28,1.35,
1.822,0.44,-5.96,0.71,-0.71,0.28,1.35,
1.823,0.21,-4.15,0.78,-0.71,0.28,1.35,
1.824,0.21,-4.15,0.78,-0.71,0.28,1.35,
1.829,0.21,-4.15,0.78,-0.75,0.15,1.27,
1.83,0.21,-4.15,0.78,-0.75,0.15,1.27,
1.831,-0.19,-3.51,0.65,-0.75,0.15,1.27,
1.832,-0.19,-3.51,0.65,-0.75,0.15,1.27,
1.84,-0.19,-3.51,0.65,-0.67,0.02,1.03,
1.841,-0.19,-3.51,0.65,-0.67,0.02,1.03,
1.841,-0.60,-1.87,0.36,-0.67,0.02,1.03,
1.842,-0.60,-1.87,0.36,-0.67,0.02,1.03,
1.85,-0.60,-1.87,0.36,-0.52,-0.11,0.72,
1.851,-0.60,-1.87,0.36,-0.52,-0.11,0.72,
1.851,-0.99,-1.42,0.13,-0.52,-0.11,0.72,
1.852,-0.99,-1.42,0.13,-0.52,-0.11,0.72,
1.858,-0.99,-1.42,0.13,-0.52,-0.11,0.72,
1.859,-0.99,-1.42,0.13,-0.52,-0.11,0.72,
1.859,-0.99,-1.42,0.13,-0.52,-0.11,0.72,
1.86,-0.99,-1.42,0.13,-0.52,-0.11,0.72,
1.867,-0.99,-1.42,0.13,-0.37,-0.24,0.38,
1.868,-0.99,-1.42,0.13,-0.37,-0.24,0.38,
1.868,-1.60,-0.73,-0.25,-0.37,-0.24,0.38,
1.869,-1.60,-0.73,-0.25,-0.37,-0.24,0.38,
1.878,-1.60,-0.73,-0.25,-0.25,-0.39,0.07,
1.879,-1.60,-0.73,-0.25,-0.25,-0.39,0.07,
1.879,-1.80,-0.60,-0.16,-0.25,-0.39,0.07,
1.88,-1.80,-0.60,-0.16,-0.25,-0.39,0.07,
1.887,-1.80,-0.60,-0.16,-0.17,-0.53,-0.18,
1.888,-1.80,-0.60,-0.16,-0.17,-0.53,-0.18,
1.889,-1.82,-0.60,0.11,-0.17,-0.53,-0.18,
1.89,-1.82,-0.60,0.11,-0.17,-0.53,-0.18,
1.896,-1.82,-0.60,0.11,-0.13,-0.65,-0.33,
1.897,-1.82,-0.60,0.11,-0.13,-0.65,-0.33,
1.897,-1.70,-0.77,1.68,-0.13,-0.65,-0.33,
1.898,-1.70,-0.77,1.68,-0.13,-0.65,-0.33,
1.907,-1.70,-0.77,1.68,-0.08,-0.66,-0.40,
1.908,-1.70,-0.77,1.68,-0.08,-0.66,-0.40,
1.909,-1.59,-1.09,1.85,-0.08,-0.66,-0.40,
1.909,-1.59,-1.09,1.85,-0.08,-0.66,-0.40,
1.916,-1.59,-1.09,1.85,0.06,-0.51,-0.40,
1.917,-1.59,-1.09,1.85,0.06,-0.51,-0.40,
1.917,-1.51,-1.37,1.90,0.06,-0.51,-0.40,
1.918,-1.51,-1.37,1.90,0.06,-0.51,-0.40,
1.926,-1.51,-1.37,1.90,0.28,-0.19,-0.33,
1.927,-1.51,-1.37,1.90,0.28,-0.19,-0.33,
1.928,-1.54,-1.59,1.56,0.28,-0.19,-0.33,
1.928,-1.54,-1.59,1.56,0.28,-0.19,-0.33,
1.935,-1.54,-1.59,1.56,0.47,0.17,-0.21,
1.936,-1.54,-1.59,1.56,0.47,0.17,-0.21,
1.936,-1.68,-1.81,-0.32,0.47,0.17,-0.21,
1.937,-1.68,-1.81,-0.32,0.47,0.17,-0.21,
1.945,-1.68,-1.81,-0.32,0.55,0.39,-0.04,
1.946,-1.68,-1.81,-0.32,0.55,0.39,-0.04,
1.946,-1.83,-1.90,-0.45,0.55,0.39,-0.04,
1.947,-1.83,-1.90,-0.45,0.55,0.39,-0.04,
1.954,-1.83,-1.90,-0.45,0.51,0.36,0.18,
1.955,-1.83,-1.90,-0.45,0.51,0.36,0.18,
1.955,-1.96,-1.91,-0.53,0.51,0.36,0.18,
1.955,-1.96,-1.91,-0.53,0.51,0.36,0.18,
1.963,-1.96,-1.91,-0.53,0.45,0.12,0.42,
1.963,-1.96,-1.91,-0.53,0.45,0.12,0.42,
1.964,-1.91,-1.73,-0.51,0.45,0.12,0.42,
1.964,-1.91,-1.73,-0.51,0.45,0.12,0.42,
1.972,-1.91,-1.73,-0.51,0.47,-0.22,0.65,
1.973,-1.91,-1.73,-0.51,0.47,-0.22,0.65,
1.974,-1.71,-1.43,-0.36,0.47,-0.22,0.65,
1.974,-1.71,-1.43,-0.36,0.47,-0.22,0.65,
1.982,-1.71,-1.43,-0.36,0.49,-0.52,0.83,
1.983,-1.71,-1.43,-0.36,0.49,-0.52,0.83,
1.983,-1.54,-1.24,-0.34,0.49,-0.52,0.83,
1.984,-1.54,-1.24,-0.34,0.49,-0.52,0.83,
1.991,-1.54,-1.24,-0.34,0.42,-0.74,0.92,
1.992,-1.54,-1.24,-0.34,0.42,-0.74,0.92,
1.993,-1.51,-1.18,-0.45,0.42,-0.74,0.92,
1.993,-1.51,-1.18,-0.45,0.42,-0.74,0.92,
2.001,-1.51,-1.18,-0.45,0.31,-0.91,0.92,
2.001,-1.51,-1.18,-0.45,0.31,-0.91,0.92,
2.002,-1.71,-1.36,-0.52,0.31,-0.91,0.92,
2.002,-1.71,-1.36,-0.52,0.31,-0.91,0.92,
2.01,-1.71,-1.36,-0.52,0.26,-1.01,0.86,
2.011,-1.71,-1.36,-0.52,0.26,-1.01,0.86,
2.011,-1.94,-1.52,-0.52,0.26,-1.01,0.86,
2.012,-1.94,-1.52,-0.52,0.26,-1.01,0.86,
2.019,-1.94,-1.52,-0.52,0.20,-1.04,0.82,
2.02,-1.94,-1.52,-0.52,0.20,-1.04,0.82,
2.021,-2.11,-1.50,-0.41,0.20,-1.04,0.82,
2.021,-2.11,-1.50,-0.41,0.20,-1.04,0.82,
2.03,-2.11,-1.50,-0.41,0.12,-0.99,0.85,
2.031,-2.11,-1.50,-0.41,0.12,-0.99,0.85,
2.031,-2.22,-1.24,-0.35,0.12,-0.99,0.85,
2.032,-2.22,-1.24,-0.35,0.12,-0.99,0.85,
2.04,-2.22,-1.24,-0.35,0.02,-0.85,0.94,
2.042,-2.22,-1.24,-0.35,0.02,-0.85,0.94,
2.043,-2.21,0.63,-0.51,0.02,-0.85,0.94,
2.044,-2.21,0.63,-0.51,0.02,-0.85,0.94,
2.05,-2.21,0.63,-0.51,-0.07,-0.68,1.00,
2.051,-2.21,0.63,-0.51,-0.07,-0.68,1.00,
2.051,-2.40,2.33,-0.62,-0.07,-0.68,1.00,
2.051,-2.40,2.33,-0.62,-0.07,-0.68,1.00,
2.059,-2.40,2.33,-0.62,-0.07,-0.68,1.00,
2.059,-2.40,2.33,-0.62,-0.07,-0.68,1.00,
2.06,-2.40,2.33,-0.62,-0.07,-0.68,1.00,
2.061,-2.40,2.33,-0.62,-0.07,-0.68,1.00,
2.068,-2.40,2.33,-0.62,-0.12,-0.56,0.94,
2.069,-2.40,2.33,-0.62,-0.12,-0.56,0.94,
2.069,-4.46,4.56,1.37,-0.12,-0.56,0.94,
2.07,-4.46,4.56,1.37,-0.12,-0.56,0.94,
2.078,-4.46,4.56,1.37,-0.08,-0.48,0.70,
2.079,-4.46,4.56,1.37,-0.08,-0.48,0.70,
2.079,-4.74,5.11,3.21,-0.08,-0.48,0.70,
2.08,-4.74,5.11,3.21,-0.08,-0.48,0.70,
2.087,-4.74,5.11,3.21,0.18,-0.29,0.36,
2.088,-4.74,5.11,3.21,0.18,-0.29,0.36,
2.088,-4.90,5.25,3.57,0.18,-0.29,0.36,
2.089,-4.90,5.25,3.57,0.18,-0.29,0.36,
2.097,-4.90,5.25,3.57,0.79,0.20,0.06,
2.098,-4.90,5.25,3.57,0.79,0.20,0.06,
2.098,-4.85,3.75,3.82,0.79,0.20,0.06,
2.099,-4.85,3.75,3.82,0.79,0.20,0.06,
2.105,-4.85,3.75,3.82,1.76,1.04,-0.10,
2.107,-4.85,3.75,3.82,1.76,1.04,-0.10,
2.107,-4.65,1.47,3.66,1.76,1.04,-0.10,
2.108,-4.65,1.47,3.66,1.76,1.04,-0.10,
2.115,-4.65,1.47,3.66,2.84,1.98,-0.01,
2.116,-4.65,1.47,3.66,2.84,1.98,-0.01,
2.117,-4.31,-1.76,1.91,2.84,1.98,-0.01,
2.117,-4.31,-1.76,1.91,2.84,1.98,-0.01,
2.125,-4.31,-1.76,1.91,3.49,2.14,-0.14,
2.125,-4.31,-1.76,1.91,3.49,2.14,-0.14,
2.126,-3.83,-3.40,1.60,3.49,2.14,-0.14,
2.126,-3.83,-3.40,1.60,3.49,2.14,-0.14,
2.138,-3.83,-3.40,1.60,3.31,1.61,0.23,
2.139,-3.83,-3.40,1.60,3.31,1.61,0.23,
2.14,-3.40,-5.46,1.29,3.31,1.61,0.23,
2.14,-3.40,-5.46,1.29,3.31,1.61,0.23,
2.144,-3.40,-5.46,1.29,2.75,1.21,1.41,
2.145,-3.40,-5.46,1.29,2.75,1.21,1.41,
2.145,-3.27,-7.10,1.17,2.75,1.21,1.41,
2.145,-3.27,-7.10,1.17,2.75,1.21,1.41,
2.154,-3.27,-7.10,1.17,2.36,0.83,2.30,
2.155,-3.27,-7.10,1.17,2.36,0.83,2.30,
2.155,-3.41,-6.88,1.06,2.36,0.83,2.30,
2.155,-3.41,-6.88,1.06,2.36,0.83,2.30,
2.162,-3.41,-6.88,1.06,2.12,0.37,2.82,
2.163,-3.41,-6.88,1.06,2.12,0.37,2.82,
2.163,-5.09,-3.06,-0.55,2.12,0.37,2.82,
2.164,-5.09,-3.06,-0.55,2.12,0.37,2.82,
2.172,-5.09,-3.06,-0.55,1.99,-0.09,3.05,
2.173,-5.09,-3.06,-0.55,1.99,-0.09,3.05,
2.174,-5.31,0.11,-0.90,1.99,-0.09,3.05,
2.174,-5.31,0.11,-0.90,1.99,-0.09,3.05,
2.183,-5.31,0.11,-0.90,1.53,-0.54,3.11,
2.184,-5.31,0.11,-0.90,1.53,-0.54,3.11,
2.185,-4.83,3.22,-1.40,1.53,-0.54,3.11,
2.185,-4.83,3.22,-1.40,1.53,-0.54,3.11,
2.191,-4.83,3.22,-1.40,0.78,-1.04,3.02,
2.192,-4.83,3.22,-1.40,0.78,-1.04,3.02,
2.193,-4.23,4.96,-1.43,0.78,-1.04,3.02,
2.194,-4.23,4.96,-1.43,0.78,-1.04,3.02,
2.201,-4.23,4.96,-1.43,0.18,-1.59,2.76,
2.201,-4.23,4.96,-1.43,0.18,-1.59,2.76,
2.202,-2.36,4.83,1.15,0.18,-1.59,2.76,
2.203,-2.36,4.83,1.15,0.18,-1.59,2.76,
2.223,-2.36,4.83,1.15,0.05,-2.17,2.21,
2.224,-2.36,4.83,1.15,0.05,-2.17,2.21,
2.224,-2.53,4.55,1.77,0.05,-2.17,2.21,
2.225,-2.53,4.55,1.77,0.05,-2.17,2.21,
2.226,-2.53,4.55,1.77,0.26,-2.65,1.33,
2.226,-2.53,4.55,1.77,0.26,-2.65,1.33,
2.227,-4.32,4.04,2.26,0.26,-2.65,1.33,
2.227,-4.32,4.04,2.26,0.26,-2.65,1.33,
2.229,-4.32,4.04,2.26,0.41,-2.81,0.31,
2.229,-4.32,4.04,2.26,0.41,-2.81,0.31,
2.23,-4.84,2.21,2.22,0.41,-2.81,0.31,
2.23,-4.84,2.21,2.22,0.41,-2.81,0.31,
2.24,-4.84,2.21,2.22,0.91,-2.50,-0.39,
2.241,-4.84,2.21,2.22,0.91,-2.50,-0.39,
2.242,-5.03,0.03,1.78,0.91,-2.50,-0.39,
2.242,-5.03,0.03,1.78,0.91,-2.50,-0.39,
2.254,-5.03,0.03,1.78,1.60,-1.86,-0.37,
2.255,-5.03,0.03,1.78,1.60,-1.86,-0.37,
2.255,-5.00,-1.74,1.24,1.60,-1.86,-0.37,
2.255,-5.00,-1.74,1.24,1.60,-1.86,-0.37,
2.258,-5.00,-1.74,1.24,1.60,-1.86,-0.37,
2.259,-5.00,-1.74,1.24,1.60,-1.86,-0.37,
2.259,-5.00,-1.74,1.24,1.60,-1.86,-0.37,
2.259,-5.00,-1.74,1.24,1.60,-1.86,-0.37,
2.267,-5.00,-1.74,1.24,1.69,-1.37,0.31,
2.268,-5.00,-1.74,1.24,1.69,-1.37,0.31,
2.269,-4.36,-3.98,1.33,1.69,-1.37,0.31,
2.269,-4.36,-3.98,1.33,1.69,-1.37,0.31,
2.277,-4.36,-3.98,1.33,1.33,-1.00,1.23,
2.278,-4.36,-3.98,1.33,1.33,-1.00,1.23,
2.279,-4.72,-5.66,1.31,1.33,-1.00,1.23,
2.279,-4.72,-5.66,1.31,1.33,-1.00,1.23,
2.287,-4.72,-5.66,1.31,0.88,-0.64,2.00,
2.288,-4.72,-5.66,1.31,0.88,-0.64,2.00,
2.289,-6.15,-5.63,1.19,0.88,-0.64,2.00,
2.289,-6.15,-5.63,1.19,0.88,-0.64,2.00,
2.296,-6.15,-5.63,1.19,0.56,-0.46,2.52,
2.297,-6.15,-5.63,1.19,0.56,-0.46,2.52,
2.298,-6.37,-5.29,1.09,0.56,-0.46,2.52,
2.298,-6.37,-5.29,1.09,0.56,-0.46,2.52,
2.306,-6.37,-5.29,1.09,0.31,-0.33,2.86,
2.307,-6.37,-5.29,1.09,0.31,-0.33,2.86,
2.308,-6.30,-4.64,1.22,0.31,-0.33,2.86,
2.308,-6.30,-4.64,1.22,0.31,-0.33,2.86,
2.315,-6.30,-4.64,1.22,0.01,-0.18,3.09,
2.316,-6.30,-4.64,1.22,0.01,-0.18,3.09,
2.316,-3.89,-0.38,1.60,0.01,-0.18,3.09,
2.317,-3.89,-0.38,1.60,0.01,-0.18,3.09,
2.325,-3.89,-0.38,1.60,-0.12,-0.12,3.15,
2.326,-3.89,-0.38,1.60,-0.12,-0.12,3.15,
2.326,-2.15,3.11,3.31,-0.12,-0.12,3.15,
2.327,-2.15,3.11,3.31,-0.12,-0.12,3.15,
2.339,-2.15,3.11,3.31,-0.20,-0.24,2.85,
2.34,-2.15,3.11,3.31,-0.20,-0.24,2.85,
2.341,-2.04,3.71,3.24,-0.20,-0.24,2.85,
2.342,-2.04,3.71,3.24,-0.20,-0.24,2.85,
2.347,-2.04,3.71,3.24,0.05,-0.53,2.18,
2.348,-2.04,3.71,3.24,0.05,-0.53,2.18,
2.348,-2.21,4.26,2.69,0.05,-0.53,2.18,
2.348,-2.21,4.26,2.69,0.05,-0.53,2.18,
2.353,-2.21,4.26,2.69,0.76,-0.88,1.29,
2.354,-2.21,4.26,2.69,0.76,-0.88,1.29,
2.354,-4.61,2.36,0.67,0.76,-0.88,1.29,
2.355,-4.61,2.36,0.67,0.76,-0.88,1.29,
2.363,-4.61,2.36,0.67,1.46,-1.16,0.53,
2.364,-4.61,2.36,0.67,1.46,-1.16,0.53,
2.365,-6.81,-2.79,0.13,1.46,-1.16,0.53,
2.365,-6.81,-2.79,0.13,1.46,-1.16,0.53,
2.373,-6.81,-2.79,0.13,1.70,-1.26,0.29,
2.374,-6.81,-2.79,0.13,1.70,-1.26,0.29,
2.374,-8.66,-7.84,-0.11,1.70,-1.26,0.29,
2.375,-8.66,-7.84,-0.11,1.70,-1.26,0.29,
2.382,-8.66,-7.84,-0.11,1.23,-1.11,0.81,
2.382,-8.66,-7.84,-0.11,1.23,-1.11,0.81,
2.383,-10.22,-14.17,0.10,1.23,-1.11,0.81,
2.383,-10.22,-14.17,0.10,1.23,-1.11,0.81,
2.391,-10.22,-14.17,0.10,0.98,-0.73,1.95,
2.392,-10.22,-14.17,0.10,0.98,-0.73,1.95,
2.392,-10.13,-19.14,0.40,0.98,-0.73,1.95,
2.393,-10.13,-19.14,0.40,0.98,-0.73,1.95,
2.4,-10.13,-19.14,0.40,1.29,-0.34,3.04,
2.401,-10.13,-19.14,0.40,1.29,-0.34,3.04,
2.402,-6.02,-18.81,-0.07,1.29,-0.34,3.04,
2.402,-6.02,-18.81,-0.07,1.29,-0.34,3.04,
2.41,-6.02,-18.81,-0.07,0.99,-0.25,3.52,
2.411,-6.02,-18.81,-0.07,0.99,-0.25,3.52,
2.411,-1.11,-12.60,-2.19,0.99,-0.25,3.52,
2.412,-1.11,-12.60,-2.19,0.99,-0.25,3.52,
2.42,-1.11,-12.60,-2.19,0.19,-0.60,3.24,
2.42,-1.11,-12.60,-2.19,0.19,-0.60,3.24,
2.421,2.16,-4.20,-2.25,0.19,-0.60,3.24,
2.421,2.16,-4.20,-2.25,0.19,-0.60,3.24,
2.43,2.16,-4.20,-2.25,-0.40,-1.31,2.38,
2.431,2.58,2.19,-2.00,-0.40,-1.31,2.38,
2.432,2.58,2.19,-2.00,-0.40,-1.31,2.38,
2.432,2.58,2.19,-2.00,-0.40,-1.31,2.38,
2.44,2.58,2.19,-2.00,-0.82,-2.16,1.21,
2.441,2.58,2.19,-2.00,-0.82,-2.16,1.21,
2.442,0.01,2.77,-0.01,-0.82,-2.16,1.21,
2.443,0.01,2.77,-0.01,-0.82,-2.16,1.21,
2.448,0.01,2.77,-0.01,-0.82,-2.16,1.21,
2.448,0.01,2.77,-0.01,-0.82,-2.16,1.21,
2.449,0.01,2.77,-0.01,-0.82,-2.16,1.21,
2.449,0.01,2.77,-0.01,-0.82,-2.16,1.21,
2.457,0.01,2.77,-0.01,-1.05,-2.90,0.01,
2.459,0.01,2.77,-0.01,-1.05,-2.90,0.01,
2.459,-3.79,-0.01,2.46,-1.05,-2.90,0.01,
2.46,-3.79,-0.01,2.46,-1.05,-2.90,0.01,
2.467,-3.79,-0.01,2.46,-0.97,-3.31,-0.90,
2.468,-3.79,-0.01,2.46,-0.97,-3.31,-0.90,
2.468,-3.77,-1.61,2.46,-0.97,-3.31,-0.90,
2.468,-3.77,-1.61,2.46,-0.97,-3.31,-0.90,
2.476,-3.77,-1.61,2.46,-0.53,-3.27,-1.21,
2.477,-3.77,-1.61,2.46,-0.53,-3.27,-1.21,
2.478,-3.70,-1.60,2.15,-0.53,-3.27,-1.21,
2.478,-3.70,-1.60,2.15,-0.53,-3.27,-1.21,
2.486,-3.70,-1.60,2.15,0.17,-2.88,-0.91,
2.488,-3.70,-1.60,2.15,0.17,-2.88,-0.91,
2.488,-3.63,-1.30,1.61,0.17,-2.88,-0.91,
2.489,-3.63,-1.30,1.61,0.17,-2.88,-0.91,
2.496,-3.63,-1.30,1.61,0.84,-2.33,-0.32,
2.496,-3.63,-1.30,1.61,0.84,-2.33,-0.32,
2.497,-3.58,-0.85,1.08,0.84,-2.33,-0.32,
2.498,-3.58,-0.85,1.08,0.84,-2.33,-0.32,
2.505,-3.58,-0.85,1.08,1.28,-1.80,0.03,
2.507,-3.58,-0.85,1.08,1.28,-1.80,0.03,
2.507,-3.54,-0.45,0.66,1.28,-1.80,0.03,
2.508,-3.54,-0.45,0.66,1.28,-1.80,0.03,
2.515,-3.54,-0.45,0.66,1.44,-1.35,0.26,
2.516,-3.54,-0.45,0.66,1.44,-1.35,0.26,
2.517,-3.31,-0.08,0.41,1.44,-1.35,0.26,
2.518,-3.31,-0.08,0.41,1.44,-1.35,0.26,
2.524,-3.31,-0.08,0.41,1.40,-1.01,0.61,
2.525,-3.31,-0.08,0.41,1.40,-1.01,0.61,
2.526,-2.81,0.24,0.22,1.40,-1.01,0.61,
2.527,-2.81,0.24,0.22,1.40,-1.01,0.61,
2.538,-2.81,0.24,0.22,1.24,-0.77,0.85,
2.539,-2.81,0.24,0.22,1.24,-0.77,0.85,
2.54,-2.26,0.44,0.11,1.24,-0.77,0.85,
2.54,-2.26,0.44,0.11,1.24,-0.77,0.85,
2.544,-2.26,0.44,0.11,1.04,-0.63,0.98,
2.545,-2.26,0.44,0.11,1.04,-0.63,0.98,
2.545,-1.77,0.61,0.07,1.04,-0.63,0.98,
2.545,-1.77,0.61,0.07,1.04,-0.63,0.98,
2.552,-1.77,0.61,0.07,0.84,-0.55,0.98,
2.553,-1.77,0.61,0.07,0.84,-0.55,0.98,
2.554,-1.56,0.57,0.09,0.84,-0.55,0.98,
2.554,-1.56,0.57,0.09,0.84,-0.55,0.98,
2.563,-1.56,0.57,0.09,0.66,-0.53,0.87,
2.563,-1.56,0.57,0.09,0.66,-0.53,0.87,
2.564,-1.62,0.39,0.24,0.66,-0.53,0.87,
2.564,-1.62,0.39,0.24,0.66,-0.53,0.87,
2.573,-1.62,0.39,0.24,0.51,-0.53,0.70,
2.574,-1.62,0.39,0.24,0.51,-0.53,0.70,
2.574,-1.59,0.31,0.44,0.51,-0.53,0.70,
2.575,-1.59,0.31,0.44,0.51,-0.53,0.70,
2.581,-1.59,0.31,0.44,0.41,-0.53,0.53,
2.582,-1.59,0.31,0.44,0.41,-0.53,0.53,
2.583,-1.60,0.21,0.66,0.41,-0.53,0.53,
2.583,-1.60,0.21,0.66,0.41,-0.53,0.53,
2.591,-1.60,0.21,0.66,0.37,-0.50,0.41,
2.593,-1.60,0.21,0.66,0.37,-0.50,0.41,
2.593,-1.66,0.17,0.71,0.37,-0.50,0.41,
2.594,-1.66,0.17,0.71,0.37,-0.50,0.41,
2.6,-1.66,0.17,0.71,0.38,-0.41,0.34,
2.601,-1.66,0.17,0.71,0.38,-0.41,0.34,
2.601,-1.72,0.20,0.46,0.38,-0.41,0.34,
2.602,-1.72,0.20,0.46,0.38,-0.41,0.34,
2.61,-1.72,0.20,0.46,0.42,-0.25,0.32,
2.611,-1.72,0.20,0.46,0.42,-0.25,0.32,
2.611,-1.89,0.21,-0.09,0.42,-0.25,0.32,
2.612,-1.89,0.21,-0.09,0.42,-0.25,0.32,
2.619,-1.89,0.21,-0.09,0.43,-0.08,0.33,
2.62,-1.89,0.21,-0.09,0.43,-0.08,0.33,
2.621,-1.94,0.28,-0.72,0.43,-0.08,0.33,
2.622,-1.94,0.28,-0.72,0.43,-0.08,0.33,
2.629,-1.94,0.28,-0.72,0.34,0.06,0.40,
2.631,-1.94,0.28,-0.72,0.34,0.06,0.40,
2.632,-1.80,0.29,-1.02,0.34,0.06,0.40,
2.633,-1.80,0.29,-1.02,0.34,0.06,0.40,
2.643,-1.80,0.29,-1.02,0.34,0.06,0.40,
2.644,-1.80,0.29,-1.02,0.34,0.06,0.40,
2.644,-1.80,0.29,-1.02,0.34,0.06,0.40,
2.645,-1.80,0.29,-1.02,0.34,0.06,0.40,
2.648,-1.80,0.29,-1.02,0.12,0.14,0.49,
2.649,-1.80,0.29,-1.02,0.12,0.14,0.49,
2.649,-1.22,0.30,-0.36,0.12,0.14,0.49,
2.65,-1.22,0.30,-0.36,0.12,0.14,0.49,
2.657,-1.22,0.30,-0.36,-0.15,0.17,0.58,
2.658,-1.22,0.30,-0.36,-0.15,0.17,0.58,
2.658,-0.94,0.25,0.26,-0.15,0.17,0.58,
2.659,-0.94,0.25,0.26,-0.15,0.17,0.58,
2.667,-0.94,0.25,0.26,-0.35,0.15,0.59,
2.668,-0.94,0.25,0.26,-0.35,0.15,0.59,
2.668,-0.76,0.24,0.71,-0.35,0.15,0.59,
2.668,-0.76,0.24,0.71,-0.35,0.15,0.59,
2.676,-0.76,0.24,0.71,-0.38,0.12,0.51,
2.677,-0.76,0.24,0.71,-0.38,0.12,0.51,
2.678,-0.77,0.20,0.90,-0.38,0.12,0.51,
2.679,-0.77,0.20,0.90,-0.38,0.12,0.51,
2.686,-0.77,0.20,0.90,-0.24,0.08,0.36,
2.687,-0.77,0.20,0.90,-0.24,0.08,0.36,
2.688,-0.85,0.25,0.85,-0.24,0.08,0.36,
2.689,-0.85,0.25,0.85,-0.24,0.08,0.36,
2.696,-0.85,0.25,0.85,0.00,0.05,0.23,
2.697,-0.85,0.25,0.85,0.00,0.05,0.23,
2.697,-0.89,0.31,0.66,0.00,0.05,0.23,
2.698,-0.89,0.31,0.66,0.00,0.05,0.23,
2.706,-0.89,0.31,0.66,0.23,0.04,0.14,
2.707,-0.89,0.31,0.66,0.23,0.04,0.14,
2.708,-0.91,0.33,0.42,0.23,0.04,0.14,
2.708,-0.91,0.33,0.42,0.23,0.04,0.14,
2.714,-0.91,0.33,0.42,0.38,0.06,0.11,
2.715,-0.91,0.33,0.42,0.38,0.06,0.11,
2.716,-0.81,0.35,0.15,0.38,0.06,0.11,
2.716,-0.81,0.35,0.15,0.38,0.06,0.11,
2.724,-0.81,0.35,0.15,0.42,0.08,0.12,
2.725,-0.81,0.35,0.15,0.42,0.08,0.12,
2.726,-0.65,0.29,-0.06,0.42,0.08,0.12,
2.727,-0.65,0.29,-0.06,0.42,0.08,0.12,
2.737,-0.65,0.29,-0.06,0.37,0.08,0.15,
2.739,-0.65,0.29,-0.06,0.37,0.08,0.15,
2.739,-0.47,0.22,-0.08,0.37,0.08,0.15,
2.74,-0.47,0.22,-0.08,0.37,0.08,0.15,
2.744,-0.47,0.22,-0.08,0.24,0.06,0.16,
2.744,-0.47,0.22,-0.08,0.24,0.06,0.16,
2.745,-0.24,0.15,-0.02,0.24,0.06,0.16,
2.746,-0.24,0.15,-0.02,0.24,0.06,0.16,
2.752,-0.24,0.15,-0.02,0.09,0.01,0.15,
2.753,-0.24,0.15,-0.02,0.09,0.01,0.15,
2.754,-0.07,0.07,0.10,0.09,0.01,0.15,
2.754,-0.07,0.07,0.10,0.09,0.01,0.15,
2.762,-0.07,0.07,0.10,-0.03,-0.04,0.10,
2.763,-0.07,0.07,0.10,-0.03,-0.04,0.10,
2.764,0.07,0.03,0.19,-0.03,-0.04,0.10,
2.764,0.07,0.03,0.19,-0.03,-0.04,0.10,
2.772,0.07,0.03,0.19,-0.09,-0.09,0.02,
2.773,0.07,0.03,0.19,-0.09,-0.09,0.02,
2.774,0.11,0.03,0.22,-0.09,-0.09,0.02,
2.774,0.11,0.03,0.22,-0.09,-0.09,0.02,
2.781,0.11,0.03,0.22,-0.10,-0.14,-0.07,
2.782,0.11,0.03,0.22,-0.10,-0.14,-0.07,
2.783,0.07,0.03,0.20,-0.10,-0.14,-0.07,
2.783,0.07,0.03,0.20,-0.10,-0.14,-0.07,
2.791,0.07,0.03,0.20,-0.08,-0.18,-0.14,
2.792,0.07,0.03,0.20,-0.08,-0.18,-0.14,
2.793,0.02,0.06,0.18,-0.08,-0.18,-0.14,
2.793,0.02,0.06,0.18,-0.08,-0.18,-0.14,
2.8,0.02,0.06,0.18,-0.04,-0.21,-0.18,
2.801,0.02,0.06,0.18,-0.04,-0.21,-0.18,
2.801,-0.01,0.06,0.15,-0.04,-0.21,-0.18,
2.802,-0.01,0.06,0.15,-0.04,-0.21,-0.18,
2.809,-0.01,0.06,0.15,-0.01,-0.21,-0.18,
2.811,-0.01,0.06,0.15,-0.01,-0.21,-0.18,
2.812,-0.04,0.06,0.12,-0.01,-0.21,-0.18,
2.813,-0.04,0.06,0.12,-0.01,-0.21,-0.18,
2.819,-0.04,0.06,0.12,0.01,-0.19,-0.14,
2.821,-0.04,0.06,0.12,0.01,-0.19,-0.14,
2.822,-0.06,0.13,0.12,0.01,-0.19,-0.14,
2.823,-0.06,0.13,0.12,0.01,-0.19,-0.14,
2.829,-0.06,0.13,0.12,0.03,-0.16,-0.08,
2.83,-0.06,0.13,0.12,0.03,-0.16,-0.08,
2.83,-0.08,0.17,0.13,0.03,-0.16,-0.08,
2.831,-0.08,0.17,0.13,0.03,-0.16,-0.08,
2.84,-0.08,0.17,0.13,0.03,-0.16,-0.08,
2.842,-0.08,0.17,0.13,0.03,-0.16,-0.08,
2.843,-0.08,0.17,0.13,0.03,-0.16,-0.08,
2.844,-0.08,0.17,0.13,0.03,-0.16,-0.08,
2.849,-0.08,0.17,0.13,0.04,-0.13,-0.02,
2.849,-0.08,0.17,0.13,0.04,-0.13,-0.02,
2.849,-0.08,0.27,0.02,0.04,-0.13,-0.02,
2.85,-0.08,0.27,0.02,0.04,-0.13,-0.02,
2.857,-0.08,0.27,0.02,0.04,-0.11,0.04,
2.858,-0.08,0.27,0.02,0.04,-0.11,0.04,
2.859,-0.02,0.27,-0.06,0.04,-0.11,0.04,
2.859,-0.02,0.27,-0.06,0.04,-0.11,0.04,
2.867,-0.02,0.27,-0.06,0.04,-0.09,0.08,
2.867,-0.02,0.27,-0.06,0.04,-0.09,0.08,
2.868,0.01,0.27,-0.06,0.04,-0.09,0.08,
2.868,0.01,0.27,-0.06,0.04,-0.09,0.08,
2.878,0.01,0.27,-0.06,0.03,-0.10,0.11,
2.879,0.01,0.27,-0.06,0.03,-0.10,0.11,
2.879,-0.00,0.25,0.07,0.03,-0.10,0.11,
2.88,-0.00,0.25,0.07,0.03,-0.10,0.11,
2.886,-0.00,0.25,0.07,0.01,-0.12,0.13,
2.886,-0.00,0.25,0.07,0.01,-0.12,0.13,
2.887,-0.05,0.24,0.21,0.01,-0.12,0.13,
2.887,-0.05,0.24,0.21,0.01,-0.12,0.13,
2.895,-0.05,0.24,0.21,0.00,-0.15,0.14,
2.896,-0.05,0.24,0.21,0.00,-0.15,0.14,
2.896,-0.16,0.23,0.25,0.00,-0.15,0.14,
2.897,-0.16,0.23,0.25,0.00,-0.15,0.14,
2.905,-0.16,0.23,0.25,0.03,-0.16,0.14,
2.906,-0.16,0.23,0.25,0.03,-0.16,0.14,
2.907,-0.26,0.23,0.18,0.03,-0.16,0.14,
2.907,-0.26,0.23,0.18,0.03,-0.16,0.14,
2.914,-0.26,0.23,0.18,0.07,-0.14,0.16,
2.915,-0.26,0.23,0.18,0.07,-0.14,0.16,
2.916,-0.36,0.22,0.00,0.07,-0.14,0.16,
2.916,-0.36,0.22,0.00,0.07,-0.14,0.16,
2.924,-0.36,0.22,0.00,0.11,-0.09,0.18,
2.925,-0.36,0.22,0.00,0.11,-0.09,0.18,
2.926,-0.43,0.22,-0.20,0.11,-0.09,0.18,
2.926,-0.43,0.22,-0.20,0.11,-0.09,0.18,
2.938,-0.43,0.22,-0.20,0.12,-0.02,0.23,
2.939,-0.43,0.22,-0.20,0.12,-0.02,0.23,
2.94,-0.44,0.21,-0.33,0.12,-0.02,0.23,
2.94,-0.44,0.21,-0.33,0.12,-0.02,0.23,
2.943,-0.44,0.21,-0.33,0.07,0.03,0.28,
2.944,-0.44,0.21,-0.33,0.07,0.03,0.28,
2.944,-0.41,0.20,-0.37,0.07,0.03,0.28,
2.945,-0.41,0.20,-0.37,0.07,0.03,0.28,
2.952,-0.41,0.20,-0.37,-0.01,0.04,0.33,
2.953,-0.41,0.20,-0.37,-0.01,0.04,0.33,
2.953,-0.35,0.18,-0.35,-0.01,0.04,0.33,
2.953,-0.35,0.18,-0.35,-0.01,0.04,0.33,
2.962,-0.35,0.18,-0.35,-0.12,0.02,0.36,
2.963,-0.35,0.18,-0.35,-0.12,0.02,0.36,
2.963,-0.25,0.12,-0.29,-0.12,0.02,0.36,
2.963,-0.25,0.12,-0.29,-0.12,0.02,0.36,
2.971,-0.25,0.12,-0.29,-0.20,-0.03,0.37,
2.973,-0.25,0.12,-0.29,-0.20,-0.03,0.37,
2.974,-0.16,0.05,-0.20,-0.20,-0.03,0.37,
2.975,-0.16,0.05,-0.20,-0.20,-0.03,0.37,
2.98,-0.16,0.05,-0.20,-0.25,-0.06,0.33,
2.981,-0.16,0.05,-0.20,-0.25,-0.06,0.33,
2.982,-0.08,0.00,-0.13,-0.25,-0.06,0.33,
2.982,-0.08,0.00,-0.13,-0.25,-0.06,0.33,
2.99,-0.08,0.00,-0.13,-0.25,-0.06,0.26,
2.991,-0.08,0.00,-0.13,-0.25,-0.06,0.26,
2.992,-0.00,-0.00,-0.16,-0.25,-0.06,0.26,
2.992,-0.00,-0.00,-0.16,-0.25,-0.06,0.26,
3.0,-0.00,-0.00,-0.16,-0.22,-0.05,0.17,
3.0,-0.00,-0.00,-0.16,-0.22,-0.05,0.17,
3.001,0.03,-0.00,-0.19,-0.22,-0.05,0.17,
3.001,0.03,-0.00,-0.19,-0.22,-0.05,0.17,
3.009,0.03,-0.00,-0.19,-0.18,-0.05,0.07,
3.01,0.03,-0.00,-0.19,-0.18,-0.05,0.07,
3.011,0.03,0.02,-0.20,-0.18,-0.05,0.07,
3.011,0.03,0.02,-0.20,-0.18,-0.05,0.07,
3.019,0.03,0.02,-0.20,-0.15,-0.06,-0.02,
3.02,0.03,0.02,-0.20,-0.15,-0.06,-0.02,
3.02,-0.02,0.03,-0.28,-0.15,-0.06,-0.02,
3.021,-0.02,0.03,-0.28,-0.15,-0.06,-0.02,
3.029,-0.02,0.03,-0.28,-0.13,-0.07,-0.08,
3.03,-0.02,0.03,-0.28,-0.13,-0.07,-0.08,
3.031,-0.03,0.08,-0.40,-0.13,-0.07,-0.08,
3.031,-0.03,0.08,-0.40,-0.13,-0.07,-0.08,
3.04,-0.03,0.08,-0.40,-0.13,-0.07,-0.08,
3.042,-0.03,0.08,-0.40,-0.13,-0.07,-0.08,
3.042,-0.03,0.08,-0.40,-0.13,-0.07,-0.08,
3.043,-0.03,0.08,-0.40,-0.13,-0.07,-0.08,
3.048,-0.03,0.08,-0.40,-0.13,-0.09,-0.12,
3.048,-0.03,0.08,-0.40,-0.13,-0.09,-0.12,
3.049,-0.07,0.16,-0.55,-0.13,-0.09,-0.12,
3.049,-0.07,0.16,-0.55,-0.13,-0.09,-0.12,
3.057,-0.07,0.16,-0.55,-0.16,-0.10,-0.13,
3.058,-0.07,0.16,-0.55,-0.16,-0.10,-0.13,
3.058,-0.04,0.20,-0.57,-0.16,-0.10,-0.13,
3.059,-0.04,0.20,-0.57,-0.16,-0.10,-0.13,
3.067,-0.04,0.20,-0.57,-0.20,-0.10,-0.13,
3.067,-0.04,0.20,-0.57,-0.20,-0.10,-0.13,
3.068,-0.05,0.18,-0.46,-0.20,-0.10,-0.13,
3.068,-0.05,0.18,-0.46,-0.20,-0.10,-0.13,
3.076,-0.05,0.18,-0.46,-0.25,-0.09,-0.11,
3.076,-0.05,0.18,-0.46,-0.25,-0.09,-0.11,
3.077,-0.01,0.20,-0.31,-0.25,-0.09,-0.11,
3.077,-0.01,0.20,-0.31,-0.25,-0.09,-0.11,
3.085,-0.01,0.20,-0.31,-0.28,-0.09,-0.09,
3.086,-0.01,0.20,-0.31,-0.28,-0.09,-0.09,
3.087,-0.02,0.20,-0.14,-0.28,-0.09,-0.09,
3.088,-0.02,0.20,-0.14,-0.28,-0.09,-0.09,
3.095,-0.02,0.20,-0.14,-0.26,-0.08,-0.08,
3.096,-0.02,0.20,-0.14,-0.26,-0.08,-0.08,
3.096,-0.07,0.20,0.08,-0.26,-0.08,-0.08,
3.096,-0.07,0.20,0.08,-0.26,-0.08,-0.08,
3.104,-0.07,0.20,0.08,-0.19,-0.06,-0.07,
3.105,-0.07,0.20,0.08,-0.19,-0.06,-0.07,
3.105,-0.17,0.19,0.19,-0.19,-0.06,-0.07,
3.106,-0.17,0.19,0.19,-0.19,-0.06,-0.07,
3.114,-0.17,0.19,0.19,-0.07,-0.04,-0.05,
3.114,-0.17,0.19,0.19,-0.07,-0.04,-0.05,
3.115,-0.20,0.15,0.14,-0.07,-0.04,-0.05,
3.115,-0.20,0.15,0.14,-0.07,-0.04,-0.05,
3.123,-0.20,0.15,0.14,0.05,-0.03,-0.03,
3.124,-0.20,0.15,0.14,0.05,-0.03,-0.03,
3.124,-0.26,0.07,0.05,0.05,-0.03,-0.03,
3.125,-0.26,0.07,0.05,0.05,-0.03,-0.03,
3.139,-0.26,0.07,0.05,0.16,-0.03,0.01,
3.14,-0.26,0.07,0.05,0.16,-0.03,0.01,
3.141,-0.32,0.03,-0.03,0.16,-0.03,0.01,
3.142,-0.32,0.03,-0.03,0.16,-0.03,0.01,
3.143,-0.32,0.03,-0.03,0.23,-0.01,0.06,
3.143,-0.32,0.03,-0.03,0.23,-0.01,0.06,
3.144,-0.33,0.02,0.02,0.23,-0.01,0.06,
3.144,-0.33,0.02,0.02,0.23,-0.01,0.06,
3.152,-0.33,0.02,0.02,0.25,0.02,0.11,
3.154,-0.33,0.02,0.02,0.25,0.02,0.11,
3.154,-0.39,0.06,0.10,0.25,0.02,0.11,
3.155,-0.39,0.06,0.10,0.25,0.02,0.11,
3.162,-0.39,0.06,0.10,0.24,0.05,0.14,
3.162,-0.39,0.06,0.10,0.24,0.05,0.14,
3.163,-0.38,0.13,0.19,0.24,0.05,0.14,
3.163,-0.38,0.13,0.19,0.24,0.05,0.14,
3.172,-0.38,0.13,0.19,0.23,0.09,0.18,
3.172,-0.38,0.13,0.19,0.23,0.09,0.18,
3.172,-0.34,0.18,0.27,0.23,0.09,0.18,
3.173,-0.34,0.18,0.27,0.23,0.09,0.18,
3.181,-0.34,0.18,0.27,0.24,0.12,0.20,
3.181,-0.34,0.18,0.27,0.24,0.12,0.20,
3.182,-0.32,0.25,0.38,0.24,0.12,0.20,
3.182,-0.32,0.25,0.38,0.24,0.12,0.20,
3.19,-0.32,0.25,0.38,0.27,0.13,0.21,
3.191,-0.32,0.25,0.38,0.27,0.13,0.21,
3.191,-0.34,0.30,0.54,0.27,0.13,0.21,
3.192,-0.34,0.30,0.54,0.27,0.13,0.21,
3.199,-0.34,0.30,0.54,0.31,0.15,0.21,
3.2,-0.34,0.30,0.54,0.31,0.15,0.21,
3.2,-0.37,0.34,0.68,0.31,0.15,0.21,
3.2,-0.37,0.34,0.68,0.31,0.15,0.21,
3.209,-0.37,0.34,0.68,0.38,0.18,0.20,
3.21,-0.37,0.34,0.68,0.38,0.18,0.20,
3.21,-0.37,0.29,0.68,0.38,0.18,0.20,
3.211,-0.37,0.29,0.68,0.38,0.18,0.20,
3.239,-0.37,0.29,0.68,0.38,0.18,0.20,
3.239,-0.37,0.29,0.68,0.38,0.18,0.20,
3.24,-0.37,0.29,0.68,0.38,0.18,0.20,
3.24,-0.37,0.29,0.68,0.38,0.18,0.20,
3.241,-0.37,0.29,0.68,0.53,0.29,0.16,
3.242,-0.37,0.29,0.68,0.53,0.29,0.16,
3.242,-0.13,0.03,0.26,0.53,0.29,0.16,
3.243,-0.13,0.03,0.26,0.53,0.29,0.16,
3.243,-0.13,0.03,0.26,0.53,0.29,0.16,
3.243,-0.13,0.03,0.26,0.53,0.29,0.16,
3.244,-0.13,0.03,0.26,0.53,0.29,0.16,
3.244,-0.13,0.03,0.26,0.53,0.29,0.16,
3.247,-0.13,0.03,0.26,0.53,0.31,0.12,
3.248,-0.13,0.03,0.26,0.53,0.31,0.12,
3.248,0.40,-0.12,-0.25,0.53,0.31,0.12,
3.248,0.40,-0.12,-0.25,0.53,0.31,0.12,
3.257,0.40,-0.12,-0.25,0.43,0.27,0.05,
3.257,0.40,-0.12,-0.25,0.43,0.27,0.05,
3.257,0.59,-0.15,-0.26,0.43,0.27,0.05,
3.258,0.59,-0.15,-0.26,0.43,0.27,0.05,
3.266,0.59,-0.15,-0.26,0.24,0.16,-0.06,
3.267,0.59,-0.15,-0.26,0.24,0.16,-0.06,
3.268,0.59,-0.18,-0.09,0.24,0.16,-0.06,
3.268,0.59,-0.18,-0.09,0.24,0.16,-0.06,
3.276,0.59,-0.18,-0.09,0.02,-0.00,-0.20,
3.277,0.59,-0.18,-0.09,0.02,-0.00,-0.20,
3.277,0.44,-0.15,0.19,0.02,-0.00,-0.20,
3.278,0.44,-0.15,0.19,0.02,-0.00,-0.20,
3.286,0.44,-0.15,0.19,-0.15,-0.16,-0.34,
3.287,0.44,-0.15,0.19,-0.15,-0.16,-0.34,
3.287,0.15,-0.04,0.45,-0.15,-0.16,-0.34,
3.288,0.15,-0.04,0.45,-0.15,-0.16,-0.34,
3.295,0.15,-0.04,0.45,-0.22,-0.25,-0.44,
3.296,0.15,-0.04,0.45,-0.22,-0.25,-0.44,
3.296,-0.17,0.10,0.64,-0.22,-0.25,-0.44,
3.297,-0.17,0.10,0.64,-0.22,-0.25,-0.44,
3.304,-0.17,0.10,0.64,-0.18,-0.24,-0.45,
3.305,-0.17,0.10,0.64,-0.18,-0.24,-0.45,
3.306,-0.46,0.25,0.74,-0.18,-0.24,-0.45,
3.307,-0.46,0.25,0.74,-0.18,-0.24,-0.45,
3.314,-0.46,0.25,0.74,-0.04,-0.15,-0.36,
3.315,-0.46,0.25,0.74,-0.04,-0.15,-0.36,
3.316,-0.71,0.31,0.73,-0.04,-0.15,-0.36,
3.316,-0.71,0.31,0.73,-0.04,-0.15,-0.36,
3.323,-0.71,0.31,0.73,0.13,-0.01,-0.20,
3.324,-0.71,0.31,0.73,0.13,-0.01,-0.20,
3.325,-0.83,0.29,0.62,0.13,-0.01,-0.20,
3.325,-0.83,0.29,0.62,0.13,-0.01,-0.20,
3.335,-0.83,0.29,0.62,0.28,0.14,0.01,
3.336,-0.83,0.29,0.62,0.28,0.14,0.01,
3.336,-0.80,0.23,0.47,0.28,0.14,0.01,
3.336,-0.80,0.23,0.47,0.28,0.14,0.01,
3.342,-0.80,0.23,0.47,0.38,0.27,0.22,
3.343,-0.80,0.23,0.47,0.38,0.27,0.22,
3.343,-0.65,0.19,0.31,0.38,0.27,0.22,
3.343,-0.65,0.19,0.31,0.38,0.27,0.22,
3.352,-0.65,0.19,0.31,0.41,0.33,0.40,
3.353,-0.65,0.19,0.31,0.41,0.33,0.40,
3.353,-0.43,0.17,0.18,0.41,0.33,0.40,
3.353,-0.43,0.17,0.18,0.41,0.33,0.40,
3.361,-0.43,0.17,0.18,0.36,0.32,0.51,
3.362,-0.43,0.17,0.18,0.36,0.32,0.51,
3.363,-0.20,0.12,0.07,0.36,0.32,0.51,
3.363,-0.20,0.12,0.07,0.36,0.32,0.51,
3.371,-0.20,0.12,0.07,0.25,0.25,0.53,
3.372,-0.20,0.12,0.07,0.25,0.25,0.53,
3.373,0.01,0.09,-0.02,0.25,0.25,0.53,
3.373,0.01,0.09,-0.02,0.25,0.25,0.53,
3.38,0.01,0.09,-0.02,0.12,0.17,0.47,
3.381,0.01,0.09,-0.02,0.12,0.17,0.47,
3.382,0.22,0.06,-0.09,0.12,0.17,0.47,
3.382,0.22,0.06,-0.09,0.12,0.17,0.47,
3.39,0.22,0.06,-0.09,-0.01,0.09,0.34,
3.391,0.22,0.06,-0.09,-0.01,0.09,0.34,
3.391,0.37,0.01,-0.15,-0.01,0.09,0.34,
3.392,0.37,0.01,-0.15,-0.01,0.09,0.34,
3.399,0.37,0.01,-0.15,-0.13,0.01,0.17,
3.4,0.37,0.01,-0.15,-0.13,0.01,0.17,
3.401,0.45,0.01,-0.20,-0.13,0.01,0.17,
3.401,0.45,0.01,-0.20,-0.13,0.01,0.17,
3.409,0.45,0.01,-0.20,-0.23,-0.07,-0.01,
3.41,0.45,0.01,-0.20,-0.23,-0.07,-0.01,
3.41,0.47,-0.01,-0.27,-0.23,-0.07,-0.01,
3.411,0.47,-0.01,-0.27,-0.23,-0.07,-0.01,
3.418,0.47,-0.01,-0.27,-0.23,-0.07,-0.01,
3.419,0.47,-0.01,-0.27,-0.23,-0.07,-0.01,
3.42,0.47,-0.01,-0.27,-0.23,-0.07,-0.01,
3.42,0.47,-0.01,-0.27,-0.23,-0.07,-0.01,
3.429,0.47,-0.01,-0.27,-0.31,-0.15,-0.17,
3.43,0.47,-0.01,-0.27,-0.31,-0.15,-0.17,
3.43,0.36,-0.00,-0.47,-0.31,-0.15,-0.17,
3.431,0.36,-0.00,-0.47,-0.31,-0.15,-0.17,
3.437,0.36,-0.00,-0.47,-0.38,-0.21,-0.29,
3.439,0.36,-0.00,-0.47,-0.38,-0.21,-0.29,
3.439,0.37,-0.01,-0.58,-0.38,-0.21,-0.29,
3.44,0.37,-0.01,-0.58,-0.38,-0.21,-0.29,
3.448,0.37,-0.01,-0.58,-0.45,-0.26,-0.36,
3.448,0.37,-0.01,-0.58,-0.45,-0.26,-0.36,
3.449,0.42,-0.02,-0.65,-0.45,-0.26,-0.36,
3.449,0.42,-0.02,-0.65,-0.45,-0.26,-0.36,
3.456,0.42,-0.02,-0.65,-0.52,-0.30,-0.38,
3.457,0.42,-0.02,-0.65,-0.52,-0.30,-0.38,
3.458,0.49,-0.05,-0.70,-0.52,-0.30,-0.38,
3.458,0.49,-0.05,-0.70,-0.52,-0.30,-0.38,
3.466,0.49,-0.05,-0.70,-0.59,-0.34,-0.37,
3.467,0.49,-0.05,-0.70,-0.59,-0.34,-0.37,
3.467,0.58,-0.06,-0.73,-0.59,-0.34,-0.37,
3.468,0.58,-0.06,-0.73,-0.59,-0.34,-0.37,
3.476,0.58,-0.06,-0.73,-0.65,-0.37,-0.36,
3.477,0.58,-0.06,-0.73,-0.65,-0.37,-0.36,
3.477,0.59,-0.07,-0.73,-0.65,-0.37,-0.36,
3.477,0.59,-0.07,-0.73,-0.65,-0.37,-0.36,
3.485,0.59,-0.07,-0.73,-0.68,-0.39,-0.36,
3.486,0.59,-0.07,-0.73,-0.68,-0.39,-0.36,
3.487,0.53,-0.05,-0.72,-0.68,-0.39,-0.36,
3.487,0.53,-0.05,-0.72,-0.68,-0.39,-0.36,
3.495,0.53,-0.05,-0.72,-0.68,-0.39,-0.36,
3.496,0.53,-0.05,-0.72,-0.68,-0.39,-0.36,
3.497,0.44,-0.01,-0.68,-0.68,-0.39,-0.36,
3.498,0.44,-0.01,-0.68,-0.68,-0.39,-0.36,
3.504,0.44,-0.01,-0.68,-0.66,-0.36,-0.36,
3.505,0.44,-0.01,-0.68,-0.66,-0.36,-0.36,
3.506,0.33,0.03,-0.64,-0.66,-0.36,-0.36,
3.507,0.33,0.03,-0.64,-0.66,-0.36,-0.36,
3.513,0.33,0.03,-0.64,-0.61,-0.32,-0.33,
3.514,0.33,0.03,-0.64,-0.61,-0.32,-0.33,
3.515,0.25,0.06,-0.60,-0.61,-0.32,-0.33,
3.515,0.25,0.06,-0.60,-0.61,-0.32,-0.33,
3.524,0.25,0.06,-0.60,-0.54,-0.26,-0.28,
3.525,0.25,0.06,-0.60,-0.54,-0.26,-0.28,
3.525,0.21,0.08,-0.53,-0.54,-0.26,-0.28,
3.526,0.21,0.08,-0.53,-0.54,-0.26,-0.28,
3.536,0.21,0.08,-0.53,-0.46,-0.21,-0.21,
3.537,0.21,0.08,-0.53,-0.46,-0.21,-0.21,
3.537,0.15,0.10,-0.41,-0.46,-0.21,-0.21,
3.538,0.15,0.10,-0.41,-0.46,-0.21,-0.21,
3.542,0.15,0.10,-0.41,-0.37,-0.19,-0.13,
3.543,0.15,0.10,-0.41,-0.37,-0.19,-0.13,
3.543,0.10,0.13,-0.26,-0.37,-0.19,-0.13,
3.543,0.10,0.13,-0.26,-0.37,-0.19,-0.13,
3.553,0.10,0.13,-0.26,-0.27,-0.15,-0.05,
3.554,0.10,0.13,-0.26,-0.27,-0.15,-0.05,
3.554,0.02,0.19,-0.11,-0.27,-0.15,-0.05,
3.555,0.02,0.19,-0.11,-0.27,-0.15,-0.05,
3.561,0.02,0.19,-0.11,-0.15,-0.10,0.02,
3.562,0.02,0.19,-0.11,-0.15,-0.10,0.02,
3.562,-0.08,0.23,0.02,-0.15,-0.10,0.02,
3.563,-0.08,0.23,0.02,-0.15,-0.10,0.02,
3.572,-0.08,0.23,0.02,-0.01,-0.03,0.08,
3.573,-0.08,0.23,0.02,-0.01,-0.03,0.08,
3.573,-0.15,0.24,0.10,-0.01,-0.03,0.08,
3.573,-0.15,0.24,0.10,-0.01,-0.03,0.08,
3.58,-0.15,0.24,0.10,0.13,0.04,0.14,
3.58,-0.15,0.24,0.10,0.13,0.04,0.14,
3.581,-0.21,0.22,0.19,0.13,0.04,0.14,
3.581,-0.21,0.22,0.19,0.13,0.04,0.14,
3.589,-0.21,0.22,0.19,0.27,0.09,0.20,
3.59,-0.21,0.22,0.19,0.27,0.09,0.20,
3.591,-0.25,0.19,0.19,0.27,0.09,0.20,
3.591,-0.25,0.19,0.19,0.27,0.09,0.20,
3.599,-0.25,0.19,0.19,0.38,0.13,0.25,
3.6,-0.25,0.19,0.19,0.38,0.13,0.25,
3.601,-0.18,0.18,0.11,0.38,0.13,0.25,
3.601,-0.18,0.18,0.11,0.38,0.13,0.25,
3.609,-0.18,0.18,0.11,0.47,0.17,0.29,
3.61,-0.18,0.18,0.11,0.47,0.17,0.29,
3.611,-0.06,0.16,0.00,0.47,0.17,0.29,
3.611,-0.06,0.16,0.00,0.47,0.17,0.29,
3.618,-0.06,0.16,0.00,0.47,0.17,0.29,
3.619,-0.06,0.16,0.00,0.47,0.17,0.29,
3.62,-0.06,0.16,0.00,0.47,0.17,0.29,
3.621,-0.06,0.16,0.00,0.47,0.17,0.29,
3.627,-0.06,0.16,0.00,0.51,0.23,0.30,
3.628,-0.06,0.16,0.00,0.51,0.23,0.30,
3.628,0.19,0.08,-0.15,0.51,0.23,0.30,
3.629,0.19,0.08,-0.15,0.51,0.23,0.30,
3.638,0.19,0.08,-0.15,0.49,0.25,0.27,
3.639,0.19,0.08,-0.15,0.49,0.25,0.27,
3.64,0.15,0.03,-0.08,0.49,0.25,0.27,
3.64,0.15,0.03,-0.08,0.49,0.25,0.27,
3.647,0.15,0.03,-0.08,0.42,0.22,0.21,
3.647,0.15,0.03,-0.08,0.42,0.22,0.21,
3.648,0.03,0.04,0.04,0.42,0.22,0.21,
3.648,0.03,0.04,0.04,0.42,0.22,0.21,
3.657,0.03,0.04,0.04,0.33,0.17,0.12,
3.657,0.03,0.04,0.04,0.33,0.17,0.12,
3.658,-0.12,0.06,0.15,0.33,0.17,0.12,
3.658,-0.12,0.06,0.15,0.33,0.17,0.12,
3.666,-0.12,0.06,0.15,0.26,0.13,0.05,
3.667,-0.12,0.06,0.15,0.26,0.13,0.05,
3.668,-0.26,0.12,0.23,0.26,0.13,0.05,
3.668,-0.26,0.12,0.23,0.26,0.13,0.05,
3.675,-0.26,0.12,0.23,0.23,0.12,0.01,
3.675,-0.26,0.12,0.23,0.23,0.12,0.01,
3.676,-0.32,0.19,0.25,0.23,0.12,0.01,
3.677,-0.32,0.19,0.25,0.23,0.12,0.01,
3.685,-0.32,0.19,0.25,0.23,0.13,0.03,
3.686,-0.32,0.19,0.25,0.23,0.13,0.03,
3.686,-0.37,0.21,0.20,0.23,0.13,0.03,
3.687,-0.37,0.21,0.20,0.23,0.13,0.03,
3.695,-0.37,0.21,0.20,0.25,0.14,0.08,
3.696,-0.37,0.21,0.20,0.25,0.14,0.08,
3.696,-0.37,0.24,0.13,0.25,0.14,0.08,
3.697,-0.37,0.24,0.13,0.25,0.14,0.08,
3.704,-0.37,0.24,0.13,0.25,0.15,0.13,
3.705,-0.37,0.24,0.13,0.25,0.15,0.13,
3.705,-0.35,0.25,0.07,0.25,0.15,0.13,
3.706,-0.35,0.25,0.07,0.25,0.15,0.13,
3.713,-0.35,0.25,0.07,0.24,0.14,0.18,
3.714,-0.35,0.25,0.07,0.24,0.14,0.18,
3.715,-0.33,0.21,0.02,0.24,0.14,0.18,
3.715,-0.33,0.21,0.02,0.24,0.14,0.18,
3.724,-0.33,0.21,0.02,0.19,0.13,0.20,
3.725,-0.33,0.21,0.02,0.19,0.13,0.20,
3.726,-0.25,0.19,-0.01,0.19,0.13,0.20,
3.726,-0.25,0.19,-0.01,0.19,0.13,0.20,
3.737,-0.25,0.19,-0.01,0.14,0.13,0.20,
3.738,-0.25,0.19,-0.01,0.14,0.13,0.20,
3.739,-0.14,0.18,-0.04,0.14,0.13,0.20,
3.739,-0.14,0.18,-0.04,0.14,0.13,0.20,
3.744,-0.14,0.18,-0.04,0.07,0.12,0.18,
3.745,-0.14,0.18,-0.04,0.07,0.12,0.18,
3.745,0.01,0.17,-0.11,0.07,0.12,0.18,
3.746,0.01,0.17,-0.11,0.07,0.12,0.18,
3.751,0.01,0.17,-0.11,0.01,0.11,0.12,
3.752,0.01,0.17,-0.11,0.01,0.11,0.12,
3.753,0.16,0.17,-0.16,0.01,0.11,0.12,
3.753,0.16,0.17,-0.16,0.01,0.11,0.12,
3.761,0.16,0.17,-0.16,-0.05,0.08,0.05,
3.761,0.16,0.17,-0.16,-0.05,0.08,0.05,
3.762,0.28,0.15,-0.23,-0.05,0.08,0.05,
3.763,0.28,0.15,-0.23,-0.05,0.08,0.05,
3.771,0.28,0.15,-0.23,-0.12,0.01,-0.05,
3.772,0.28,0.15,-0.23,-0.12,0.01,-0.05,
3.773,0.34,0.16,-0.25,-0.12,0.01,-0.05,
3.773,0.34,0.16,-0.25,-0.12,0.01,-0.05,
3.779,0.34,0.16,-0.25,-0.19,-0.08,-0.15,
3.78,0.34,0.16,-0.25,-0.19,-0.08,-0.15,
3.781,0.32,0.17,-0.26,-0.19,-0.08,-0.15,
3.781,0.32,0.17,-0.26,-0.19,-0.08,-0.15,
3.79,0.32,0.17,-0.26,-0.25,-0.15,-0.25,
3.791,0.32,0.17,-0.26,-0.25,-0.15,-0.25,
3.792,0.28,0.17,-0.28,-0.25,-0.15,-0.25,
3.792,0.28,0.17,-0.28,-0.25,-0.15,-0.25,
3.801,0.28,0.17,-0.28,-0.29,-0.19,-0.32,
3.802,0.28,0.17,-0.28,-0.29,-0.19,-0.32,
3.803,0.20,0.21,-0.25,-0.29,-0.19,-0.32,
3.803,0.20,0.21,-0.25,-0.29,-0.19,-0.32,
3.808,0.20,0.21,-0.25,-0.29,-0.19,-0.32,
3.809,0.20,0.21,-0.25,-0.29,-0.19,-0.32,
3.81,0.20,0.21,-0.25,-0.29,-0.19,-0.32,
3.81,0.20,0.21,-0.25,-0.29,-0.19,-0.32,
3.818,0.20,0.21,-0.25,-0.31,-0.20,-0.36,
3.819,0.20,0.21,-0.25,-0.31,-0.20,-0.36,
3.819,0.11,0.23,-0.19,-0.31,-0.20,-0.36,
3.82,0.11,0.23,-0.19,-0.31,-0.20,-0.36,
3.828,0.11,0.23,-0.19,-0.31,-0.19,-0.35,
3.829,0.11,0.23,-0.19,-0.31,-0.19,-0.35,
3.829,0.08,0.23,-0.12,-0.31,-0.19,-0.35,
3.83,0.08,0.23,-0.12,-0.31,-0.19,-0.35,
3.838,0.08,0.23,-0.12,-0.29,-0.16,-0.31,
3.839,0.08,0.23,-0.12,-0.29,-0.16,-0.31,
3.839,0.08,0.20,-0.09,-0.29,-0.16,-0.31,
3.84,0.08,0.20,-0.09,-0.29,-0.16,-0.31,
3.846,0.08,0.20,-0.09,-0.24,-0.11,-0.25,
3.847,0.08,0.20,-0.09,-0.24,-0.11,-0.25,
3.847,0.07,0.15,-0.08,-0.24,-0.11,-0.25,
3.848,0.07,0.15,-0.08,-0.24,-0.11,-0.25,
3.856,0.07,0.15,-0.08,-0.18,-0.05,-0.19,
3.857,0.07,0.15,-0.08,-0.18,-0.05,-0.19,
3.857,0.03,0.12,-0.10,-0.18,-0.05,-0.19,
3.858,0.03,0.12,-0.10,-0.18,-0.05,-0.19,
3.865,0.03,0.12,-0.10,-0.12,-0.01,-0.13,
3.866,0.03,0.12,-0.10,-0.12,-0.01,-0.13,
3.866,0.02,0.14,-0.14,-0.12,-0.01,-0.13,
3.867,0.02,0.14,-0.14,-0.12,-0.01,-0.13,
3.876,0.02,0.14,-0.14,-0.08,0.02,-0.08,
3.877,0.02,0.14,-0.14,-0.08,0.02,-0.08,
3.878,-0.01,0.15,-0.18,-0.08,0.02,-0.08,
3.879,-0.01,0.15,-0.18,-0.08,0.02,-0.08,
3.884,-0.01,0.15,-0.18,-0.05,0.04,-0.04,
3.885,-0.01,0.15,-0.18,-0.05,0.04,-0.04,
3.886,-0.03,0.16,-0.21,-0.05,0.04,-0.04,
3.887,-0.03,0.16,-0.21,-0.05,0.04,-0.04,
3.894,-0.03,0.16,-0.21,-0.04,0.05,0.01,
3.895,-0.03,0.16,-0.21,-0.04,0.05,0.01,
3.895,-0.02,0.16,-0.20,-0.04,0.05,0.01,
3.896,-0.02,0.16,-0.20,-0.04,0.05,0.01,
3.903,-0.02,0.16,-0.20,-0.04,0.05,0.04,
3.904,-0.02,0.16,-0.20,-0.04,0.05,0.04,
3.905,0.01,0.14,-0.16,-0.04,0.05,0.04,
3.906,0.01,0.14,-0.16,-0.04,0.05,0.04,
3.913,0.01,0.14,-0.16,-0.05,0.05,0.07,
3.914,0.01,0.14,-0.16,-0.05,0.05,0.07,
3.914,0.03,0.13,-0.10,-0.05,0.05,0.07,
3.915,0.03,0.13,-0.10,-0.05,0.05,0.07,
3.922,0.03,0.13,-0.10,-0.04,0.08,0.08,
3.923,0.03,0.13,-0.10,-0.04,0.08,0.08,
3.925,0.07,0.14,-0.05,-0.04,0.08,0.08,
3.925,0.07,0.14,-0.05,-0.04,0.08,0.08,
3.937,0.07,0.14,-0.05,-0.02,0.10,0.07,
3.938,0.07,0.14,-0.05,-0.02,0.10,0.07,
3.939,0.08,0.15,-0.01,-0.02,0.10,0.07,
3.94,0.08,0.15,-0.01,-0.02,0.10,0.07,
3.942,0.08,0.15,-0.01,0.01,0.12,0.06,
3.943,0.08,0.15,-0.01,0.01,0.12,0.06,
3.944,0.07,0.14,-0.01,0.01,0.12,0.06,
3.944,0.07,0.14,-0.01,0.01,0.12,0.06,
3.951,0.07,0.14,-0.01,0.04,0.12,0.04,
3.952,0.07,0.14,-0.01,0.04,0.12,0.04,
3.952,0.06,0.17,-0.03,0.04,0.12,0.04,
3.953,0.06,0.17,-0.03,0.04,0.12,0.04,
3.961,0.06,0.17,-0.03,0.07,0.13,0.02,
3.963,0.06,0.17,-0.03,0.07,0.13,0.02,
3.963,0.00,0.18,-0.08,0.07,0.13,0.02,
3.964,0.00,0.18,-0.08,0.07,0.13,0.02,
3.971,0.00,0.18,-0.08,0.10,0.13,0.01,
3.972,0.00,0.18,-0.08,0.10,0.13,0.01,
3.972,-0.05,0.20,-0.14,0.10,0.13,0.01,
3.973,-0.05,0.20,-0.14,0.10,0.13,0.01,
3.979,-0.05,0.20,-0.14,0.10,0.13,0.02,
3.98,-0.05,0.20,-0.14,0.10,0.13,0.02,
3.98,-0.09,0.25,-0.17,0.10,0.13,0.02,
3.981,-0.09,0.25,-0.17,0.10,0.13,0.02,
3.989,-0.09,0.25,-0.17,0.08,0.12,0.04,
3.99,-0.09,0.25,-0.17,0.08,0.12,0.04,
3.991,-0.12,0.24,-0.19,0.08,0.12,0.04,
3.991,-0.12,0.24,-0.19,0.08,0.12,0.04,
3.999,-0.12,0.24,-0.19,0.05,0.11,0.07,
4.0,-0.12,0.24,-0.19,0.05,0.11,0.07,
4.001,-0.11,0.22,-0.18,0.05,0.11,0.07,
4.001,-0.11,0.22,-0.18,0.05,0.11,0.07,
4.009,-0.11,0.22,-0.18,0.05,0.11,0.07,
4.01,-0.11,0.22,-0.18,0.05,0.11,0.07,
4.011,-0.11,0.22,-0.18,0.05,0.11,0.07,
4.012,-0.11,0.22,-0.18,0.05,0.11,0.07,
4.018,-0.11,0.22,-0.18,0.02,0.10,0.10,
4.018,-0.11,0.22,-0.18,0.02,0.10,0.10,
4.019,-0.06,0.16,-0.10,0.02,0.10,0.10,
4.019,-0.06,0.16,-0.10,0.02,0.10,0.10,
4.028,-0.06,0.16,-0.10,-0.01,0.08,0.13,
4.029,-0.06,0.16,-0.10,-0.01,0.08,0.13,
4.03,-0.03,0.13,-0.07,-0.01,0.08,0.13,
4.03,-0.03,0.13,-0.07,-0.01,0.08,0.13,
4.038,-0.03,0.13,-0.07,-0.02,0.07,0.14,
4.04,-0.03,0.13,-0.07,-0.02,0.07,0.14,
4.041,-0.01,0.12,-0.04,-0.02,0.07,0.14,
4.042,-0.01,0.12,-0.04,-0.02,0.07,0.14,
4.049,-0.01,0.12,-0.04,-0.02,0.06,0.12,
4.05,-0.01,0.12,-0.04,-0.02,0.06,0.12,
4.052,0.03,0.11,-0.03,-0.02,0.06,0.12,
4.052,0.03,0.11,-0.03,-0.02,0.06,0.12,
4.056,0.03,0.11,-0.03,-0.01,0.03,0.10,
4.056,0.03,0.11,-0.03,-0.01,0.03,0.10,
4.057,0.07,0.11,-0.01,-0.01,0.03,0.10,
4.057,0.07,0.11,-0.01,-0.01,0.03,0.10,
4.065,0.07,0.11,-0.01,-0.00,-0.04,0.07,
4.066,0.07,0.11,-0.01,-0.00,-0.04,0.07,
4.066,0.08,0.14,-0.01,-0.00,-0.04,0.07,
4.066,0.08,0.14,-0.01,-0.00,-0.04,0.07,
4.074,0.08,0.14,-0.01,-0.00,-0.12,0.05,
4.075,0.08,0.14,-0.01,-0.00,-0.12,0.05,
4.075,0.08,0.16,-0.02,-0.00,-0.12,0.05,
4.076,0.08,0.16,-0.02,-0.00,-0.12,0.05,
4.084,0.08,0.16,-0.02,0.00,-0.19,0.02,
4.085,0.08,0.16,-0.02,0.00,-0.19,0.02,
4.085,0.05,0.19,-0.04,0.00,-0.19,0.02,
4.086,0.05,0.19,-0.04,0.00,-0.19,0.02,
4.094,0.05,0.19,-0.04,0.01,-0.21,-0.00,
4.095,0.05,0.19,-0.04,0.01,-0.21,-0.00,
4.096,0.01,0.19,-0.08,0.01,-0.21,-0.00,
4.096,0.01,0.19,-0.08,0.01,-0.21,-0.00,
4.103,0.01,0.19,-0.08,0.01,-0.19,-0.02,
4.105,0.01,0.19,-0.08,0.01,-0.19,-0.02,
4.105,0.00,0.19,-0.08,0.01,-0.19,-0.02,
4.106,0.00,0.19,-0.08,0.01,-0.19,-0.02,
4.113,0.00,0.19,-0.08,0.01,-0.16,-0.02,
4.113,0.00,0.19,-0.08,0.01,-0.16,-0.02,
4.114,0.00,0.19,-0.07,0.01,-0.16,-0.02,
4.115,0.00,0.19,-0.07,0.01,-0.16,-0.02,
4.122,0.00,0.19,-0.07,0.01,-0.13,-0.02,
4.123,0.00,0.19,-0.07,0.01,-0.13,-0.02,
4.124,0.00,0.19,-0.07,0.01,-0.13,-0.02,
4.124,0.00,0.19,-0.07,0.01,-0.13,-0.02,
4.137,0.00,0.19,-0.07,0.01,-0.10,-0.02,
4.138,0.00,0.19,-0.07,0.01,-0.10,-0.02,
4.139,-0.00,0.19,-0.06,0.01,-0.10,-0.02,
4.139,-0.00,0.19,-0.06,0.01,-0.10,-0.02,
4.141,-0.00,0.19,-0.06,-0.00,-0.09,-0.01,
4.143,-0.00,0.19,-0.06,-0.00,-0.09,-0.01,
4.143,-0.00,0.19,-0.06,-0.00,-0.09,-0.01,
4.144,-0.00,0.19,-0.06,-0.00,-0.09,-0.01,
4.152,-0.00,0.19,-0.06,-0.01,-0.07,-0.01,
4.153,-0.00,0.19,-0.06,-0.01,-0.07,-0.01,
4.154,-0.00,0.19,-0.05,-0.01,-0.07,-0.01,
4.154,-0.00,0.19,-0.05,-0.01,-0.07,-0.01,
4.16,-0.00,0.19,-0.05,-0.00,-0.06,-0.01,
4.161,-0.00,0.19,-0.05,-0.00,-0.06,-0.01,
4.162,-0.00,0.19,-0.05,-0.00,-0.06,-0.01,
4.162,-0.00,0.19,-0.05,-0.00,-0.06,-0.01,
4.17,-0.00,0.19,-0.05,-0.00,-0.05,-0.00,
4.172,-0.00,0.19,-0.05,-0.00,-0.05,-0.00,
4.172,-0.00,0.19,-0.05,-0.00,-0.05,-0.00,
4.173,-0.00,0.19,-0.05,-0.00,-0.05,-0.00,
4.179,-0.00,0.19,-0.05,-0.00,-0.04,-0.00,
4.18,-0.00,0.19,-0.05,-0.00,-0.04,-0.00,
4.181,-0.00,0.19,-0.05,-0.00,-0.04,-0.00,
4.181,-0.00,0.19,-0.05,-0.00,-0.04,-0.00,
4.189,-0.00,0.19,-0.05,-0.00,-0.04,-0.00,
4.19,-0.00,0.19,-0.05,-0.00,-0.04,-0.00,
4.19,-0.00,0.19,-0.05,-0.00,-0.04,-0.00,
4.191,-0.00,0.19,-0.05,-0.00,-0.04,-0.00,
4.199,-0.00,0.19,-0.05,-0.00,-0.03,-0.00,
4.2,-0.00,0.19,-0.05,-0.00,-0.03,-0.00,
4.2,0.00,0.19,-0.04,-0.00,-0.03,-0.00,
4.201,0.00,0.19,-0.04,-0.00,-0.03,-0.00,
4.208,0.00,0.19,-0.04,-0.00,-0.03,-0.00,
4.209,0.00,0.19,-0.04,-0.00,-0.03,-0.00,
4.21,0.00,0.19,-0.04,-0.00,-0.03,-0.00,
4.21,0.00,0.19,-0.04,-0.00,-0.03,-0.00,
4.23,0.00,0.19,-0.04,-0.00,-0.02,-0.00,
4.231,0.00,0.19,-0.04,-0.00,-0.02,-0.00,
4.232,0.30,-0.09,0.13,-0.00,-0.02,-0.00,
4.232,0.30,-0.09,0.13,-0.00,-0.02,-0.00,
4.233,0.30,-0.09,0.13,-0.00,-0.02,-0.00,
4.233,0.30,-0.09,0.13,-0.00,-0.02,-0.00,
4.234,0.30,-0.09,0.13,-0.00,-0.02,-0.00,
4.235,0.30,-0.09,0.13,-0.00,-0.02,-0.00,
4.243,0.30,-0.09,0.13,0.01,-0.02,-0.05,
4.244,0.30,-0.09,0.13,0.01,-0.02,-0.05,
4.245,0.46,-0.10,0.11,0.01,-0.02,-0.05,
4.245,0.46,-0.10,0.11,0.01,-0.02,-0.05,
4.246,0.46,-0.10,0.11,0.06,-0.08,-0.28,
4.246,0.46,-0.10,0.11,0.06,-0.08,-0.28,
4.246,0.47,-0.10,0.11,0.06,-0.08,-0.28,
4.247,0.47,-0.10,0.11,0.06,-0.08,-0.28,
4.256,0.47,-0.10,0.11,0.06,-0.08,-0.28,
4.257,0.47,-0.10,0.11,0.06,-0.08,-0.28,
4.257,0.47,-0.10,0.11,0.06,-0.08,-0.28,
4.257,0.47,-0.10,0.11,0.06,-0.08,-0.28,
4.265,0.47,-0.10,0.11,0.09,-0.13,-0.45,
4.266,0.47,-0.10,0.11,0.09,-0.13,-0.45,
4.267,0.40,-0.06,0.07,0.09,-0.13,-0.45,
4.267,0.40,-0.06,0.07,0.09,-0.13,-0.45,
4.275,0.40,-0.06,0.07,0.08,-0.14,-0.46,
4.276,0.40,-0.06,0.07,0.08,-0.14,-0.46,
4.276,0.36,-0.05,0.04,0.08,-0.14,-0.46,
4.277,0.36,-0.05,0.04,0.08,-0.14,-0.46,
4.284,0.36,-0.05,0.04,0.07,-0.12,-0.42,
4.285,0.36,-0.05,0.04,0.07,-0.12,-0.42,
4.286,0.32,-0.06,-0.01,0.07,-0.12,-0.42,
4.287,0.32,-0.06,-0.01,0.07,-0.12,-0.42,
4.294,0.32,-0.06,-0.01,0.05,-0.11,-0.37,
4.295,0.32,-0.06,-0.01,0.05,-0.11,-0.37,
4.295,0.26,-0.10,-0.06,0.05,-0.11,-0.37,
4.296,0.26,-0.10,-0.06,0.05,-0.11,-0.37,
4.303,0.26,-0.10,-0.06,0.03,-0.10,-0.31,
4.305,0.26,-0.10,-0.06,0.03,-0.10,-0.31,
4.305,0.24,-0.17,-0.11,0.03,-0.10,-0.31,
4.306,0.24,-0.17,-0.11,0.03,-0.10,-0.31,
4.312,0.24,-0.17,-0.11,-0.01,-0.10,-0.24,
4.313,0.24,-0.17,-0.11,-0.01,-0.10,-0.24,
4.314,0.26,-0.21,-0.16,-0.01,-0.10,-0.24,
4.315,0.26,-0.21,-0.16,-0.01,-0.10,-0.24,
4.322,0.26,-0.21,-0.16,-0.05,-0.09,-0.18,
4.324,0.26,-0.21,-0.16,-0.05,-0.09,-0.18,
4.324,0.30,-0.24,-0.21,-0.05,-0.09,-0.18,
4.325,0.30,-0.24,-0.21,-0.05,-0.09,-0.18,
4.337,0.30,-0.24,-0.21,-0.10,-0.08,-0.13,
4.338,0.30,-0.24,-0.21,-0.10,-0.08,-0.13,
4.339,0.37,-0.19,-0.27,-0.10,-0.08,-0.13,
4.339,0.37,-0.19,-0.27,-0.10,-0.08,-0.13,
4.342,0.37,-0.19,-0.27,-0.14,-0.08,-0.09,
4.342,0.37,-0.19,-0.27,-0.14,-0.08,-0.09,
4.343,0.46,-0.10,-0.37,-0.14,-0.08,-0.09,
4.343,0.46,-0.10,-0.37,-0.14,-0.08,-0.09,
4.351,0.46,-0.10,-0.37,-0.19,-0.11,-0.08,
4.352,0.46,-0.10,-0.37,-0.19,-0.11,-0.08,
4.352,0.57,0.02,-0.50,-0.19,-0.11,-0.08,
4.352,0.57,0.02,-0.50,-0.19,-0.11,-0.08,
4.36,0.57,0.02,-0.50,-0.24,-0.15,-0.08,
4.361,0.57,0.02,-0.50,-0.24,-0.15,-0.08,
4.362,0.70,0.14,-0.62,-0.24,-0.15,-0.08,
4.362,0.70,0.14,-0.62,-0.24,-0.15,-0.08,
4.37,0.70,0.14,-0.62,-0.30,-0.20,-0.11,
4.371,0.70,0.14,-0.62,-0.30,-0.20,-0.11,
4.372,0.85,0.23,-0.75,-0.30,-0.20,-0.11,
4.372,0.85,0.23,-0.75,-0.30,-0.20,-0.11,
4.379,0.85,0.23,-0.75,-0.37,-0.24,-0.16,
4.38,0.85,0.23,-0.75,-0.37,-0.24,-0.16,
4.38,0.94,0.28,-0.91,-0.37,-0.24,-0.16,
4.381,0.94,0.28,-0.91,-0.37,-0.24,-0.16,
4.389,0.94,0.28,-0.91,-0.44,-0.28,-0.23,
4.39,0.94,0.28,-0.91,-0.44,-0.28,-0.23,
4.39,0.98,0.32,-1.06,-0.44,-0.28,-0.23,
4.391,0.98,0.32,-1.06,-0.44,-0.28,-0.23,
4.398,0.98,0.32,-1.06,-0.44,-0.28,-0.23,
4.399,0.98,0.32,-1.06,-0.44,-0.28,-0.23,
4.4,0.98,0.32,-1.06,-0.44,-0.28,-0.23,
4.4,0.98,0.32,-1.06,-0.44,-0.28,-0.23,
4.408,0.98,0.32,-1.06,-0.52,-0.31,-0.31,
4.408,0.98,0.32,-1.06,-0.52,-0.31,-0.31,
4.409,0.83,0.39,-1.36,-0.52,-0.31,-0.31,
4.409,0.83,0.39,-1.36,-0.52,-0.31,-0.31,
4.417,0.83,0.39,-1.36,-0.62,-0.34,-0.38,
4.419,0.83,0.39,-1.36,-0.62,-0.34,-0.38,
4.42,0.68,0.39,-1.40,-0.62,-0.34,-0.38,
4.422,0.68,0.39,-1.40,-0.62,-0.34,-0.38,
4.427,0.68,0.39,-1.40,-0.72,-0.34,-0.41,
4.428,0.68,0.39,-1.40,-0.72,-0.34,-0.41,
4.429,0.54,0.34,-1.39,-0.72,-0.34,-0.41,
4.431,0.54,0.34,-1.39,-0.72,-0.34,-0.41,
4.436,0.54,0.34,-1.39,-0.83,-0.31,-0.39,
4.438,0.54,0.34,-1.39,-0.83,-0.31,-0.39,
4.439,0.47,0.25,-1.31,-0.83,-0.31,-0.39,
4.44,0.47,0.25,-1.31,-0.83,-0.31,-0.39,
4.446,0.47,0.25,-1.31,-0.90,-0.24,-0.33,
4.446,0.47,0.25,-1.31,-0.90,-0.24,-0.33,
4.447,0.48,0.18,-1.16,-0.90,-0.24,-0.33,
4.448,0.48,0.18,-1.16,-0.90,-0.24,-0.33,
4.455,0.48,0.18,-1.16,-0.92,-0.17,-0.25,
4.457,0.48,0.18,-1.16,-0.92,-0.17,-0.25,
4.458,0.55,0.11,-0.96,-0.92,-0.17,-0.25,
4.459,0.55,0.11,-0.96,-0.92,-0.17,-0.25,
4.466,0.55,0.11,-0.96,-0.87,-0.10,-0.17,
4.467,0.55,0.11,-0.96,-0.87,-0.10,-0.17,
4.467,0.59,0.05,-0.78,-0.87,-0.10,-0.17,
4.468,0.59,0.05,-0.78,-0.87,-0.10,-0.17,
4.474,0.59,0.05,-0.78,-0.76,-0.04,-0.12,
4.475,0.59,0.05,-0.78,-0.76,-0.04,-0.12,
4.476,0.52,-0.00,-0.70,-0.76,-0.04,-0.12,
4.476,0.52,-0.00,-0.70,-0.76,-0.04,-0.12,
4.483,0.52,-0.00,-0.70,-0.60,0.01,-0.09,
4.484,0.52,-0.00,-0.70,-0.60,0.01,-0.09,
4.485,0.34,-0.07,-0.75,-0.60,0.01,-0.09,
4.485,0.34,-0.07,-0.75,-0.60,0.01,-0.09,
4.497,0.34,-0.07,-0.75,-0.43,0.04,-0.08,
4.498,0.34,-0.07,-0.75,-0.43,0.04,-0.08,
4.499,0.07,-0.12,-0.89,-0.43,0.04,-0.08,
4.5,0.07,-0.12,-0.89,-0.43,0.04,-0.08,
4.505,0.07,-0.12,-0.89,-0.28,0.06,-0.04,
4.507,0.07,-0.12,-0.89,-0.28,0.06,-0.04,
4.508,-0.23,-0.15,-0.98,-0.28,0.06,-0.04,
4.509,-0.23,-0.15,-0.98,-0.28,0.06,-0.04,
4.513,-0.23,-0.15,-0.98,-0.18,0.11,0.03,
4.514,-0.23,-0.15,-0.98,-0.18,0.11,0.03,
4.515,-0.49,-0.16,-0.93,-0.18,0.11,0.03,
4.517,-0.49,-0.16,-0.93,-0.18,0.11,0.03,
4.521,-0.49,-0.16,-0.93,-0.14,0.19,0.15,
4.522,-0.49,-0.16,-0.93,-0.14,0.19,0.15,
4.523,-0.69,-0.19,-0.77,-0.14,0.19,0.15,
4.524,-0.69,-0.19,-0.77,-0.14,0.19,0.15,
4.539,-0.69,-0.19,-0.77,-0.12,0.30,0.31,
4.54,-0.69,-0.19,-0.77,-0.12,0.30,0.31,
4.54,-0.86,-0.24,-0.45,-0.12,0.30,0.31,
4.54,-0.86,-0.24,-0.45,-0.12,0.30,0.31,
4.541,-0.86,-0.24,-0.45,-0.08,0.42,0.48,
4.541,-0.86,-0.24,-0.45,-0.08,0.42,0.48,
4.542,-0.99,-0.29,-0.06,-0.08,0.42,0.48,
4.542,-0.99,-0.29,-0.06,-0.08,0.42,0.48,
4.55,-0.99,-0.29,-0.06,-0.00,0.52,0.64,
4.551,-0.99,-0.29,-0.06,-0.00,0.52,0.64,
4.551,-1.07,-0.35,0.37,-0.00,0.52,0.64,
4.552,-1.07,-0.35,0.37,-0.00,0.52,0.64,
4.56,-1.07,-0.35,0.37,0.15,0.61,0.77,
4.56,-1.07,-0.35,0.37,0.15,0.61,0.77,
4.561,-1.12,-0.32,0.80,0.15,0.61,0.77,
4.562,-1.12,-0.32,0.80,0.15,0.61,0.77,
4.569,-1.12,-0.32,0.80,0.38,0.68,0.86,
4.57,-1.12,-0.32,0.80,0.38,0.68,0.86,
4.571,-1.10,-0.20,1.08,0.38,0.68,0.86,
4.572,-1.10,-0.20,1.08,0.38,0.68,0.86,
4.579,-1.10,-0.20,1.08,0.66,0.74,0.89,
4.58,-1.10,-0.20,1.08,0.66,0.74,0.89,
4.581,-1.02,-0.02,1.15,0.66,0.74,0.89,
4.581,-1.02,-0.02,1.15,0.66,0.74,0.89,
4.589,-1.02,-0.02,1.15,0.94,0.80,0.88,
4.59,-1.02,-0.02,1.15,0.94,0.80,0.88,
4.59,-0.91,0.21,1.03,0.94,0.80,0.88,
4.591,-0.91,0.21,1.03,0.94,0.80,0.88,
4.598,-0.91,0.21,1.03,0.94,0.80,0.88,
4.599,-0.91,0.21,1.03,0.94,0.80,0.88,
4.6,-0.91,0.21,1.03,0.94,0.80,0.88,
4.6,-0.91,0.21,1.03,0.94,0.80,0.88,
4.607,-0.91,0.21,1.03,1.18,0.84,0.82,
4.608,-0.91,0.21,1.03,1.18,0.84,0.82,
4.609,-0.57,0.57,0.37,1.18,0.84,0.82,
4.609,-0.57,0.57,0.37,1.18,0.84,0.82,
4.617,-0.57,0.57,0.37,1.31,0.85,0.73,
4.618,-0.57,0.57,0.37,1.31,0.85,0.73,
4.619,-0.34,0.63,-0.04,1.31,0.85,0.73,
4.619,-0.34,0.63,-0.04,1.31,0.85,0.73,
4.626,-0.34,0.63,-0.04,1.28,0.78,0.60,
4.627,-0.34,0.63,-0.04,1.28,0.78,0.60,
4.628,-0.03,0.65,-0.56,1.28,0.78,0.60,
4.628,-0.03,0.65,-0.56,1.28,0.78,0.60,
4.636,-0.03,0.65,-0.56,1.07,0.64,0.44,
4.637,-0.03,0.65,-0.56,1.07,0.64,0.44,
4.638,0.30,0.68,-1.11,1.07,0.64,0.44,
4.638,0.30,0.68,-1.11,1.07,0.64,0.44,
4.646,0.30,0.68,-1.11,0.70,0.43,0.24,
4.646,0.30,0.68,-1.11,0.70,0.43,0.24,
4.647,0.62,0.71,-1.64,0.70,0.43,0.24,
4.648,0.62,0.71,-1.64,0.70,0.43,0.24,
4.655,0.62,0.71,-1.64,0.21,0.18,0.01,
4.656,0.62,0.71,-1.64,0.21,0.18,0.01,
4.657,0.93,0.81,-2.04,0.21,0.18,0.01,
4.658,0.93,0.81,-2.04,0.21,0.18,0.01,
4.678,0.93,0.81,-2.04,-0.33,-0.10,-0.26,
4.679,0.93,0.81,-2.04,-0.33,-0.10,-0.26,
4.679,1.17,0.90,-2.19,-0.33,-0.10,-0.26,
4.68,1.17,0.90,-2.19,-0.33,-0.10,-0.26,
4.68,1.17,0.90,-2.19,-0.89,-0.38,-0.54,
4.68,1.17,0.90,-2.19,-0.89,-0.38,-0.54,
4.68,1.37,0.97,-2.06,-0.89,-0.38,-0.54,
4.681,1.37,0.97,-2.06,-0.89,-0.38,-0.54,
4.686,1.37,0.97,-2.06,-1.37,-0.63,-0.83,
4.687,1.37,0.97,-2.06,-1.37,-0.63,-0.83,
4.688,1.46,1.02,-1.64,-1.37,-0.63,-0.83,
4.688,1.46,1.02,-1.64,-1.37,-0.63,-0.83,
4.693,1.46,1.02,-1.64,-1.70,-0.81,-1.10,
4.694,1.46,1.02,-1.64,-1.70,-0.81,-1.10,
4.694,1.35,1.04,-1.03,-1.70,-0.81,-1.10,
4.695,1.35,1.04,-1.03,-1.70,-0.81,-1.10,
4.703,1.35,1.04,-1.03,-1.82,-0.90,-1.31,
4.704,1.35,1.04,-1.03,-1.82,-0.90,-1.31,
4.705,1.05,0.98,-0.38,-1.82,-0.90,-1.31,
4.706,1.05,0.98,-0.38,-1.82,-0.90,-1.31,
4.712,1.05,0.98,-0.38,-1.70,-0.87,-1.43,
4.713,1.05,0.98,-0.38,-1.70,-0.87,-1.43,
4.714,0.54,0.85,0.18,-1.70,-0.87,-1.43,
4.715,0.54,0.85,0.18,-1.70,-0.87,-1.43,
4.722,0.54,0.85,0.18,-1.36,-0.73,-1.42,
4.723,0.54,0.85,0.18,-1.36,-0.73,-1.42,
4.724,-0.04,0.63,0.42,-1.36,-0.73,-1.42,
4.725,-0.04,0.63,0.42,-1.36,-0.73,-1.42,
4.735,-0.04,0.63,0.42,-0.88,-0.50,-1.25,
4.736,-0.04,0.63,0.42,-0.88,-0.50,-1.25,
4.737,-0.60,0.38,0.31,-0.88,-0.50,-1.25,
4.737,-0.60,0.38,0.31,-0.88,-0.50,-1.25,
4.741,-0.60,0.38,0.31,-0.36,-0.21,-0.93,
4.741,-0.60,0.38,0.31,-0.36,-0.21,-0.93,
4.742,-1.03,0.25,-0.08,-0.36,-0.21,-0.93,
4.742,-1.03,0.25,-0.08,-0.36,-0.21,-0.93,
4.75,-1.03,0.25,-0.08,0.06,0.09,-0.48,
4.751,-1.03,0.25,-0.08,0.06,0.09,-0.48,
4.751,-1.28,0.27,-0.57,0.06,0.09,-0.48,
4.752,-1.28,0.27,-0.57,0.06,0.09,-0.48,
4.76,-1.28,0.27,-0.57,0.30,0.36,0.02,
4.761,-1.28,0.27,-0.57,0.30,0.36,0.02,
4.762,-1.37,0.43,-1.03,0.30,0.36,0.02,
4.763,-1.37,0.43,-1.03,0.30,0.36,0.02,
4.769,-1.37,0.43,-1.03,0.33,0.54,0.49,
4.77,-1.37,0.43,-1.03,0.33,0.54,0.49,
4.771,-1.27,0.63,-1.33,0.33,0.54,0.49,
4.772,-1.27,0.63,-1.33,0.33,0.54,0.49,
4.779,-1.27,0.63,-1.33,0.18,0.64,0.87,
4.78,-1.27,0.63,-1.33,0.18,0.64,0.87,
4.78,-1.01,0.68,-1.40,0.18,0.64,0.87,
4.78,-1.01,0.68,-1.40,0.18,0.64,0.87,
4.789,-1.01,0.68,-1.40,0.18,0.64,0.87,
4.789,-1.01,0.68,-1.40,0.18,0.64,0.87,
4.79,-1.01,0.68,-1.40,0.18,0.64,0.87,
4.791,-1.01,0.68,-1.40,0.18,0.64,0.87,
4.797,-1.01,0.68,-1.40,-0.08,0.68,1.13,
4.798,-1.01,0.68,-1.40,-0.08,0.68,1.13,
4.799,-0.39,0.31,-0.96,-0.08,0.68,1.13,
4.799,-0.39,0.31,-0.96,-0.08,0.68,1.13,
4.808,-0.39,0.31,-0.96,-0.34,0.70,1.23,
4.809,-0.39,0.31,-0.96,-0.34,0.70,1.23,
4.81,-0.21,0.03,-0.44,-0.34,0.70,1.23,
4.81,-0.21,0.03,-0.44,-0.34,0.70,1.23,
4.819,-0.21,0.03,-0.44,-0.46,0.70,0.94,
4.82,-0.21,0.03,-0.44,-0.46,0.70,0.94,
4.821,-0.11,-0.18,0.13,-0.46,0.70,0.94,
4.822,-0.11,-0.18,0.13,-0.46,0.70,0.94,
4.826,-0.11,-0.18,0.13,-0.46,0.70,0.94,
4.827,-0.11,-0.18,0.13,-0.46,0.70,0.94,
4.828,-0.11,-0.18,0.13,-0.46,0.70,0.94,
4.828,-0.11,-0.18,0.13,-0.46,0.70,0.94,
4.836,-0.11,-0.18,0.13,-0.27,0.70,0.66,
4.836,-0.11,-0.18,0.13,-0.27,0.70,0.66,
4.837,0.17,-0.37,0.87,-0.27,0.70,0.66,
4.838,0.17,-0.37,0.87,-0.27,0.70,0.66,
4.846,0.17,-0.37,0.87,0.02,0.74,0.39,
4.848,0.17,-0.37,0.87,0.02,0.74,0.39,
4.849,0.50,-0.47,0.92,0.02,0.74,0.39,
4.85,0.50,-0.47,0.92,0.02,0.74,0.39,
4.861,0.50,-0.47,0.92,0.36,0.78,0.15,
4.862,0.50,-0.47,0.92,0.36,0.78,0.15,
4.862,0.84,-0.65,0.75,0.36,0.78,0.15,
4.863,0.84,-0.65,0.75,0.36,0.78,0.15,
4.882,0.84,-0.65,0.75,0.66,0.80,0.12,
4.883,0.84,-0.65,0.75,0.66,0.80,0.12,
4.883,1.12,-0.88,0.45,0.66,0.80,0.12,
4.884,1.12,-0.88,0.45,0.66,0.80,0.12,
4.884,1.12,-0.88,0.45,0.82,0.75,0.04,
4.884,1.12,-0.88,0.45,0.82,0.75,0.04,
4.885,1.29,-1.21,0.09,0.82,0.75,0.04,
4.885,1.29,-1.21,0.09,0.82,0.75,0.04,
4.885,1.29,-1.21,0.09,0.83,0.64,-0.30,
4.886,1.29,-1.21,0.09,0.83,0.64,-0.30,
4.886,1.41,-1.57,-0.23,0.83,0.64,-0.30,
4.886,1.41,-1.57,-0.23,0.83,0.64,-0.30,
4.893,1.41,-1.57,-0.23,0.75,0.49,-0.60,
4.893,1.41,-1.57,-0.23,0.75,0.49,-0.60,
4.893,1.53,-1.98,-0.37,0.75,0.49,-0.60,
4.894,1.53,-1.98,-0.37,0.75,0.49,-0.60,
4.902,1.53,-1.98,-0.37,0.55,0.32,-0.83,
4.903,1.53,-1.98,-0.37,0.55,0.32,-0.83,
4.904,1.67,-2.41,-0.22,0.55,0.32,-0.83,
4.904,1.67,-2.41,-0.22,0.55,0.32,-0.83,
4.912,1.67,-2.41,-0.22,0.31,0.15,-1.00,
4.913,1.67,-2.41,-0.22,0.31,0.15,-1.00,
4.914,1.82,-2.72,0.19,0.31,0.15,-1.00,
4.914,1.82,-2.72,0.19,0.31,0.15,-1.00,
4.921,1.82,-2.72,0.19,0.11,-0.00,-1.11,
4.922,1.82,-2.72,0.19,0.11,-0.00,-1.11,
4.923,1.95,-2.86,0.74,0.11,-0.00,-1.11,
4.923,1.95,-2.86,0.74,0.11,-0.00,-1.11,
4.935,1.95,-2.86,0.74,0.00,-0.13,-1.19,
4.936,1.95,-2.86,0.74,0.00,-0.13,-1.19,
4.936,1.98,-2.74,1.26,0.00,-0.13,-1.19,
4.937,1.98,-2.74,1.26,0.00,-0.13,-1.19,
4.941,1.98,-2.74,1.26,0.03,-0.21,-1.22,
4.941,1.98,-2.74,1.26,0.03,-0.21,-1.22,
4.942,1.90,-2.35,1.66,0.03,-0.21,-1.22,
4.942,1.90,-2.35,1.66,0.03,-0.21,-1.22,
4.949,1.90,-2.35,1.66,0.19,-0.26,-1.23,
4.95,1.90,-2.35,1.66,0.19,-0.26,-1.23,
4.951,1.73,-1.88,1.93,0.19,-0.26,-1.23,
4.951,1.73,-1.88,1.93,0.19,-0.26,-1.23,
4.96,1.73,-1.88,1.93,0.42,-0.28,-1.19,
4.961,1.73,-1.88,1.93,0.42,-0.28,-1.19,
4.961,1.49,-1.45,2.09,0.42,-0.28,-1.19,
4.962,1.49,-1.45,2.09,0.42,-0.28,-1.19,
4.97,1.49,-1.45,2.09,0.42,-0.28,-1.19,
4.971,1.49,-1.45,2.09,0.42,-0.28,-1.19,
4.972,1.49,-1.45,2.09,0.42,-0.28,-1.19,
4.972,1.49,-1.45,2.09,0.42,-0.28,-1.19,
4.98,1.49,-1.45,2.09,0.94,-0.28,-0.97,
4.98,1.49,-1.45,2.09,0.94,-0.28,-0.97,
4.981,0.87,-1.01,2.53,0.94,-0.28,-0.97,
4.982,0.87,-1.01,2.53,0.94,-0.28,-0.97,
4.992,0.87,-1.01,2.53,0.94,-0.28,-0.97,
4.993,0.87,-1.01,2.53,0.94,-0.28,-0.97,
4.994,0.87,-1.01,2.53,0.94,-0.28,-0.97,
4.994,0.87,-1.01,2.53,0.94,-0.28,-0.97,
4.998,0.87,-1.01,2.53,1.17,-0.25,-0.77,
4.999,0.87,-1.01,2.53,1.17,-0.25,-0.77,
5.0,0.02,-0.82,2.92,1.17,-0.25,-0.77,
5.0,0.02,-0.82,2.92,1.17,-0.25,-0.77,
5.007,0.02,-0.82,2.92,1.37,-0.19,-0.52,
5.009,0.02,-0.82,2.92,1.37,-0.19,-0.52,
5.01,-0.46,-0.71,2.52,1.37,-0.19,-0.52,
5.011,-0.46,-0.71,2.52,1.37,-0.19,-0.52,
5.016,-0.46,-0.71,2.52,1.50,-0.11,-0.21,
5.017,-0.46,-0.71,2.52,1.50,-0.11,-0.21,
5.018,-0.85,-0.57,0.63,1.50,-0.11,-0.21,
5.019,-0.85,-0.57,0.63,1.50,-0.11,-0.21,
5.026,-0.85,-0.57,0.63,1.52,-0.02,0.14,
5.027,-0.85,-0.57,0.63,1.52,-0.02,0.14,
5.028,-1.14,-0.39,-1.11,1.52,-0.02,0.14,
5.028,-1.14,-0.39,-1.11,1.52,-0.02,0.14,
5.035,-1.14,-0.39,-1.11,1.30,0.07,0.53,
5.036,-1.14,-0.39,-1.11,1.30,0.07,0.53,
5.037,-1.30,-0.21,-1.72,1.30,0.07,0.53,
5.037,-1.30,-0.21,-1.72,1.30,0.07,0.53,
5.045,-1.30,-0.21,-1.72,0.77,0.13,0.55,
5.046,-1.30,-0.21,-1.72,0.77,0.13,0.55,
5.047,-1.24,0.01,-2.24,0.77,0.13,0.55,
5.047,-1.24,0.01,-2.24,0.77,0.13,0.55,
5.055,-1.24,0.01,-2.24,-0.02,0.13,0.23,
5.056,-1.24,0.01,-2.24,-0.02,0.13,0.23,
5.057,-0.90,0.26,-2.49,-0.02,0.13,0.23,
5.058,-0.90,0.26,-2.49,-0.02,0.13,0.23,
5.073,-0.90,0.26,-2.49,-0.86,0.05,0.29,
5.074,-0.90,0.26,-2.49,-0.86,0.05,0.29,
5.074,0.77,0.55,-2.49,-0.86,0.05,0.29,
5.075,0.77,0.55,-2.49,-0.86,0.05,0.29,
5.075,0.77,0.55,-2.49,-1.59,-0.10,0.56,
5.075,0.77,0.55,-2.49,-1.59,-0.10,0.56,
5.075,1.10,0.90,-2.28,-1.59,-0.10,0.56,
5.076,1.10,0.90,-2.28,-1.59,-0.10,0.56,
5.083,1.10,0.90,-2.28,-2.14,-0.34,0.53,
5.084,1.10,0.90,-2.28,-2.14,-0.34,0.53,
5.084,1.66,1.28,-2.03,-2.14,-0.34,0.53,
5.085,1.66,1.28,-2.03,-2.14,-0.34,0.53,
5.093,1.66,1.28,-2.03,-2.47,-0.62,0.22,
5.094,1.66,1.28,-2.03,-2.47,-0.62,0.22,
5.095,2.23,1.67,-1.76,-2.47,-0.62,0.22,
5.095,2.23,1.67,-1.76,-2.47,-0.62,0.22,
5.103,2.23,1.67,-1.76,-2.58,-0.87,-0.29,
5.104,2.23,1.67,-1.76,-2.58,-0.87,-0.29,
5.105,2.65,2.04,-1.49,-2.58,-0.87,-0.29,
5.106,2.65,2.04,-1.49,-2.58,-0.87,-0.29,
5.112,2.65,2.04,-1.49,-2.49,-1.04,-0.87,
5.113,2.65,2.04,-1.49,-2.49,-1.04,-0.87,
5.113,2.88,2.36,-1.25,-2.49,-1.04,-0.87,
5.114,2.88,2.36,-1.25,-2.49,-1.04,-0.87,
5.121,2.88,2.36,-1.25,-2.26,-1.13,-1.46,
5.123,2.88,2.36,-1.25,-2.26,-1.13,-1.46,
5.123,2.93,2.63,-0.95,-2.26,-1.13,-1.46,
5.124,2.93,2.63,-0.95,-2.26,-1.13,-1.46,
5.131,2.93,2.63,-0.95,-1.92,-1.14,-2.01,
5.132,2.93,2.63,-0.95,-1.92,-1.14,-2.01,
5.132,2.79,2.80,-0.64,-1.92,-1.14,-2.01,
5.133,2.79,2.80,-0.64,-1.92,-1.14,-2.01,
5.14,2.79,2.80,-0.64,-1.52,-1.06,-2.45,
5.14,2.79,2.80,-0.64,-1.52,-1.06,-2.45,
5.141,2.44,2.91,-0.33,-1.52,-1.06,-2.45,
5.141,2.44,2.91,-0.33,-1.52,-1.06,-2.45,
5.152,2.44,2.91,-0.33,-1.09,-0.89,-2.74,
5.153,2.44,2.91,-0.33,-1.09,-0.89,-2.74,
5.154,1.89,2.90,-0.04,-1.09,-0.89,-2.74,
5.154,1.89,2.90,-0.04,-1.09,-0.89,-2.74,
5.159,1.89,2.90,-0.04,-0.65,-0.65,-2.83,
5.16,1.89,2.90,-0.04,-0.65,-0.65,-2.83,
5.161,0.17,2.84,0.16,-0.65,-0.65,-2.83,
5.161,0.17,2.84,0.16,-0.65,-0.65,-2.83,
5.17,0.17,2.84,0.16,-0.21,-0.37,-2.65,
5.171,0.17,2.84,0.16,-0.21,-0.37,-2.65,
5.171,-0.17,2.72,0.34,-0.21,-0.37,-2.65,
5.172,-0.17,2.72,0.34,-0.21,-0.37,-2.65,
5.179,-0.17,2.72,0.34,-0.21,-0.37,-2.65,
5.18,-0.17,2.72,0.34,-0.21,-0.37,-2.65,
5.18,-0.17,2.72,0.34,-0.21,-0.37,-2.65,
5.181,-0.17,2.72,0.34,-0.21,-0.37,-2.65,
5.188,-0.17,2.72,0.34,0.20,-0.04,-2.14,
5.189,-0.17,2.72,0.34,0.20,-0.04,-2.14,
5.19,-1.04,2.43,0.62,0.20,-0.04,-2.14,
5.19,-1.04,2.43,0.62,0.20,-0.04,-2.14,
5.197,-1.04,2.43,0.62,0.56,0.34,-1.34,
5.199,-1.04,2.43,0.62,0.56,0.34,-1.34,
5.199,-1.34,2.32,0.72,0.56,0.34,-1.34,
5.2,-1.34,2.32,0.72,0.56,0.34,-1.34,
5.207,-1.34,2.32,0.72,0.87,0.77,-0.38,
5.208,-1.34,2.32,0.72,0.87,0.77,-0.38,
5.209,-1.48,2.21,0.81,0.87,0.77,-0.38,
5.209,-1.48,2.21,0.81,0.87,0.77,-0.38,
5.236,-1.48,2.21,0.81,1.14,1.21,0.53,
5.237,-1.48,2.21,0.81,1.14,1.21,0.53,
5.238,-1.47,2.06,0.81,1.14,1.21,0.53,
5.238,-1.47,2.06,0.81,1.14,1.21,0.53,
5.245,-1.47,2.06,0.81,1.49,1.88,1.75,
5.246,-1.47,2.06,0.81,1.49,1.88,1.75,
5.246,-1.34,1.81,0.68,1.49,1.88,1.75,
5.246,-1.34,1.81,0.68,1.49,1.88,1.75,
5.247,-1.34,1.81,0.68,1.49,1.88,1.75,
5.247,-1.34,1.81,0.68,1.49,1.88,1.75,
5.247,-1.34,1.81,0.68,1.49,1.88,1.75,
5.247,-1.34,1.81,0.68,1.49,1.88,1.75,
5.248,-1.34,1.81,0.68,1.59,2.14,2.21,
5.248,-1.34,1.81,0.68,1.59,2.14,2.21,
5.248,-0.86,1.02,0.15,1.59,2.14,2.21,
5.248,-0.86,1.02,0.15,1.59,2.14,2.21,
5.255,-0.86,1.02,0.15,1.59,2.14,2.21,
5.256,-0.86,1.02,0.15,1.59,2.14,2.21,
5.256,-0.86,1.02,0.15,1.59,2.14,2.21,
5.257,-0.86,1.02,0.15,1.59,2.14,2.21,
5.264,-0.86,1.02,0.15,1.07,1.67,1.84,
5.265,-0.86,1.02,0.15,1.07,1.67,1.84,
5.265,-0.14,0.37,-0.11,1.07,1.67,1.84,
5.266,-0.14,0.37,-0.11,1.07,1.67,1.84,
5.274,-0.14,0.37,-0.11,0.69,1.25,1.45,
5.275,-0.14,0.37,-0.11,0.69,1.25,1.45,
5.275,0.30,0.21,0.08,0.69,1.25,1.45,
5.276,0.30,0.21,0.08,0.69,1.25,1.45,
5.283,0.30,0.21,0.08,0.37,0.81,1.01,
5.284,0.30,0.21,0.08,0.37,0.81,1.01,
5.285,0.69,0.19,0.43,0.37,0.81,1.01,
5.285,0.69,0.19,0.43,0.37,0.81,1.01,
5.293,0.69,0.19,0.43,0.14,0.42,0.57,
5.294,0.69,0.19,0.43,0.14,0.42,0.57,
5.294,0.85,0.23,0.73,0.14,0.42,0.57,
5.295,0.85,0.23,0.73,0.14,0.42,0.57,
5.302,0.85,0.23,0.73,0.05,0.12,0.14,
5.304,0.85,0.23,0.73,0.05,0.12,0.14,
5.304,0.78,0.25,0.87,0.05,0.12,0.14,
5.305,0.78,0.25,0.87,0.05,0.12,0.14,
5.312,0.78,0.25,0.87,0.09,-0.08,-0.24,
5.313,0.78,0.25,0.87,0.09,-0.08,-0.24,
5.313,0.44,0.17,0.82,0.09,-0.08,-0.24,
5.314,0.44,0.17,0.82,0.09,-0.08,-0.24,
5.321,0.44,0.17,0.82,0.20,-0.22,-0.53,
5.323,0.44,0.17,0.82,0.20,-0.22,-0.53,
5.323,-0.05,-0.14,0.73,0.20,-0.22,-0.53,
5.324,-0.05,-0.14,0.73,0.20,-0.22,-0.53,
5.331,-0.05,-0.14,0.73,0.31,-0.29,-0.67,
5.332,-0.05,-0.14,0.73,0.31,-0.29,-0.67,
5.332,-0.52,-0.65,0.77,0.31,-0.29,-0.67,
5.333,-0.52,-0.65,0.77,0.31,-0.29,-0.67,
5.34,-0.52,-0.65,0.77,0.37,-0.30,-0.64,
5.341,-0.52,-0.65,0.77,0.37,-0.30,-0.64,
5.342,-0.81,-2.30,1.05,0.37,-0.30,-0.64,
5.342,-0.81,-2.30,1.05,0.37,-0.30,-0.64,
5.349,-0.81,-2.30,1.05,0.38,-0.24,-0.46,
5.35,-0.81,-2.30,1.05,0.38,-0.24,-0.46,
5.35,-0.80,-2.46,1.61,0.38,-0.24,-0.46,
5.351,-0.80,-2.46,1.61,0.38,-0.24,-0.46,
5.36,-0.80,-2.46,1.61,0.38,-0.13,-0.21,
5.361,-0.80,-2.46,1.61,0.38,-0.13,-0.21,
5.361,-0.41,-2.57,3.34,0.38,-0.13,-0.21,
5.362,-0.41,-2.57,3.34,0.38,-0.13,-0.21,
5.369,-0.41,-2.57,3.34,0.45,0.01,0.01,
5.371,-0.41,-2.57,3.34,0.45,0.01,0.01,
5.371,1.41,-2.55,3.46,0.45,0.01,0.01,
5.372,1.41,-2.55,3.46,0.45,0.01,0.01,
5.378,1.41,-2.55,3.46,0.45,0.01,0.01,
5.379,1.41,-2.55,3.46,0.45,0.01,0.01,
5.38,1.41,-2.55,3.46,0.45,0.01,0.01,
5.38,1.41,-2.55,3.46,0.45,0.01,0.01,
5.39,1.41,-2.55,3.46,0.69,0.14,0.08,
5.391,1.41,-2.55,3.46,0.69,0.14,0.08,
5.391,1.89,-2.53,2.98,0.69,0.14,0.08,
5.392,1.89,-2.53,2.98,0.69,0.14,0.08,
5.397,1.89,-2.53,2.98,1.02,0.17,-0.07,
5.398,1.89,-2.53,2.98,1.02,0.17,-0.07,
5.398,1.80,-2.79,1.11,1.02,0.17,-0.07,
5.399,1.80,-2.79,1.11,1.02,0.17,-0.07,
5.407,1.80,-2.79,1.11,1.25,0.03,-0.39,
5.409,1.80,-2.79,1.11,1.25,0.03,-0.39,
5.409,1.28,-3.28,-0.64,1.25,0.03,-0.39,
5.41,1.28,-3.28,-0.64,1.25,0.03,-0.39,
5.416,1.28,-3.28,-0.64,1.16,-0.25,-0.71,
5.417,1.28,-3.28,-0.64,1.16,-0.25,-0.71,
5.418,-0.49,-3.89,-2.35,1.16,-0.25,-0.71,
5.419,-0.49,-3.89,-2.35,1.16,-0.25,-0.71,
5.426,-0.49,-3.89,-2.35,0.68,-0.59,-0.83,
5.427,-0.49,-3.89,-2.35,0.68,-0.59,-0.83,
5.428,-2.22,-4.45,-2.61,0.68,-0.59,-0.83,
5.428,-2.22,-4.45,-2.61,0.68,-0.59,-0.83,
5.435,-2.22,-4.45,-2.61,-0.11,-0.88,-0.63,
5.436,-2.22,-4.45,-2.61,-0.11,-0.88,-0.63,
5.437,-2.39,-4.91,-2.97,-0.11,-0.88,-0.63,
5.438,-2.39,-4.91,-2.97,-0.11,-0.88,-0.63,
5.444,-2.39,-4.91,-2.97,-0.98,-1.07,-0.13,
5.445,-2.39,-4.91,-2.97,-0.98,-1.07,-0.13,
5.446,-2.49,-5.14,-3.34,-0.98,-1.07,-0.13,
5.446,-2.49,-5.14,-3.34,-0.98,-1.07,-0.13,
5.454,-2.49,-5.14,-3.34,-1.73,-1.15,0.49,
5.455,-2.49,-5.14,-3.34,-1.73,-1.15,0.49,
5.456,-2.23,-5.17,-3.64,-1.73,-1.15,0.49,
5.456,-2.23,-5.17,-3.64,-1.73,-1.15,0.49,
5.464,-2.23,-5.17,-3.64,-2.24,-1.18,1.03,
5.465,-2.23,-5.17,-3.64,-2.24,-1.18,1.03,
5.466,-0.42,-5.00,-3.76,-2.24,-1.18,1.03,
5.467,-0.42,-5.00,-3.76,-2.24,-1.18,1.03,
5.473,-0.42,-5.00,-3.76,-2.56,-1.24,1.32,
5.475,-0.42,-5.00,-3.76,-2.56,-1.24,1.32,
5.476,0.02,-4.65,-3.64,-2.56,-1.24,1.32,
5.477,0.02,-4.65,-3.64,-2.56,-1.24,1.32,
5.482,0.02,-4.65,-3.64,-2.71,-1.33,1.30,
5.483,0.02,-4.65,-3.64,-2.71,-1.33,1.30,
5.484,0.68,-4.25,-3.26,-2.71,-1.33,1.30,
5.484,0.68,-4.25,-3.26,-2.71,-1.33,1.30,
5.492,0.68,-4.25,-3.26,-2.71,-1.43,1.03,
5.494,0.68,-4.25,-3.26,-2.71,-1.43,1.03,
5.494,1.23,-3.83,-2.76,-2.71,-1.43,1.03,
5.495,1.23,-3.83,-2.76,-2.71,-1.43,1.03,
5.502,1.23,-3.83,-2.76,-2.58,-1.48,0.61,
5.503,1.23,-3.83,-2.76,-2.58,-1.48,0.61,
5.504,1.45,-3.54,-2.27,-2.58,-1.48,0.61,
5.505,1.45,-3.54,-2.27,-2.58,-1.48,0.61,
5.511,1.45,-3.54,-2.27,-2.32,-1.41,0.17,
5.512,1.45,-3.54,-2.27,-2.32,-1.41,0.17,
5.512,1.24,-3.47,-1.84,-2.32,-1.41,0.17,
5.513,1.24,-3.47,-1.84,-2.32,-1.41,0.17,
5.521,1.24,-3.47,-1.84,-1.96,-1.21,-0.21,
5.522,1.24,-3.47,-1.84,-1.96,-1.21,-0.21,
5.523,0.67,-3.66,-1.47,-1.96,-1.21,-0.21,
5.523,0.67,-3.66,-1.47,-1.96,-1.21,-0.21,
5.53,0.67,-3.66,-1.47,-1.54,-0.88,-0.47,
5.531,0.67,-3.66,-1.47,-1.54,-0.88,-0.47,
5.532,-1.07,-4.11,-1.03,-1.54,-0.88,-0.47,
5.532,-1.07,-4.11,-1.03,-1.54,-0.88,-0.47,
5.54,-1.07,-4.11,-1.03,-1.09,-0.46,-0.55,
5.541,-1.07,-4.11,-1.03,-1.09,-0.46,-0.55,
5.541,-1.66,-4.69,-0.55,-1.09,-0.46,-0.55,
5.542,-1.66,-4.69,-0.55,-1.09,-0.46,-0.55,
5.549,-1.66,-4.69,-0.55,-0.65,0.02,-0.40,
5.55,-1.66,-4.69,-0.55,-0.65,0.02,-0.40,
5.55,-3.30,-5.28,-0.07,-0.65,0.02,-0.40,
5.551,-3.30,-5.28,-0.07,-0.65,0.02,-0.40,
5.56,-3.30,-5.28,-0.07,-0.22,0.58,-0.01,
5.56,-3.30,-5.28,-0.07,-0.22,0.58,-0.01,
5.561,-3.78,-5.65,0.31,-0.22,0.58,-0.01,
5.562,-3.78,-5.65,0.31,-0.22,0.58,-0.01,
5.569,-3.78,-5.65,0.31,-0.22,0.58,-0.01,
5.57,-3.78,-5.65,0.31,-0.22,0.58,-0.01,
5.571,-3.78,-5.65,0.31,-0.22,0.58,-0.01,
5.572,-3.78,-5.65,0.31,-0.22,0.58,-0.01,
5.578,-3.78,-5.65,0.31,0.21,1.19,0.53,
5.579,-3.78,-5.65,0.31,0.21,1.19,0.53,
5.579,-4.74,-5.42,0.27,0.21,1.19,0.53,
5.579,-4.74,-5.42,0.27,0.21,1.19,0.53,
5.588,-4.74,-5.42,0.27,0.61,1.85,1.10,
5.589,-4.74,-5.42,0.27,0.61,1.85,1.10,
5.59,-4.92,-4.94,-0.24,0.61,1.85,1.10,
5.59,-4.92,-4.94,-0.24,0.61,1.85,1.10,
5.597,-4.92,-4.94,-0.24,0.96,2.49,1.62,
5.598,-4.92,-4.94,-0.24,0.96,2.49,1.62,
5.599,-4.77,-4.39,-1.87,0.96,2.49,1.62,
5.599,-4.77,-4.39,-1.87,0.96,2.49,1.62,
5.606,-4.77,-4.39,-1.87,1.16,3.03,2.01,
5.607,-4.77,-4.39,-1.87,1.16,3.03,2.01,
5.608,-4.40,-3.89,-2.35,1.16,3.03,2.01,
5.608,-4.40,-3.89,-2.35,1.16,3.03,2.01,
5.616,-4.40,-3.89,-2.35,1.15,3.40,2.25,
5.617,-4.40,-3.89,-2.35,1.15,3.40,2.25,
5.618,-3.84,-3.46,-2.79,1.15,3.40,2.25,
5.618,-3.84,-3.46,-2.79,1.15,3.40,2.25,
5.625,-3.84,-3.46,-2.79,0.93,3.58,2.33,
5.626,-3.84,-3.46,-2.79,0.93,3.58,2.33,
5.627,-2.36,-3.10,-2.88,0.93,3.58,2.33,
5.627,-2.36,-3.10,-2.88,0.93,3.58,2.33,
5.636,-2.36,-3.10,-2.88,0.58,3.59,2.25,
5.637,-2.36,-3.10,-2.88,0.58,3.59,2.25,
5.638,-2.02,-2.78,-2.52,0.58,3.59,2.25,
5.639,-2.02,-2.78,-2.52,0.58,3.59,2.25,
5.644,-2.02,-2.78,-2.52,0.23,3.47,1.99,
5.645,-2.02,-2.78,-2.52,0.23,3.47,1.99,
5.645,-1.58,-2.56,-0.77,0.23,3.47,1.99,
5.646,-1.58,-2.56,-0.77,0.23,3.47,1.99,
5.655,-1.58,-2.56,-0.77,-0.02,3.27,1.59,
5.657,-1.58,-2.56,-0.77,-0.02,3.27,1.59,
5.657,-1.08,-2.35,-0.42,-0.02,3.27,1.59,
5.658,-1.08,-2.35,-0.42,-0.02,3.27,1.59,
5.674,-1.08,-2.35,-0.42,-0.08,3.03,1.13,
5.675,-1.08,-2.35,-0.42,-0.08,3.03,1.13,
5.676,-0.66,-2.13,1.48,-0.08,3.03,1.13,
5.676,-0.66,-2.13,1.48,-0.08,3.03,1.13,
5.676,-0.66,-2.13,1.48,0.11,2.82,0.69,
5.676,-0.66,-2.13,1.48,0.11,2.82,0.69,
5.677,-0.40,-1.97,1.30,0.11,2.82,0.69,
5.677,-0.40,-1.97,1.30,0.11,2.82,0.69,
5.683,-0.40,-1.97,1.30,0.49,2.66,0.27,
5.684,-0.40,-1.97,1.30,0.49,2.66,0.27,
5.684,-0.14,-1.75,0.95,0.49,2.66,0.27,
5.684,-0.14,-1.75,0.95,0.49,2.66,0.27,
5.693,-0.14,-1.75,0.95,0.94,2.52,-0.11,
5.693,-0.14,-1.75,0.95,0.94,2.52,-0.11,
5.694,0.10,-1.42,0.58,0.94,2.52,-0.11,
5.695,0.10,-1.42,0.58,0.94,2.52,-0.11,
5.703,0.10,-1.42,0.58,1.30,2.39,-0.45,
5.704,0.10,-1.42,0.58,1.30,2.39,-0.45,
5.704,0.40,-0.94,-1.09,1.30,2.39,-0.45,
5.705,0.40,-0.94,-1.09,1.30,2.39,-0.45,
5.711,0.40,-0.94,-1.09,1.43,2.24,-0.73,
5.712,0.40,-0.94,-1.09,1.43,2.24,-0.73,
5.712,0.83,0.81,-0.88,1.43,2.24,-0.73,
5.713,0.83,0.81,-0.88,1.43,2.24,-0.73,
5.721,0.83,0.81,-0.88,1.29,2.07,-0.95,
5.722,0.83,0.81,-0.88,1.29,2.07,-0.95,
5.722,1.15,1.11,-0.86,1.29,2.07,-0.95,
5.723,1.15,1.11,-0.86,1.29,2.07,-0.95,
5.73,1.15,1.11,-0.86,0.95,1.89,-1.14,
5.731,1.15,1.11,-0.86,0.95,1.89,-1.14,
5.731,1.29,1.49,-1.25,0.95,1.89,-1.14,
5.732,1.29,1.49,-1.25,0.95,1.89,-1.14,
5.739,1.29,1.49,-1.25,0.53,1.73,-1.31,
5.74,1.29,1.49,-1.25,0.53,1.73,-1.31,
5.741,1.27,1.77,-1.83,0.53,1.73,-1.31,
5.741,1.27,1.77,-1.83,0.53,1.73,-1.31,
5.749,1.27,1.77,-1.83,0.13,1.60,-1.46,
5.75,1.27,1.77,-1.83,0.13,1.60,-1.46,
5.75,1.17,1.99,-2.15,0.13,1.60,-1.46,
5.75,1.17,1.99,-2.15,0.13,1.60,-1.46,
5.759,1.17,1.99,-2.15,-0.28,1.48,-1.57,
5.76,1.17,1.99,-2.15,-0.28,1.48,-1.57,
5.761,1.13,2.19,-1.87,-0.28,1.48,-1.57,
5.761,1.13,2.19,-1.87,-0.28,1.48,-1.57,
5.769,1.13,2.19,-1.87,-0.28,1.48,-1.57,
5.77,1.13,2.19,-1.87,-0.28,1.48,-1.57,
5.771,1.13,2.19,-1.87,-0.28,1.48,-1.57,
5.772,1.13,2.19,-1.87,-0.28,1.48,-1.57,
5.777,1.13,2.19,-1.87,-0.71,1.36,-1.61,
5.778,1.13,2.19,-1.87,-0.71,1.36,-1.61,
5.778,1.21,2.85,0.35,-0.71,1.36,-1.61,
5.779,1.21,2.85,0.35,-0.71,1.36,-1.61,
5.787,1.21,2.85,0.35,-1.03,1.22,-1.59,
5.788,1.21,2.85,0.35,-1.03,1.22,-1.59,
5.789,1.15,3.28,0.77,-1.03,1.22,-1.59,
5.789,1.15,3.28,0.77,-1.03,1.22,-1.59,
5.797,1.15,3.28,0.77,-1.05,1.08,-1.53,
5.798,1.15,3.28,0.77,-1.05,1.08,-1.53,
5.798,0.99,3.70,0.81,-1.05,1.08,-1.53,
5.799,0.99,3.70,0.81,-1.05,1.08,-1.53,
5.807,0.99,3.70,0.81,-0.72,0.95,-1.43,
5.808,0.99,3.70,0.81,-0.72,0.95,-1.43,
5.808,0.69,4.08,0.64,-0.72,0.95,-1.43,
5.809,0.69,4.08,0.64,-0.72,0.95,-1.43,
5.816,0.69,4.08,0.64,-0.20,0.82,-1.31,
5.817,0.69,4.08,0.64,-0.20,0.82,-1.31,
5.817,0.38,4.41,0.63,-0.20,0.82,-1.31,
5.818,0.38,4.41,0.63,-0.20,0.82,-1.31,
5.826,0.38,4.41,0.63,0.28,0.68,-1.11,
5.827,0.38,4.41,0.63,0.28,0.68,-1.11,
5.828,0.08,4.68,0.86,0.28,0.68,-1.11,
5.828,0.08,4.68,0.86,0.28,0.68,-1.11,
5.836,0.08,4.68,0.86,0.61,0.52,-0.83,
5.837,0.08,4.68,0.86,0.61,0.52,-0.83,
5.838,-0.24,4.95,1.18,0.61,0.52,-0.83,
5.839,-0.24,4.95,1.18,0.61,0.52,-0.83,
5.844,-0.24,4.95,1.18,0.85,0.36,-0.45,
5.844,-0.24,4.95,1.18,0.85,0.36,-0.45,
5.845,-0.54,5.25,1.56,0.85,0.36,-0.45,
5.845,-0.54,5.25,1.56,0.85,0.36,-0.45,
5.854,-0.54,5.25,1.56,1.10,0.19,0.01,
5.855,-0.54,5.25,1.56,1.10,0.19,0.01,
5.856,-0.78,5.61,1.85,1.10,0.19,0.01,
5.856,-0.78,5.61,1.85,1.10,0.19,0.01,
5.874,-0.78,5.61,1.85,1.42,0.01,0.54,
5.875,-0.78,5.61,1.85,1.42,0.01,0.54,
5.875,-0.83,6.06,2.03,1.42,0.01,0.54,
5.876,-0.83,6.06,2.03,1.42,0.01,0.54,
5.876,-0.83,6.06,2.03,1.81,-0.19,1.11,
5.876,-0.83,6.06,2.03,1.81,-0.19,1.11,
5.876,-0.68,6.49,2.12,1.81,-0.19,1.11,
5.877,-0.68,6.49,2.12,1.81,-0.19,1.11,
5.882,-0.68,6.49,2.12,2.22,-0.41,1.66,
5.883,-0.68,6.49,2.12,2.22,-0.41,1.66,
5.883,-0.38,6.87,1.94,2.22,-0.41,1.66,
5.884,-0.38,6.87,1.94,2.22,-0.41,1.66,
5.891,-0.38,6.87,1.94,2.60,-0.67,2.12,
5.892,-0.38,6.87,1.94,2.60,-0.67,2.12,
5.893,-0.07,7.07,0.38,2.60,-0.67,2.12,
5.893,-0.07,7.07,0.38,2.60,-0.67,2.12,
5.901,-0.07,7.07,0.38,2.79,-0.91,2.44,
5.903,-0.07,7.07,0.38,2.79,-0.91,2.44,
5.903,0.07,7.03,-0.09,2.79,-0.91,2.44,
5.904,0.07,7.03,-0.09,2.79,-0.91,2.44,
5.91,0.07,7.03,-0.09,2.58,-1.07,2.55,
5.911,0.07,7.03,-0.09,2.58,-1.07,2.55,
5.912,0.05,6.79,-1.66,2.58,-1.07,2.55,
5.912,0.05,6.79,-1.66,2.58,-1.07,2.55,
5.921,0.05,6.79,-1.66,1.79,-1.05,2.25,
5.922,0.05,6.79,-1.66,1.79,-1.05,2.25,
5.923,-0.05,6.37,-2.10,1.79,-1.05,2.25,
5.923,-0.05,6.37,-2.10,1.79,-1.05,2.25,
5.93,-0.05,6.37,-2.10,0.34,-0.82,1.85,
5.931,-0.05,6.37,-2.10,0.34,-0.82,1.85,
5.932,-0.15,5.81,-2.47,0.34,-0.82,1.85,
5.932,-0.15,5.81,-2.47,0.34,-0.82,1.85,
5.939,-0.15,5.81,-2.47,-1.58,-0.47,1.66,
5.94,-0.15,5.81,-2.47,-1.58,-0.47,1.66,
5.941,-0.17,5.19,-2.63,-1.58,-0.47,1.66,
5.942,-0.17,5.19,-2.63,-1.58,-0.47,1.66,
5.949,-0.17,5.19,-2.63,-3.53,-0.16,1.41,
5.95,-0.17,5.19,-2.63,-3.53,-0.16,1.41,
5.951,-0.12,4.54,-2.64,-3.53,-0.16,1.41,
5.952,-0.12,4.54,-2.64,-3.53,-0.16,1.41,
5.959,-0.12,4.54,-2.64,-3.53,-0.16,1.41,
5.96,-0.12,4.54,-2.64,-3.53,-0.16,1.41,
5.961,-0.12,4.54,-2.64,-3.53,-0.16,1.41,
5.962,-0.12,4.54,-2.64,-3.53,-0.16,1.41,
5.972,-0.12,4.54,-2.64,-5.01,0.00,1.08,
5.973,-0.12,4.54,-2.64,-5.01,0.00,1.08,
5.973,0.23,3.40,-2.71,-5.01,0.00,1.08,
5.974,0.23,3.40,-2.71,-5.01,0.00,1.08,
5.977,0.23,3.40,-2.71,-5.73,0.01,0.62,
5.978,0.23,3.40,-2.71,-5.73,0.01,0.62,
5.978,0.46,2.97,-3.05,-5.73,0.01,0.62,
5.978,0.46,2.97,-3.05,-5.73,0.01,0.62,
5.993,0.46,2.97,-3.05,-5.77,-0.06,0.05,
5.994,0.46,2.97,-3.05,-5.77,-0.06,0.05,
5.995,0.68,2.63,-3.56,-5.77,-0.06,0.05,
5.995,0.68,2.63,-3.56,-5.77,-0.06,0.05,
6.001,0.68,2.63,-3.56,-5.39,-0.11,-0.57,
6.002,0.68,2.63,-3.56,-5.39,-0.11,-0.57,
6.002,0.82,2.46,-4.13,-5.39,-0.11,-0.57,
6.002,0.82,2.46,-4.13,-5.39,-0.11,-0.57,
6.006,0.82,2.46,-4.13,-4.90,-0.11,-1.14,
6.007,0.82,2.46,-4.13,-4.90,-0.11,-1.14,
6.007,0.87,2.44,-4.62,-4.90,-0.11,-1.14,
6.007,0.87,2.44,-4.62,-4.90,-0.11,-1.14,
6.015,0.87,2.44,-4.62,-4.51,-0.09,-1.57,
6.016,0.87,2.44,-4.62,-4.51,-0.09,-1.57,
6.017,0.86,2.59,-4.87,-4.51,-0.09,-1.57,
6.017,0.86,2.59,-4.87,-4.51,-0.09,-1.57,
6.025,0.86,2.59,-4.87,-4.24,-0.09,-1.86,
6.026,0.86,2.59,-4.87,-4.24,-0.09,-1.86,
6.026,0.87,2.87,-4.89,-4.24,-0.09,-1.86,
6.027,0.87,2.87,-4.89,-4.24,-0.09,-1.86,
6.034,0.87,2.87,-4.89,-4.06,-0.13,-2.01,
6.035,0.87,2.87,-4.89,-4.06,-0.13,-2.01,
6.036,0.90,3.21,-4.88,-4.06,-0.13,-2.01,
6.036,0.90,3.21,-4.88,-4.06,-0.13,-2.01,
6.044,0.90,3.21,-4.88,-3.89,-0.20,-2.06,
6.045,0.90,3.21,-4.88,-3.89,-0.20,-2.06,
6.045,1.03,3.51,-5.25,-3.89,-0.20,-2.06,
6.046,1.03,3.51,-5.25,-3.89,-0.20,-2.06,
6.055,1.03,3.51,-5.25,-3.74,-0.28,-2.03,
6.056,1.03,3.51,-5.25,-3.74,-0.28,-2.03,
6.057,1.38,3.59,-7.29,-3.74,-0.28,-2.03,
6.057,1.38,3.59,-7.29,-3.74,-0.28,-2.03,
6.067,1.38,3.59,-7.29,-3.67,-0.34,-1.99,
6.068,1.38,3.59,-7.29,-3.67,-0.34,-1.99,
6.068,3.03,3.24,-9.09,-3.67,-0.34,-1.99,
6.068,3.03,3.24,-9.09,-3.67,-0.34,-1.99,
6.072,3.03,3.24,-9.09,-3.83,-0.44,-2.09,
6.073,3.03,3.24,-9.09,-3.83,-0.44,-2.09,
6.073,3.54,1.69,-9.54,-3.83,-0.44,-2.09,
6.073,3.54,1.69,-9.54,-3.83,-0.44,-2.09,
6.088,3.54,1.69,-9.54,-4.20,-0.58,-2.47,
6.088,3.54,1.69,-9.54,-4.20,-0.58,-2.47,
6.089,5.02,-0.46,-9.79,-4.20,-0.58,-2.47,
6.089,5.02,-0.46,-9.79,-4.20,-0.58,-2.47,
6.092,5.02,-0.46,-9.79,-4.46,-0.64,-3.06,
6.093,5.02,-0.46,-9.79,-4.46,-0.64,-3.06,
6.093,4.79,-1.02,-9.67,-4.46,-0.64,-3.06,
6.093,4.79,-1.02,-9.67,-4.46,-0.64,-3.06,
6.101,4.79,-1.02,-9.67,-4.29,-0.52,-3.56,
6.102,4.79,-1.02,-9.67,-4.29,-0.52,-3.56,
6.102,2.73,-1.64,-9.25,-4.29,-0.52,-3.56,
6.103,2.73,-1.64,-9.25,-4.29,-0.52,-3.56,
6.11,2.73,-1.64,-9.25,-3.73,-0.27,-3.68,
6.111,2.73,-1.64,-9.25,-3.73,-0.27,-3.68,
6.112,0.71,-1.78,-7.35,-3.73,-0.27,-3.68,
6.112,0.71,-1.78,-7.35,-3.73,-0.27,-3.68,
6.121,0.71,-1.78,-7.35,-2.97,-0.06,-3.30,
6.122,0.71,-1.78,-7.35,-2.97,-0.06,-3.30,
6.122,-1.50,-0.15,-6.76,-2.97,-0.06,-3.30,
6.123,-1.50,-0.15,-6.76,-2.97,-0.06,-3.30,
6.13,-1.50,-0.15,-6.76,-2.22,0.00,-2.43,
6.131,-1.50,-0.15,-6.76,-2.22,0.00,-2.43,
6.131,-1.98,2.10,-4.90,-2.22,0.00,-2.43,
6.132,-1.98,2.10,-4.90,-2.22,0.00,-2.43,
6.14,-1.98,2.10,-4.90,-1.57,0.03,-1.23,
6.141,-1.98,2.10,-4.90,-1.57,0.03,-1.23,
6.142,-2.46,4.01,-2.81,-1.57,0.03,-1.23,
6.142,-2.46,4.01,-2.81,-1.57,0.03,-1.23,
6.149,-2.46,4.01,-2.81,-1.08,0.11,0.05,
6.149,-2.46,4.01,-2.81,-1.08,0.11,0.05,
6.15,-2.48,4.27,-2.35,-1.08,0.11,0.05,
6.151,-2.48,4.27,-2.35,-1.08,0.11,0.05,
6.159,-2.48,4.27,-2.35,-1.08,0.11,0.05,
6.16,-2.48,4.27,-2.35,-1.08,0.11,0.05,
6.16,-2.48,4.27,-2.35,-1.08,0.11,0.05,
6.161,-2.48,4.27,-2.35,-1.08,0.11,0.05,
6.169,-2.48,4.27,-2.35,-0.74,0.20,1.24,
6.171,-2.48,4.27,-2.35,-0.74,0.20,1.24,
6.171,1.53,4.22,-0.21,-0.74,0.20,1.24,
6.172,1.53,4.22,-0.21,-0.74,0.20,1.24,
6.177,1.53,4.22,-0.21,-0.46,0.29,2.13,
6.177,1.53,4.22,-0.21,-0.46,0.29,2.13,
6.178,1.67,2.40,0.22,-0.46,0.29,2.13,
6.178,1.67,2.40,0.22,-0.46,0.29,2.13,
6.187,1.67,2.40,0.22,-0.21,0.31,2.51,
6.188,1.67,2.40,0.22,-0.21,0.31,2.51,
6.188,1.49,1.85,0.27,-0.21,0.31,2.51,
6.188,1.49,1.85,0.27,-0.21,0.31,2.51,
6.197,1.49,1.85,0.27,0.28,0.33,2.25,
6.198,1.49,1.85,0.27,0.28,0.33,2.25,
6.198,-0.18,-0.06,-0.08,0.28,0.33,2.25,
6.199,-0.18,-0.06,-0.08,0.28,0.33,2.25,
6.206,-0.18,-0.06,-0.08,1.11,0.36,1.67,
6.207,-0.18,-0.06,-0.08,1.11,0.36,1.67,
6.207,-0.34,-1.91,-0.43,1.11,0.36,1.67,
6.208,-0.34,-1.91,-0.43,1.11,0.36,1.67,
6.228,-0.34,-1.91,-0.43,1.93,0.43,1.26,
6.23,-0.34,-1.91,-0.43,1.93,0.43,1.26,
6.231,-0.37,-2.37,-0.42,1.93,0.43,1.26,
6.232,-0.37,-2.37,-0.42,1.93,0.43,1.26,
6.233,-0.37,-2.37,-0.42,2.98,0.56,1.23,
6.233,-0.37,-2.37,-0.42,2.98,0.56,1.23,
6.234,-0.19,-3.05,0.10,2.98,0.56,1.23,
6.235,-0.19,-3.05,0.10,2.98,0.56,1.23,
6.236,-0.19,-3.05,0.10,2.98,0.56,1.23,
6.237,-0.19,-3.05,0.10,2.98,0.56,1.23,
6.238,-0.19,-3.05,0.10,2.98,0.56,1.23,
6.238,-0.19,-3.05,0.10,2.98,0.56,1.23,
6.247,-0.19,-3.05,0.10,3.14,0.58,1.22,
6.247,-0.19,-3.05,0.10,3.14,0.58,1.22,
6.248,0.60,-3.62,0.47,3.14,0.58,1.22,
6.248,0.60,-3.62,0.47,3.14,0.58,1.22,
6.253,0.60,-3.62,0.47,3.12,0.67,1.10,
6.254,0.60,-3.62,0.47,3.12,0.67,1.10,
6.254,0.83,-3.56,0.33,3.12,0.67,1.10,
6.254,0.83,-3.56,0.33,3.12,0.67,1.10,
6.275,0.83,-3.56,0.33,2.99,0.72,0.86,
6.275,0.83,-3.56,0.33,2.99,0.72,0.86,
6.276,0.90,-3.29,0.14,2.99,0.72,0.86,
6.276,0.90,-3.29,0.14,2.99,0.72,0.86,
6.276,0.90,-3.29,0.14,2.76,0.72,0.55,
6.276,0.90,-3.29,0.14,2.76,0.72,0.55,
6.277,0.86,-2.88,0.13,2.76,0.72,0.55,
6.277,0.86,-2.88,0.13,2.76,0.72,0.55,
6.283,0.86,-2.88,0.13,2.45,0.69,0.22,
6.284,0.86,-2.88,0.13,2.45,0.69,0.22,
6.284,0.75,-2.42,0.43,2.45,0.69,0.22,
6.284,0.75,-2.42,0.43,2.45,0.69,0.22,
6.291,0.75,-2.42,0.43,2.10,0.64,-0.05,
6.292,0.75,-2.42,0.43,2.10,0.64,-0.05,
6.292,0.63,-1.94,0.97,2.10,0.64,-0.05,
6.292,0.63,-1.94,0.97,2.10,0.64,-0.05,
6.301,0.63,-1.94,0.97,1.73,0.59,-0.22,
6.302,0.63,-1.94,0.97,1.73,0.59,-0.22,
6.303,0.55,-1.48,1.57,1.73,0.59,-0.22,
6.303,0.55,-1.48,1.57,1.73,0.59,-0.22,
6.311,0.55,-1.48,1.57,1.44,0.57,-0.31,
6.311,0.55,-1.48,1.57,1.44,0.57,-0.31,
6.312,0.50,-1.17,2.02,1.44,0.57,-0.31,
6.312,0.50,-1.17,2.02,1.44,0.57,-0.31,
6.321,0.50,-1.17,2.02,1.25,0.57,-0.31,
6.322,0.50,-1.17,2.02,1.25,0.57,-0.31,
6.322,0.48,-1.04,2.29,1.25,0.57,-0.31,
6.323,0.48,-1.04,2.29,1.25,0.57,-0.31,
6.33,0.48,-1.04,2.29,1.17,0.61,-0.28,
6.331,0.48,-1.04,2.29,1.17,0.61,-0.28,
6.331,0.50,-1.19,2.50,1.17,0.61,-0.28,
6.332,0.50,-1.19,2.50,1.17,0.61,-0.28,
6.339,0.50,-1.19,2.50,1.17,0.68,-0.23,
6.34,0.50,-1.19,2.50,1.17,0.68,-0.23,
6.341,0.50,-1.64,2.79,1.17,0.68,-0.23,
6.341,0.50,-1.64,2.79,1.17,0.68,-0.23,
6.348,0.50,-1.64,2.79,1.17,0.68,-0.23,
6.349,0.50,-1.64,2.79,1.17,0.68,-0.23,
6.349,0.50,-1.64,2.79,1.17,0.68,-0.23,
6.349,0.50,-1.64,2.79,1.17,0.68,-0.23,
6.358,0.50,-1.64,2.79,1.23,0.75,-0.18,
6.359,0.50,-1.64,2.79,1.23,0.75,-0.18,
6.359,0.89,-3.91,2.64,1.23,0.75,-0.18,
6.36,0.89,-3.91,2.64,1.23,0.75,-0.18,
6.369,0.89,-3.91,2.64,1.32,0.81,-0.15,
6.37,0.89,-3.91,2.64,1.32,0.81,-0.15,
6.371,2.98,-4.29,0.77,1.32,0.81,-0.15,
6.371,2.98,-4.29,0.77,1.32,0.81,-0.15,
6.377,2.98,-4.29,0.77,1.39,0.81,-0.24,
6.377,2.98,-4.29,0.77,1.39,0.81,-0.24,
6.378,4.50,-4.44,0.17,1.39,0.81,-0.24,
6.378,4.50,-4.44,0.17,1.39,0.81,-0.24,
6.392,4.50,-4.44,0.17,1.34,0.69,-0.57,
6.392,4.50,-4.44,0.17,1.34,0.69,-0.57,
6.393,4.76,-4.23,0.42,1.34,0.69,-0.57,
6.393,4.76,-4.23,0.42,1.34,0.69,-0.57,
6.399,4.76,-4.23,0.42,1.12,0.42,-1.17,
6.4,4.76,-4.23,0.42,1.12,0.42,-1.17,
6.4,4.86,-2.52,5.67,1.12,0.42,-1.17,
6.4,4.86,-2.52,5.67,1.12,0.42,-1.17,
6.405,4.86,-2.52,5.67,0.94,0.14,-1.87,
6.406,4.86,-2.52,5.67,0.94,0.14,-1.87,
6.406,2.95,-2.12,9.45,0.94,0.14,-1.87,
6.406,2.95,-2.12,9.45,0.94,0.14,-1.87,
6.415,2.95,-2.12,9.45,0.91,0.06,-2.38,
6.416,2.95,-2.12,9.45,0.91,0.06,-2.38,
6.416,1.11,-1.51,9.99,0.91,0.06,-2.38,
6.416,1.11,-1.51,9.99,0.91,0.06,-2.38,
6.424,1.11,-1.51,9.99,1.53,0.16,-2.19,
6.425,1.11,-1.51,9.99,1.53,0.16,-2.19,
6.425,0.63,-0.86,9.95,1.53,0.16,-2.19,
6.426,0.63,-0.86,9.95,1.53,0.16,-2.19,
6.434,0.63,-0.86,9.95,2.84,0.22,-1.64,
6.435,0.63,-0.86,9.95,2.84,0.22,-1.64,
6.435,0.05,-0.41,5.49,2.84,0.22,-1.64,
6.436,0.05,-0.41,5.49,2.84,0.22,-1.64,
6.443,0.05,-0.41,5.49,4.01,0.24,-1.25,
6.444,0.05,-0.41,5.49,4.01,0.24,-1.25,
6.444,-0.06,-0.28,1.76,4.01,0.24,-1.25,
6.445,-0.06,-0.28,1.76,4.01,0.24,-1.25,
6.454,-0.06,-0.28,1.76,4.42,0.35,-0.72,
6.455,-0.06,-0.28,1.76,4.42,0.35,-0.72,
6.455,0.18,-0.44,0.01,4.42,0.35,-0.72,
6.456,0.18,-0.44,0.01,4.42,0.35,-0.72,
6.479,0.18,-0.44,0.01,3.81,0.39,-0.14,
6.48,0.18,-0.44,0.01,3.81,0.39,-0.14,
6.48,0.72,-0.78,-1.94,3.81,0.39,-0.14,
6.481,0.72,-0.78,-1.94,3.81,0.39,-0.14,
6.481,0.72,-0.78,-1.94,2.34,0.14,0.31,
6.481,0.72,-0.78,-1.94,2.34,0.14,0.31,
6.481,1.31,-1.14,-2.04,2.34,0.14,0.31,
6.482,1.31,-1.14,-2.04,2.34,0.14,0.31,
6.482,1.31,-1.14,-2.04,0.50,-0.35,0.53,
6.482,1.31,-1.14,-2.04,0.50,-0.35,0.53,
6.482,1.72,-1.38,-0.51,0.50,-0.35,0.53,
6.483,1.72,-1.38,-0.51,0.50,-0.35,0.53,
6.491,1.72,-1.38,-0.51,-1.14,-0.98,0.50,
6.492,1.72,-1.38,-0.51,-1.14,-0.98,0.50,
6.492,1.88,-1.39,1.15,-1.14,-0.98,0.50,
6.493,1.88,-1.39,1.15,-1.14,-0.98,0.50,
6.5,1.88,-1.39,1.15,-2.16,-1.04,0.24,
6.501,1.88,-1.39,1.15,-2.16,-1.04,0.24,
6.501,1.88,-1.10,2.87,-2.16,-1.04,0.24,
6.502,1.88,-1.10,2.87,-2.16,-1.04,0.24,
6.511,1.88,-1.10,2.87,-2.39,-0.96,-0.10,
6.511,1.88,-1.10,2.87,-2.39,-0.96,-0.10,
6.512,1.83,-0.51,3.31,-2.39,-0.96,-0.10,
6.512,1.83,-0.51,3.31,-2.39,-0.96,-0.10,
6.52,1.83,-0.51,3.31,-2.04,-1.17,-0.39,
6.521,1.83,-0.51,3.31,-2.04,-1.17,-0.39,
6.522,1.74,1.09,3.87,-2.04,-1.17,-0.39,
6.522,1.74,1.09,3.87,-2.04,-1.17,-0.39,
6.53,1.74,1.09,3.87,-1.34,-1.14,-0.58,
6.531,1.74,1.09,3.87,-1.34,-1.14,-0.58,
6.531,1.49,1.64,4.16,-1.34,-1.14,-0.58,
6.531,1.49,1.64,4.16,-1.34,-1.14,-0.58,
6.539,1.49,1.64,4.16,-0.49,-1.01,-0.71,
6.539,1.49,1.64,4.16,-0.49,-1.01,-0.71,
6.54,1.00,3.12,3.95,-0.49,-1.01,-0.71,
6.54,1.00,3.12,3.95,-0.49,-1.01,-0.71,
6.548,1.00,3.12,3.95,-0.49,-1.01,-0.71,
6.548,1.00,3.12,3.95,-0.49,-1.01,-0.71,
6.548,1.00,3.12,3.95,-0.49,-1.01,-0.71,
6.549,1.00,3.12,3.95,-0.49,-1.01,-0.71,
6.558,1.00,3.12,3.95,0.25,-0.86,-0.78,
6.558,1.00,3.12,3.95,0.25,-0.86,-0.78,
6.559,-1.06,3.96,1.49,0.25,-0.86,-0.78,
6.56,-1.06,3.96,1.49,0.25,-0.86,-0.78,
6.567,-1.06,3.96,1.49,0.76,-0.74,-0.72,
6.568,-1.06,3.96,1.49,0.76,-0.74,-0.72,
6.569,-2.64,4.26,0.85,0.76,-0.74,-0.72,
6.57,-2.64,4.26,0.85,0.76,-0.74,-0.72,
6.577,-2.64,4.26,0.85,0.85,-0.69,-0.38,
6.577,-2.64,4.26,0.85,0.85,-0.69,-0.38,
6.578,-3.18,4.26,0.43,0.85,-0.69,-0.38,
6.578,-3.18,4.26,0.43,0.85,-0.69,-0.38,
6.59,-3.18,4.26,0.43,0.67,-0.69,0.39,
6.591,-3.18,4.26,0.43,0.67,-0.69,0.39,
6.591,-3.78,3.93,0.40,0.67,-0.69,0.39,
6.591,-3.78,3.93,0.40,0.67,-0.69,0.39,
6.598,-3.78,3.93,0.40,0.12,-0.62,1.55,
6.599,-3.78,3.93,0.40,0.12,-0.62,1.55,
6.599,-4.10,2.29,0.56,0.12,-0.62,1.55,
6.6,-4.10,2.29,0.56,0.12,-0.62,1.55,
6.605,-4.10,2.29,0.56,-0.68,-0.34,2.87,
6.606,-4.10,2.29,0.56,-0.68,-0.34,2.87,
6.606,-3.88,1.99,0.80,-0.68,-0.34,2.87,
6.607,-3.88,1.99,0.80,-0.68,-0.34,2.87,
6.615,-3.88,1.99,0.80,-1.13,0.20,4.04,
6.617,-3.88,1.99,0.80,-1.13,0.20,4.04,
6.617,-2.22,1.52,1.12,-1.13,0.20,4.04,
6.618,-2.22,1.52,1.12,-1.13,0.20,4.04,
6.624,-2.22,1.52,1.12,-1.15,0.78,4.75,
6.625,-2.22,1.52,1.12,-1.15,0.78,4.75,
6.626,-0.27,1.04,1.44,-1.15,0.78,4.75,
6.627,-0.27,1.04,1.44,-1.15,0.78,4.75,
6.634,-0.27,1.04,1.44,-0.90,1.02,4.67,
6.635,-0.27,1.04,1.44,-0.90,1.02,4.67,
6.636,1.54,0.64,1.81,-0.90,1.02,4.67,
6.637,1.54,0.64,1.81,-0.90,1.02,4.67,
6.643,1.54,0.64,1.81,-0.63,0.59,3.66,
6.644,1.54,0.64,1.81,-0.63,0.59,3.66,
6.644,3.31,0.28,2.12,-0.63,0.59,3.66,
6.645,3.31,0.28,2.12,-0.63,0.59,3.66,
6.658,3.31,0.28,2.12,-0.37,0.67,1.88,
6.659,3.31,0.28,2.12,-0.37,0.67,1.88,
6.659,3.52,0.01,2.27,-0.37,0.67,1.88,
6.66,3.52,0.01,2.27,-0.37,0.67,1.88,
6.686,3.52,0.01,2.27,-0.02,1.56,-0.21,
6.687,3.52,0.01,2.27,-0.02,1.56,-0.21,
6.687,3.75,-0.19,2.35,-0.02,1.56,-0.21,
6.687,3.75,-0.19,2.35,-0.02,1.56,-0.21,
6.688,3.75,-0.19,2.35,0.45,2.17,-2.11,
6.688,3.75,-0.19,2.35,0.45,2.17,-2.11,
6.688,3.72,-0.40,2.37,0.45,2.17,-2.11,
6.689,3.72,-0.40,2.37,0.45,2.17,-2.11,
6.689,3.72,-0.40,2.37,0.92,1.90,-3.47,
6.689,3.72,-0.40,2.37,0.92,1.90,-3.47,
6.689,3.33,-0.59,2.42,0.92,1.90,-3.47,
6.69,3.33,-0.59,2.42,0.92,1.90,-3.47,
6.69,3.33,-0.59,2.42,1.29,1.15,-4.22,
6.69,3.33,-0.59,2.42,1.29,1.15,-4.22,
6.691,1.52,-0.81,2.45,1.29,1.15,-4.22,
6.691,1.52,-0.81,2.45,1.29,1.15,-4.22,
6.7,1.52,-0.81,2.45,1.53,0.72,-4.38,
6.701,1.52,-0.81,2.45,1.53,0.72,-4.38,
6.701,1.11,-0.99,2.39,1.53,0.72,-4.38,
6.702,1.11,-0.99,2.39,1.53,0.72,-4.38,
6.71,1.11,-0.99,2.39,1.63,0.51,-4.03,
6.711,1.11,-0.99,2.39,1.63,0.51,-4.03,
6.711,0.52,-1.06,2.27,1.63,0.51,-4.03,
6.712,0.52,-1.06,2.27,1.63,0.51,-4.03,
6.72,0.52,-1.06,2.27,1.63,0.46,-3.31,
6.721,0.52,-1.06,2.27,1.63,0.46,-3.31,
6.721,-0.08,-0.97,2.10,1.63,0.46,-3.31,
6.722,-0.08,-0.97,2.10,1.63,0.46,-3.31,
6.73,-0.08,-0.97,2.10,1.63,0.46,-3.31,
6.731,-0.08,-0.97,2.10,1.63,0.46,-3.31,
6.731,-0.08,-0.97,2.10,1.63,0.46,-3.31,
6.731,-0.08,-0.97,2.10,1.63,0.46,-3.31,
6.738,-0.08,-0.97,2.10,1.55,0.49,-2.43,
6.739,-0.08,-0.97,2.10,1.55,0.49,-2.43,
6.74,-1.10,-0.34,2.04,1.55,0.49,-2.43,
6.741,-1.10,-0.34,2.04,1.55,0.49,-2.43,
6.748,-1.10,-0.34,2.04,1.41,0.56,-1.53,
6.749,-1.10,-0.34,2.04,1.41,0.56,-1.53,
6.749,-1.51,0.07,2.24,1.41,0.56,-1.53,
6.75,-1.51,0.07,2.24,1.41,0.56,-1.53,
6.757,-1.51,0.07,2.24,1.24,0.64,-0.68,
6.758,-1.51,0.07,2.24,1.24,0.64,-0.68,
6.759,-1.80,0.38,2.61,1.24,0.64,-0.68,
6.76,-1.80,0.38,2.61,1.24,0.64,-0.68,
6.769,-1.80,0.38,2.61,1.11,0.77,0.10,
6.77,-1.80,0.38,2.61,1.11,0.77,0.10,
6.771,-1.94,0.49,3.09,1.11,0.77,0.10,
6.771,-1.94,0.49,3.09,1.11,0.77,0.10,
6.777,-1.94,0.49,3.09,1.06,0.95,0.77,
6.777,-1.94,0.49,3.09,1.06,0.95,0.77,
6.777,-2.02,0.39,3.61,1.06,0.95,0.77,
6.778,-2.02,0.39,3.61,1.06,0.95,0.77,
6.79,-2.02,0.39,3.61,1.14,1.18,1.29,
6.791,-2.02,0.39,3.61,1.14,1.18,1.29,
6.791,-2.07,0.15,4.03,1.14,1.18,1.29,
6.791,-2.07,0.15,4.03,1.14,1.18,1.29,
6.798,-2.07,0.15,4.03,1.36,1.44,1.64,
6.799,-2.07,0.15,4.03,1.36,1.44,1.64,
6.799,-2.09,-0.11,4.29,1.36,1.44,1.64,
6.799,-2.09,-0.11,4.29,1.36,1.44,1.64,
6.805,-2.09,-0.11,4.29,1.67,1.69,1.82,
6.806,-2.09,-0.11,4.29,1.67,1.69,1.82,
6.807,-2.09,-0.28,4.40,1.67,1.69,1.82,
6.807,-2.09,-0.28,4.40,1.67,1.69,1.82,
6.814,-2.09,-0.28,4.40,2.00,1.87,1.87,
6.815,-2.09,-0.28,4.40,2.00,1.87,1.87,
6.816,-2.01,-0.31,4.45,2.00,1.87,1.87,
6.816,-2.01,-0.31,4.45,2.00,1.87,1.87,
6.824,-2.01,-0.31,4.45,2.27,1.97,1.81,
6.825,-2.01,-0.31,4.45,2.27,1.97,1.81,
6.825,-1.85,-0.20,4.52,2.27,1.97,1.81,
6.826,-1.85,-0.20,4.52,2.27,1.97,1.81,
6.833,-1.85,-0.20,4.52,2.46,1.98,1.67,
6.835,-1.85,-0.20,4.52,2.46,1.98,1.67,
6.836,-1.64,-0.03,4.64,2.46,1.98,1.67,
6.837,-1.64,-0.03,4.64,2.46,1.98,1.67,
6.843,-1.64,-0.03,4.64,2.55,1.93,1.49,
6.844,-1.64,-0.03,4.64,2.55,1.93,1.49,
6.844,-1.45,0.09,4.80,2.55,1.93,1.49,
6.845,-1.45,0.09,4.80,2.55,1.93,1.49,
6.852,-1.45,0.09,4.80,2.58,1.82,1.27,
6.853,-1.45,0.09,4.80,2.58,1.82,1.27,
6.854,-1.35,0.05,4.88,2.58,1.82,1.27,
6.854,-1.35,0.05,4.88,2.58,1.82,1.27,
6.875,-1.35,0.05,4.88,2.57,1.66,1.03,
6.875,-1.35,0.05,4.88,2.57,1.66,1.03,
6.876,-1.39,-0.16,4.76,2.57,1.66,1.03,
6.876,-1.39,-0.16,4.76,2.57,1.66,1.03,
6.876,-1.39,-0.16,4.76,2.53,1.48,0.80,
6.877,-1.39,-0.16,4.76,2.53,1.48,0.80,
6.877,-1.61,-0.50,4.39,2.53,1.48,0.80,
6.877,-1.61,-0.50,4.39,2.53,1.48,0.80,
6.883,-1.61,-0.50,4.39,2.43,1.28,0.62,
6.884,-1.61,-0.50,4.39,2.43,1.28,0.62,
6.884,-1.91,-0.92,3.76,2.43,1.28,0.62,
6.885,-1.91,-0.92,3.76,2.43,1.28,0.62,
6.891,-1.91,-0.92,3.76,2.23,1.09,0.51,
6.892,-1.91,-0.92,3.76,2.23,1.09,0.51,
6.893,-2.20,-1.36,2.13,2.23,1.09,0.51,
6.893,-2.20,-1.36,2.13,2.23,1.09,0.51,
6.9,-2.20,-1.36,2.13,1.86,0.91,0.50,
6.901,-2.20,-1.36,2.13,1.86,0.91,0.50,
6.902,-2.37,-1.71,0.35,1.86,0.91,0.50,
6.903,-2.37,-1.71,0.35,1.86,0.91,0.50,
6.909,-2.37,-1.71,0.35,1.25,0.72,0.58,
6.91,-2.37,-1.71,0.35,1.25,0.72,0.58,
6.911,-2.23,-1.89,-0.11,1.25,0.72,0.58,
6.912,-2.23,-1.89,-0.11,1.25,0.72,0.58,
6.92,-2.23,-1.89,-0.11,0.39,0.48,0.72,
6.921,-2.23,-1.89,-0.11,0.39,0.48,0.72,
6.921,-1.79,-1.88,-0.64,0.39,0.48,0.72,
6.922,-1.79,-1.88,-0.64,0.39,0.48,0.72,
6.929,-1.79,-1.88,-0.64,-0.58,0.17,0.84,
6.93,-1.79,-1.88,-0.64,-0.58,0.17,0.84,
6.93,-0.12,-1.69,-0.92,-0.58,0.17,0.84,
6.931,-0.12,-1.69,-0.92,-0.58,0.17,0.84,
6.938,-0.12,-1.69,-0.92,-0.58,0.17,0.84,
6.939,-0.12,-1.69,-0.92,-0.58,0.17,0.84,
6.939,-0.12,-1.69,-0.92,-0.58,0.17,0.84,
6.939,-0.12,-1.69,-0.92,-0.58,0.17,0.84,
6.948,-0.12,-1.69,-0.92,-1.48,0.12,0.86,
6.949,-0.12,-1.69,-0.92,-1.48,0.12,0.86,
6.949,0.66,-1.30,0.84,-1.48,0.12,0.86,
6.95,0.66,-1.30,0.84,-1.48,0.12,0.86,
6.957,0.66,-1.30,0.84,-2.12,0.31,0.68,
6.957,0.66,-1.30,0.84,-2.12,0.31,0.68,
6.958,1.09,-1.40,2.57,-2.12,0.31,0.68,
6.958,1.09,-1.40,2.57,-2.12,0.31,0.68,
6.967,1.09,-1.40,2.57,-2.32,-0.04,0.26,
6.968,1.09,-1.40,2.57,-2.32,-0.04,0.26,
6.968,1.35,-1.80,2.81,-2.32,-0.04,0.26,
6.969,1.35,-1.80,2.81,-2.32,-0.04,0.26,
6.976,1.35,-1.80,2.81,-2.02,-0.66,-0.27,
6.977,1.35,-1.80,2.81,-2.02,-0.66,-0.27,
6.977,1.38,-3.34,3.13,-2.02,-0.66,-0.27,
6.977,1.38,-3.34,3.13,-2.02,-0.66,-0.27,
6.986,1.38,-3.34,3.13,-1.37,-0.93,-0.77,
6.987,1.38,-3.34,3.13,-1.37,-0.93,-0.77,
6.987,1.07,-5.12,3.09,-1.37,-0.93,-0.77,
6.987,1.07,-5.12,3.09,-1.37,-0.93,-0.77,
6.995,1.07,-5.12,3.09,-0.67,-0.94,-1.13,
6.996,1.07,-5.12,3.09,-0.67,-0.94,-1.13,
6.996,-0.45,-5.52,0.36,-0.67,-0.94,-1.13,
6.997,-0.45,-5.52,0.36,-0.67,-0.94,-1.13,
7.005,-0.45,-5.52,0.36,-0.18,-0.85,-1.25,
7.005,-0.45,-5.52,0.36,-0.18,-0.85,-1.25,
7.005,-2.38,-6.02,-2.75,-0.18,-0.85,-1.25,
7.006,-2.38,-6.02,-2.75,-0.18,-0.85,-1.25,
7.014,-2.38,-6.02,-2.75,-0.15,-0.73,-1.07,
7.015,-2.38,-6.02,-2.75,-0.15,-0.73,-1.07,
7.015,-2.67,-6.24,-4.54,-0.15,-0.73,-1.07,
7.015,-2.67,-6.24,-4.54,-0.15,-0.73,-1.07,
7.023,-2.67,-6.24,-4.54,-0.62,-0.66,-0.58,
7.024,-2.67,-6.24,-4.54,-0.62,-0.66,-0.58,
7.025,-3.03,-6.05,-6.71,-0.62,-0.66,-0.58,
7.025,-3.03,-6.05,-6.71,-0.62,-0.66,-0.58,
7.033,-3.03,-6.05,-6.71,-1.50,-0.53,-0.17,
7.034,-3.03,-6.05,-6.71,-1.50,-0.53,-0.17,
7.034,-3.03,-4.42,-7.00,-1.50,-0.53,-0.17,
7.035,-3.03,-4.42,-7.00,-1.50,-0.53,-0.17,
7.044,-3.03,-4.42,-7.00,-2.51,-0.52,0.25,
7.044,-3.03,-4.42,-7.00,-2.51,-0.52,0.25,
7.045,-2.57,-4.15,-6.95,-2.51,-0.52,0.25,
7.045,-2.57,-4.15,-6.95,-2.51,-0.52,0.25,
7.053,-2.57,-4.15,-6.95,-3.40,-0.70,0.77,
7.056,-2.57,-4.15,-6.95,-3.40,-0.70,0.77,
7.056,-0.73,-3.77,-6.68,-3.40,-0.70,0.77,
7.056,-0.73,-3.77,-6.68,-3.40,-0.70,0.77,
7.079,-0.73,-3.77,-6.68,-4.00,-0.80,1.04,
7.08,-0.73,-3.77,-6.68,-4.00,-0.80,1.04,
7.08,-0.36,-3.51,-6.32,-4.00,-0.80,1.04,
7.081,-0.36,-3.51,-6.32,-4.00,-0.80,1.04,
7.082,-0.36,-3.51,-6.32,-4.26,-0.76,1.05,
7.082,-0.36,-3.51,-6.32,-4.26,-0.76,1.05,
7.083,0.05,-3.50,-5.86,-4.26,-0.76,1.05,
7.083,0.05,-3.50,-5.86,-4.26,-0.76,1.05,
7.083,0.05,-3.50,-5.86,-4.22,-0.57,0.86,
7.083,0.05,-3.50,-5.86,-4.22,-0.57,0.86,
7.084,0.21,-3.69,-5.28,-4.22,-0.57,0.86,
7.084,0.21,-3.69,-5.28,-4.22,-0.57,0.86,
7.09,0.21,-3.69,-5.28,-3.93,-0.22,0.60,
7.091,0.21,-3.69,-5.28,-3.93,-0.22,0.60,
7.091,0.07,-4.00,-3.76,-3.93,-0.22,0.60,
7.091,0.07,-4.00,-3.76,-3.93,-0.22,0.60,
7.099,0.07,-4.00,-3.76,-3.43,0.33,0.42,
7.1,0.07,-4.00,-3.76,-3.43,0.33,0.42,
7.1,-0.15,-4.29,-2.10,-3.43,0.33,0.42,
7.101,-0.15,-4.29,-2.10,-3.43,0.33,0.42,
7.109,-0.15,-4.29,-2.10,-2.71,1.10,0.40,
7.11,-0.15,-4.29,-2.10,-2.71,1.10,0.40,
7.11,-0.25,-4.50,-1.70,-2.71,1.10,0.40,
7.111,-0.25,-4.50,-1.70,-2.71,1.10,0.40,
7.119,-0.25,-4.50,-1.70,-1.82,1.98,0.49,
7.121,-0.25,-4.50,-1.70,-1.82,1.98,0.49,
7.121,-0.13,-4.65,-1.07,-1.82,1.98,0.49,
7.121,-0.13,-4.65,-1.07,-1.82,1.98,0.49,
7.129,-0.13,-4.65,-1.07,-1.82,1.98,0.49,
7.13,-0.13,-4.65,-1.07,-1.82,1.98,0.49,
7.13,-0.13,-4.65,-1.07,-1.82,1.98,0.49,
7.131,-0.13,-4.65,-1.07,-1.82,1.98,0.49,
7.138,-0.13,-4.65,-1.07,-0.84,2.82,0.62,
7.139,-0.13,-4.65,-1.07,-0.84,2.82,0.62,
7.139,0.65,-4.66,-0.02,-0.84,2.82,0.62,
7.14,0.65,-4.66,-0.02,-0.84,2.82,0.62,
7.147,0.65,-4.66,-0.02,0.07,3.47,0.69,
7.148,0.65,-4.66,-0.02,0.07,3.47,0.69,
7.148,0.95,-4.40,0.29,0.07,3.47,0.69,
7.148,0.95,-4.40,0.29,0.07,3.47,0.69,
