
time,ax,ay,az,wx,wy,wz,
0.003,0.13,-0.01,0.33,-0.00,0.00,0.00,
0.004,0.13,-0.01,0.33,-0.00,0.00,0.00,
0.005,0.15,0.01,0.29,-0.00,0.00,0.00,
0.006,0.15,0.01,0.29,-0.00,0.00,0.00,
0.027,0.15,0.01,0.29,0.00,-0.00,-0.00,
0.029,0.15,0.01,0.29,0.00,-0.00,-0.00,
0.03,0.14,0.01,0.21,0.00,-0.00,-0.00,
0.031,0.14,0.01,0.21,0.00,-0.00,-0.00,
0.066,0.14,0.01,0.21,0.00,0.00,0.00,
0.067,0.14,0.01,0.21,0.00,0.00,0.00,
0.069,0.19,0.03,0.21,0.00,0.00,0.00,
0.07,0.19,0.03,0.21,0.00,0.00,0.00,
0.104,0.19,0.03,0.21,0.00,0.00,0.00,
0.105,0.19,0.03,0.21,0.00,0.00,0.00,
0.105,0.22,0.07,0.27,0.00,0.00,0.00,
0.106,0.22,0.07,0.27,0.00,0.00,0.00,
0.161,0.22,0.07,0.27,0.00,0.00,0.00,
0.163,0.22,0.07,0.27,0.00,0.00,0.00,
0.164,0.18,0.11,0.27,0.00,0.00,0.00,
0.165,0.18,0.11,0.27,0.00,0.00,0.00,
0.18,0.18,0.11,0.27,-0.00,-0.00,0.00,
0.181,0.18,0.11,0.27,-0.00,-0.00,0.00,
0.183,0.18,0.16,0.33,-0.00,-0.00,0.00,
0.184,0.18,0.16,0.33,-0.00,-0.00,0.00,
0.218,0.18,0.16,0.33,-0.00,0.00,-0.00,
0.22,0.18,0.16,0.33,-0.00,0.00,-0.00,
0.222,0.14,0.17,0.33,-0.00,0.00,-0.00,
0.223,0.14,0.17,0.33,-0.00,0.00,-0.00,
0.264,0.14,0.17,0.33,-0.00,0.00,-0.00,
0.266,0.14,0.17,0.33,-0.00,0.00,-0.00,
0.267,0.12,0.17,0.33,-0.00,0.00,-0.00,
0.268,0.12,0.17,0.33,-0.00,0.00,-0.00,
0.293,0.12,0.17,0.33,0.00,-0.00,0.00,
0.295,0.12,0.17,0.33,0.00,-0.00,0.00,
0.296,0.11,0.16,0.34,0.00,-0.00,0.00,
0.297,0.11,0.16,0.34,0.00,-0.00,0.00,
0.332,0.11,0.16,0.34,-0.00,-0.00,0.00,
0.334,0.11,0.16,0.34,-0.00,-0.00,0.00,
0.335,0.09,0.15,0.34,-0.00,-0.00,0.00,
0.336,0.09,0.15,0.34,-0.00,-0.00,0.00,
0.374,0.09,0.15,0.34,-0.00,0.00,-0.00,
0.376,0.09,0.15,0.34,-0.00,0.00,-0.00,
0.376,0.07,0.14,0.34,-0.00,0.00,-0.00,
0.377,0.07,0.14,0.34,-0.00,0.00,-0.00,
0.407,0.07,0.14,0.34,-0.00,0.00,-0.00,
0.409,0.07,0.14,0.34,-0.00,0.00,-0.00,
0.409,0.06,0.14,0.35,-0.00,0.00,-0.00,
0.41,0.06,0.14,0.35,-0.00,0.00,-0.00,
0.446,0.06,0.14,0.35,0.00,0.00,-0.00,
0.447,0.06,0.14,0.35,0.00,0.00,-0.00,
0.448,0.04,0.13,0.35,0.00,0.00,-0.00,
0.448,0.04,0.13,0.35,0.00,0.00,-0.00,
0.484,0.04,0.13,0.35,0.00,0.00,-0.00,
0.486,0.04,0.13,0.35,0.00,0.00,-0.00,
0.486,0.05,0.19,-0.11,0.00,0.00,-0.00,
0.487,0.05,0.19,-0.11,0.00,0.00,-0.00,
0.522,0.05,0.19,-0.11,0.00,0.00,-0.00,
0.523,0.05,0.19,-0.11,0.00,0.00,-0.00,
0.523,0.18,0.24,-0.36,0.00,0.00,-0.00,
0.524,0.18,0.24,-0.36,0.00,0.00,-0.00,
0.559,0.18,0.24,-0.36,0.00,-0.00,-0.00,
0.559,0.18,0.24,-0.36,0.00,-0.00,-0.00,
0.56,0.37,0.12,-0.35,0.00,-0.00,-0.00,
0.56,0.37,0.12,-0.35,0.00,-0.00,-0.00,
0.597,0.37,0.12,-0.35,-0.03,-0.29,0.07,
0.598,0.37,0.12,-0.35,-0.03,-0.29,0.07,
0.598,0.48,-0.15,-0.13,-0.03,-0.29,0.07,
0.599,0.48,-0.15,-0.13,-0.03,-0.29,0.07,
0.635,0.48,-0.15,-0.13,-0.40,-0.38,-0.28,
0.637,0.48,-0.15,-0.13,-0.40,-0.38,-0.28,
0.637,0.55,-0.48,0.18,-0.40,-0.38,-0.28,
0.638,0.55,-0.48,0.18,-0.40,-0.38,-0.28,
0.673,0.55,-0.48,0.18,-0.64,-0.42,-0.57,
0.674,0.55,-0.48,0.18,-0.64,-0.42,-0.57,
0.675,0.61,-0.87,0.44,-0.64,-0.42,-0.57,
0.676,0.61,-0.87,0.44,-0.64,-0.42,-0.57,
0.711,0.61,-0.87,0.44,-0.85,-0.52,-0.91,
0.712,0.61,-0.87,0.44,-0.85,-0.52,-0.91,
0.713,0.78,-0.94,0.30,-0.85,-0.52,-0.91,
0.713,0.78,-0.94,0.30,-0.85,-0.52,-0.91,
0.753,0.78,-0.94,0.30,-0.70,-0.61,-0.97,
0.755,0.78,-0.94,0.30,-0.70,-0.61,-0.97,
0.757,0.86,-0.99,-0.02,-0.70,-0.61,-0.97,
0.757,0.86,-0.99,-0.02,-0.70,-0.61,-0.97,
0.787,0.86,-0.99,-0.02,-0.43,-0.59,-0.61,
0.788,0.86,-0.99,-0.02,-0.43,-0.59,-0.61,
0.788,0.94,-0.94,-0.47,-0.43,-0.59,-0.61,
0.789,0.94,-0.94,-0.47,-0.43,-0.59,-0.61,
0.825,0.94,-0.94,-0.47,-0.11,-0.59,-0.26,
0.826,0.94,-0.94,-0.47,-0.11,-0.59,-0.26,
0.827,1.00,-0.67,-0.95,-0.11,-0.59,-0.26,
0.828,1.00,-0.67,-0.95,-0.11,-0.59,-0.26,
0.863,1.00,-0.67,-0.95,0.10,-0.59,-0.15,
0.864,1.00,-0.67,-0.95,0.10,-0.59,-0.15,
0.864,0.93,-0.61,-1.25,0.10,-0.59,-0.15,
0.864,0.93,-0.61,-1.25,0.10,-0.59,-0.15,
0.901,0.93,-0.61,-1.25,0.19,-0.50,0.05,
0.902,0.93,-0.61,-1.25,0.19,-0.50,0.05,
0.902,0.89,-0.54,-1.35,0.19,-0.50,0.05,
0.903,0.89,-0.54,-1.35,0.19,-0.50,0.05,
0.939,0.89,-0.54,-1.35,0.14,-0.44,0.37,
0.94,0.89,-0.54,-1.35,0.14,-0.44,0.37,
0.94,1.04,-0.59,-1.35,0.14,-0.44,0.37,
0.941,1.04,-0.59,-1.35,0.14,-0.44,0.37,
0.976,1.04,-0.59,-1.35,0.05,-0.58,0.80,
0.977,1.04,-0.59,-1.35,0.05,-0.58,0.80,
0.977,1.49,-0.60,-1.21,0.05,-0.58,0.80,
0.978,1.49,-0.60,-1.21,0.05,-0.58,0.80,
1.015,1.49,-0.60,-1.21,-0.09,-0.83,0.70,
1.016,1.49,-0.60,-1.21,-0.09,-0.83,0.70,
1.017,1.88,-0.69,-1.19,-0.09,-0.83,0.70,
1.018,1.88,-0.69,-1.19,-0.09,-0.83,0.70,
1.053,1.88,-0.69,-1.19,-0.32,-1.21,0.42,
1.055,1.88,-0.69,-1.19,-0.32,-1.21,0.42,
1.056,2.34,-0.70,-1.15,-0.32,-1.21,0.42,
1.057,2.34,-0.70,-1.15,-0.32,-1.21,0.42,
1.091,2.34,-0.70,-1.15,-0.40,-1.57,0.21,
1.092,2.34,-0.70,-1.15,-0.40,-1.57,0.21,
1.092,3.49,-0.69,-0.75,-0.40,-1.57,0.21,
1.093,3.49,-0.69,-0.75,-0.40,-1.57,0.21,
1.14,3.49,-0.69,-0.75,-0.49,-1.47,0.19,
1.141,3.49,-0.69,-0.75,-0.49,-1.47,0.19,
1.142,3.00,-1.00,-0.21,-0.49,-1.47,0.19,
1.142,3.00,-1.00,-0.21,-0.49,-1.47,0.19,
1.166,3.00,-1.00,-0.21,-0.54,-0.67,0.32,
1.167,3.00,-1.00,-0.21,-0.54,-0.67,0.32,
1.168,2.67,-1.22,0.35,-0.54,-0.67,0.32,
1.168,2.67,-1.22,0.35,-0.54,-0.67,0.32,
1.204,2.67,-1.22,0.35,-0.46,-0.25,0.47,
1.205,2.67,-1.22,0.35,-0.46,-0.25,0.47,
1.205,2.52,-1.22,0.95,-0.46,-0.25,0.47,
1.205,2.52,-1.22,0.95,-0.46,-0.25,0.47,
1.242,2.52,-1.22,0.95,-0.40,0.11,0.48,
1.243,2.52,-1.22,0.95,-0.40,0.11,0.48,
1.243,1.84,-1.39,1.28,-0.40,0.11,0.48,
1.244,1.84,-1.39,1.28,-0.40,0.11,0.48,
1.28,1.84,-1.39,1.28,-0.24,0.26,0.72,
1.281,1.84,-1.39,1.28,-0.24,0.26,0.72,
1.282,1.41,-1.44,1.17,-0.24,0.26,0.72,
1.282,1.41,-1.44,1.17,-0.24,0.26,0.72,
1.318,1.41,-1.44,1.17,0.06,0.01,1.14,
1.32,1.41,-1.44,1.17,0.06,0.01,1.14,
1.32,1.59,-1.30,0.89,0.06,0.01,1.14,
1.321,1.59,-1.30,0.89,0.06,0.01,1.14,
1.356,1.59,-1.30,0.89,0.29,-1.00,1.24,
1.357,1.59,-1.30,0.89,0.29,-1.00,1.24,
1.357,2.95,-1.13,-0.96,0.29,-1.00,1.24,
1.358,2.95,-1.13,-0.96,0.29,-1.00,1.24,
1.394,2.95,-1.13,-0.96,0.41,-2.15,1.12,
1.395,2.95,-1.13,-0.96,0.41,-2.15,1.12,
1.396,4.76,-0.76,-1.21,0.41,-2.15,1.12,
1.396,4.76,-0.76,-1.21,0.41,-2.15,1.12,
1.432,4.76,-0.76,-1.21,0.51,-2.96,0.65,
1.433,4.76,-0.76,-1.21,0.51,-2.96,0.65,
1.433,5.06,-0.36,-1.57,0.51,-2.96,0.65,
1.434,5.06,-0.36,-1.57,0.51,-2.96,0.65,
1.47,5.06,-0.36,-1.57,0.29,-2.50,0.18,
1.471,5.06,-0.36,-1.57,0.29,-2.50,0.18,
1.472,4.91,-0.25,-1.92,0.29,-2.50,0.18,
1.472,4.91,-0.25,-1.92,0.29,-2.50,0.18,
1.509,4.91,-0.25,-1.92,-0.00,-1.73,0.03,
1.51,4.91,-0.25,-1.92,-0.00,-1.73,0.03,
1.51,4.08,-0.38,-2.11,-0.00,-1.73,0.03,
1.511,4.08,-0.38,-2.11,-0.00,-1.73,0.03,
1.546,4.08,-0.38,-2.11,-0.28,-0.80,0.13,
1.546,4.08,-0.38,-2.11,-0.28,-0.80,0.13,
1.547,2.02,-0.72,-2.06,-0.28,-0.80,0.13,
1.548,2.02,-0.72,-2.06,-0.28,-0.80,0.13,
1.584,2.02,-0.72,-2.06,-0.48,-0.03,0.47,
1.585,2.02,-0.72,-2.06,-0.48,-0.03,0.47,
1.586,1.26,-2.27,-1.75,-0.48,-0.03,0.47,
1.586,1.26,-2.27,-1.75,-0.48,-0.03,0.47,
1.622,1.26,-2.27,-1.75,-0.84,0.60,1.57,
1.623,1.26,-2.27,-1.75,-0.84,0.60,1.57,
1.624,0.38,-2.53,-1.17,-0.84,0.60,1.57,
1.624,0.38,-2.53,-1.17,-0.84,0.60,1.57,
1.66,0.38,-2.53,-1.17,-0.01,0.68,2.49,
1.661,0.38,-2.53,-1.17,-0.01,0.68,2.49,
1.661,-0.37,-3.07,-0.75,-0.01,0.68,2.49,
1.662,-0.37,-3.07,-0.75,-0.01,0.68,2.49,
1.698,-0.37,-3.07,-0.75,0.84,0.09,3.31,
1.699,-0.37,-3.07,-0.75,0.84,0.09,3.31,
1.7,-0.70,-3.54,-0.92,0.84,0.09,3.31,
1.7,-0.70,-3.54,-0.92,0.84,0.09,3.31,
1.736,-0.70,-3.54,-0.92,1.57,-1.83,3.82,
1.737,-0.70,-3.54,-0.92,1.57,-1.83,3.82,
1.738,0.71,-3.60,-2.73,1.57,-1.83,3.82,
1.738,0.71,-3.60,-2.73,1.57,-1.83,3.82,
1.774,0.71,-3.60,-2.73,1.62,-3.64,3.22,
1.775,0.71,-3.60,-2.73,1.62,-3.64,3.22,
1.775,2.29,-3.49,-3.99,1.62,-3.64,3.22,
1.776,2.29,-3.49,-3.99,1.62,-3.64,3.22,
1.812,2.29,-3.49,-3.99,1.72,-4.86,1.86,
1.813,2.29,-3.49,-3.99,1.72,-4.86,1.86,
1.814,2.63,-3.26,-4.32,1.72,-4.86,1.86,
1.814,2.63,-3.26,-4.32,1.72,-4.86,1.86,
1.852,2.63,-3.26,-4.32,1.88,-4.17,1.14,
1.853,2.63,-3.26,-4.32,1.88,-4.17,1.14,
1.854,3.03,-3.08,-4.56,1.88,-4.17,1.14,
1.855,3.03,-3.08,-4.56,1.88,-4.17,1.14,
1.888,3.03,-3.08,-4.56,1.66,-3.69,0.89,
1.889,3.03,-3.08,-4.56,1.66,-3.69,0.89,
1.89,2.84,-2.87,-6.51,1.66,-3.69,0.89,
1.89,2.84,-2.87,-6.51,1.66,-3.69,0.89,
1.926,2.84,-2.87,-6.51,1.18,-3.64,0.86,
1.928,2.84,-2.87,-6.51,1.18,-3.64,0.86,
1.928,0.92,-2.74,-6.24,1.18,-3.64,0.86,
1.929,0.92,-2.74,-6.24,1.18,-3.64,0.86,
1.965,0.92,-2.74,-6.24,0.50,-2.64,1.21,
1.966,0.92,-2.74,-6.24,0.50,-2.64,1.21,
1.967,0.45,-2.28,-5.80,0.50,-2.64,1.21,
1.967,0.45,-2.28,-5.80,0.50,-2.64,1.21,
2.002,0.45,-2.28,-5.80,0.23,-1.83,1.13,
2.003,0.45,-2.28,-5.80,0.23,-1.83,1.13,
2.003,-0.23,-1.71,-5.30,0.23,-1.83,1.13,
2.004,-0.23,-1.71,-5.30,0.23,-1.83,1.13,
2.039,-0.23,-1.71,-5.30,0.13,-0.73,1.14,
2.041,-0.23,-1.71,-5.30,0.13,-0.73,1.14,
2.041,-1.95,-1.34,-2.95,0.13,-0.73,1.14,
2.042,-1.95,-1.34,-2.95,0.13,-0.73,1.14,
2.077,-1.95,-1.34,-2.95,0.31,0.53,1.36,
2.078,-1.95,-1.34,-2.95,0.31,0.53,1.36,
2.078,-2.14,-1.30,-2.00,0.31,0.53,1.36,
2.079,-2.14,-1.30,-2.00,0.31,0.53,1.36,
2.128,-2.14,-1.30,-2.00,0.26,0.70,1.39,
2.129,-2.14,-1.30,-2.00,0.26,0.70,1.39,
2.129,-3.44,-1.32,-1.73,0.26,0.70,1.39,
2.13,-3.44,-1.32,-1.73,0.26,0.70,1.39,
2.153,-3.44,-1.32,-1.73,-0.24,0.88,2.21,
2.154,-3.44,-1.32,-1.73,-0.24,0.88,2.21,
2.155,-3.31,-2.99,-0.87,-0.24,0.88,2.21,
2.155,-3.31,-2.99,-0.87,-0.24,0.88,2.21,
2.191,-3.31,-2.99,-0.87,-0.67,1.08,1.93,
2.192,-3.31,-2.99,-0.87,-0.67,1.08,1.93,
2.193,-1.53,-3.08,-0.24,-0.67,1.08,1.93,
2.194,-1.53,-3.08,-0.24,-0.67,1.08,1.93,
2.229,-1.53,-3.08,-0.24,-0.31,0.62,0.70,
2.231,-1.53,-3.08,-0.24,-0.31,0.62,0.70,
2.231,-1.46,-2.75,0.00,-0.31,0.62,0.70,
2.232,-1.46,-2.75,0.00,-0.31,0.62,0.70,
2.268,-1.46,-2.75,0.00,-0.10,0.43,0.22,
2.27,-1.46,-2.75,0.00,-0.10,0.43,0.22,
2.27,-1.21,-2.20,0.54,-0.10,0.43,0.22,
2.272,-1.21,-2.20,0.54,-0.10,0.43,0.22,
2.306,-1.21,-2.20,0.54,0.29,0.16,-0.53,
2.307,-1.21,-2.20,0.54,0.29,0.16,-0.53,
2.307,-0.82,0.64,0.57,0.29,0.16,-0.53,
2.308,-0.82,0.64,0.57,0.29,0.16,-0.53,
2.343,-0.82,0.64,0.57,0.33,0.07,-0.95,
2.345,-0.82,0.64,0.57,0.33,0.07,-0.95,
2.345,-2.84,-0.74,0.47,0.33,0.07,-0.95,
2.346,-2.84,-0.74,0.47,0.33,0.07,-0.95,
2.381,-2.84,-0.74,0.47,-0.24,0.81,1.49,
2.383,-2.84,-0.74,0.47,-0.24,0.81,1.49,
2.383,-2.34,-3.01,0.55,-0.24,0.81,1.49,
2.384,-2.34,-3.01,0.55,-0.24,0.81,1.49,
2.419,-2.34,-3.01,0.55,-0.41,0.81,2.11,
2.42,-2.34,-3.01,0.55,-0.41,0.81,2.11,
2.421,-1.65,-3.04,0.43,-0.41,0.81,2.11,
2.421,-1.65,-3.04,0.43,-0.41,0.81,2.11,
2.456,-1.65,-3.04,0.43,-0.37,0.67,1.69,
2.457,-1.65,-3.04,0.43,-0.37,0.67,1.69,
2.458,-1.50,-4.84,0.45,-0.37,0.67,1.69,
2.459,-1.50,-4.84,0.45,-0.37,0.67,1.69,
2.495,-1.50,-4.84,0.45,-0.01,0.17,1.16,
2.496,-1.50,-4.84,0.45,-0.01,0.17,1.16,
2.497,-1.06,-2.56,0.54,-0.01,0.17,1.16,
2.497,-1.06,-2.56,0.54,-0.01,0.17,1.16,
2.533,-1.06,-2.56,0.54,0.34,-0.29,0.33,
2.534,-1.06,-2.56,0.54,0.34,-0.29,0.33,
2.535,-0.81,-0.34,0.39,0.34,-0.29,0.33,
2.535,-0.81,-0.34,0.39,0.34,-0.29,0.33,
2.574,-0.81,-0.34,0.39,0.46,-0.50,-0.43,
2.576,-0.81,-0.34,0.39,0.46,-0.50,-0.43,
2.577,-0.94,-0.41,0.33,0.46,-0.50,-0.43,
2.578,-0.94,-0.41,0.33,0.46,-0.50,-0.43,
2.609,-0.94,-0.41,0.33,0.31,-0.43,-0.47,
2.61,-0.94,-0.41,0.33,0.31,-0.43,-0.47,
2.611,-0.98,1.36,0.00,0.31,-0.43,-0.47,
2.611,-0.98,1.36,0.00,0.31,-0.43,-0.47,
2.646,-0.98,1.36,0.00,0.09,-0.27,-0.04,
2.647,-0.98,1.36,0.00,0.09,-0.27,-0.04,
2.648,-2.81,1.62,-0.08,0.09,-0.27,-0.04,
2.648,-2.81,1.62,-0.08,0.09,-0.27,-0.04,
2.685,-2.81,1.62,-0.08,0.03,0.26,0.95,
2.686,-2.81,1.62,-0.08,0.03,0.26,0.95,
2.686,-3.12,3.04,1.31,0.03,0.26,0.95,
2.687,-3.12,3.04,1.31,0.03,0.26,0.95,
2.723,-3.12,3.04,1.31,1.10,0.44,1.56,
2.724,-3.12,3.04,1.31,1.10,0.44,1.56,
2.724,-3.25,1.16,0.78,1.10,0.44,1.56,
2.725,-3.25,1.16,0.78,1.10,0.44,1.56,
2.761,-3.25,1.16,0.78,0.45,0.05,2.19,
2.762,-3.25,1.16,0.78,0.45,0.05,2.19,
2.762,-3.22,-0.35,0.57,0.45,0.05,2.19,
2.763,-3.22,-0.35,0.57,0.45,0.05,2.19,
2.799,-3.22,-0.35,0.57,0.14,-0.39,2.05,
2.8,-3.22,-0.35,0.57,0.14,-0.39,2.05,
2.8,-3.30,-0.50,0.50,0.14,-0.39,2.05,
2.801,-3.30,-0.50,0.50,0.14,-0.39,2.05,
2.836,-3.30,-0.50,0.50,-0.07,-1.13,1.65,
2.837,-3.30,-0.50,0.50,-0.07,-1.13,1.65,
2.838,-3.13,-0.68,-0.07,-0.07,-1.13,1.65,
2.838,-3.13,-0.68,-0.07,-0.07,-1.13,1.65,
2.877,-3.13,-0.68,-0.07,-0.08,-1.53,1.19,
2.878,-3.13,-0.68,-0.07,-0.08,-1.53,1.19,
2.878,-5.53,-3.20,1.16,-0.08,-1.53,1.19,
2.879,-5.53,-3.20,1.16,-0.08,-1.53,1.19,
2.913,-5.53,-3.20,1.16,0.41,-1.20,2.52,
2.914,-5.53,-3.20,1.16,0.41,-1.20,2.52,
2.915,-4.90,-3.00,0.93,0.41,-1.20,2.52,
2.916,-4.90,-3.00,0.93,0.41,-1.20,2.52,
2.951,-4.90,-3.00,0.93,0.26,-1.45,1.80,
2.952,-4.90,-3.00,0.93,0.26,-1.45,1.80,
2.953,-4.02,-2.89,0.75,0.26,-1.45,1.80,
2.954,-4.02,-2.89,0.75,0.26,-1.45,1.80,
2.988,-4.02,-2.89,0.75,0.05,-1.11,0.88,
2.989,-4.02,-2.89,0.75,0.05,-1.11,0.88,
2.99,-3.29,-3.05,0.47,0.05,-1.11,0.88,
2.99,-3.29,-3.05,0.47,0.05,-1.11,0.88,
3.026,-3.29,-3.05,0.47,0.05,-0.85,-0.02,
3.027,-3.29,-3.05,0.47,0.05,-0.85,-0.02,
3.028,-0.96,0.66,0.37,0.05,-0.85,-0.02,
3.028,-0.96,0.66,0.37,0.05,-0.85,-0.02,
3.067,-0.96,0.66,0.37,0.27,-0.65,-0.56,
3.069,-0.96,0.66,0.37,0.27,-0.65,-0.56,
3.069,-2.54,0.39,0.33,0.27,-0.65,-0.56,
3.07,-2.54,0.39,0.33,0.27,-0.65,-0.56,
3.102,-2.54,0.39,0.33,0.21,0.40,0.64,
3.103,-2.54,0.39,0.33,0.21,0.40,0.64,
3.104,-2.21,0.40,0.07,0.21,0.40,0.64,
3.105,-2.21,0.40,0.07,0.21,0.40,0.64,
3.152,-2.21,0.40,0.07,0.00,0.50,0.84,
3.153,-2.21,0.40,0.07,0.00,0.50,0.84,
3.154,-1.70,0.35,-0.04,0.00,0.50,0.84,
3.155,-1.70,0.35,-0.04,0.00,0.50,0.84,
3.178,-1.70,0.35,-0.04,-0.12,0.14,0.56,
3.179,-1.70,0.35,-0.04,-0.12,0.14,0.56,
3.18,-1.16,0.23,-0.11,-0.12,0.14,0.56,
3.181,-1.16,0.23,-0.11,-0.12,0.14,0.56,
3.217,-1.16,0.23,-0.11,-0.16,-0.24,0.22,
3.219,-1.16,0.23,-0.11,-0.16,-0.24,0.22,
3.22,-0.66,0.17,-0.14,-0.16,-0.24,0.22,
3.221,-0.66,0.17,-0.14,-0.16,-0.24,0.22,
3.254,-0.66,0.17,-0.14,-0.15,-0.40,0.03,
3.255,-0.66,0.17,-0.14,-0.15,-0.40,0.03,
3.256,-0.29,0.09,-0.18,-0.15,-0.40,0.03,
3.257,-0.29,0.09,-0.18,-0.15,-0.40,0.03,
3.292,-0.29,0.09,-0.18,-0.15,-0.52,-0.15,
3.294,-0.29,0.09,-0.18,-0.15,-0.52,-0.15,
3.295,0.10,-0.06,-0.22,-0.15,-0.52,-0.15,
3.296,0.10,-0.06,-0.22,-0.15,-0.52,-0.15,
3.331,0.10,-0.06,-0.22,-0.16,-0.57,-0.19,
3.332,0.10,-0.06,-0.22,-0.16,-0.57,-0.19,
3.334,0.33,-0.09,-0.25,-0.16,-0.57,-0.19,
3.335,0.33,-0.09,-0.25,-0.16,-0.57,-0.19,
3.369,0.33,-0.09,-0.25,-0.16,-0.69,-0.12,
3.37,0.33,-0.09,-0.25,-0.16,-0.69,-0.12,
3.371,0.36,-0.08,-0.27,-0.16,-0.69,-0.12,
3.372,0.36,-0.08,-0.27,-0.16,-0.69,-0.12,
3.407,0.36,-0.08,-0.27,-0.09,-0.57,-0.00,
3.408,0.36,-0.08,-0.27,-0.09,-0.57,-0.00,
3.409,0.24,-0.09,-0.15,-0.09,-0.57,-0.00,
3.409,0.24,-0.09,-0.15,-0.09,-0.57,-0.00,
3.444,0.24,-0.09,-0.15,0.02,-0.40,0.13,
3.445,0.24,-0.09,-0.15,0.02,-0.40,0.13,
3.446,-0.21,-0.07,0.07,0.02,-0.40,0.13,
3.446,-0.21,-0.07,0.07,0.02,-0.40,0.13,
3.485,-0.21,-0.07,0.07,0.24,0.14,0.48,
3.486,-0.21,-0.07,0.07,0.24,0.14,0.48,
3.487,-0.68,-0.12,0.27,0.24,0.14,0.48,
3.487,-0.68,-0.12,0.27,0.24,0.14,0.48,
3.52,-0.68,-0.12,0.27,0.36,0.61,0.61,
3.522,-0.68,-0.12,0.27,0.36,0.61,0.61,
3.522,-0.96,-0.08,0.42,0.36,0.61,0.61,
3.523,-0.96,-0.08,0.42,0.36,0.61,0.61,
3.558,-0.96,-0.08,0.42,0.42,0.68,0.51,
3.559,-0.96,-0.08,0.42,0.42,0.68,0.51,
3.56,-0.97,0.04,0.62,0.42,0.68,0.51,
3.56,-0.97,0.04,0.62,0.42,0.68,0.51,
3.596,-0.97,0.04,0.62,0.45,0.50,0.30,
3.597,-0.97,0.04,0.62,0.45,0.50,0.30,
3.597,-0.86,0.21,0.73,0.45,0.50,0.30,
3.598,-0.86,0.21,0.73,0.45,0.50,0.30,
3.634,-0.86,0.21,0.73,0.44,0.35,0.19,
3.635,-0.86,0.21,0.73,0.44,0.35,0.19,
3.636,-0.87,0.55,0.79,0.44,0.35,0.19,
3.636,-0.87,0.55,0.79,0.44,0.35,0.19,
3.673,-0.87,0.55,0.79,0.44,0.24,0.22,
3.674,-0.87,0.55,0.79,0.44,0.24,0.22,
3.675,-0.88,0.72,0.74,0.44,0.24,0.22,
3.675,-0.88,0.72,0.74,0.44,0.24,0.22,
3.71,-0.88,0.72,0.74,0.25,0.20,0.21,
3.711,-0.88,0.72,0.74,0.25,0.20,0.21,
3.712,-0.72,0.51,0.43,0.25,0.20,0.21,
3.712,-0.72,0.51,0.43,0.25,0.20,0.21,
3.748,-0.72,0.51,0.43,-0.19,-0.09,-0.01,
3.749,-0.72,0.51,0.43,-0.19,-0.09,-0.01,
3.75,-0.10,0.24,-0.06,-0.19,-0.09,-0.01,
3.751,-0.10,0.24,-0.06,-0.19,-0.09,-0.01,
3.786,-0.10,0.24,-0.06,-0.59,-0.38,-0.43,
3.788,-0.10,0.24,-0.06,-0.59,-0.38,-0.43,
3.789,0.53,-0.12,-0.45,-0.59,-0.38,-0.43,
3.789,0.53,-0.12,-0.45,-0.59,-0.38,-0.43,
3.824,0.53,-0.12,-0.45,-0.73,-0.45,-0.67,
3.825,0.53,-0.12,-0.45,-0.73,-0.45,-0.67,
3.826,0.94,-0.40,-0.78,-0.73,-0.45,-0.67,
3.827,0.94,-0.40,-0.78,-0.73,-0.45,-0.67,
3.866,0.94,-0.40,-0.78,-0.77,-0.52,-0.72,
3.867,0.94,-0.40,-0.78,-0.77,-0.52,-0.72,
3.867,1.08,-0.35,-0.95,-0.77,-0.52,-0.72,
3.868,1.08,-0.35,-0.95,-0.77,-0.52,-0.72,
3.9,1.08,-0.35,-0.95,-0.52,-0.38,-0.43,
3.901,1.08,-0.35,-0.95,-0.52,-0.38,-0.43,
3.902,0.83,-0.23,-0.78,-0.52,-0.38,-0.43,
3.902,0.83,-0.23,-0.78,-0.52,-0.38,-0.43,
3.938,0.83,-0.23,-0.78,-0.16,-0.05,-0.07,
3.939,0.83,-0.23,-0.78,-0.16,-0.05,-0.07,
3.939,0.57,-0.12,-0.60,-0.16,-0.05,-0.07,
3.94,0.57,-0.12,-0.60,-0.16,-0.05,-0.07,
3.975,0.57,-0.12,-0.60,0.07,0.15,0.14,
3.976,0.57,-0.12,-0.60,0.07,0.15,0.14,
3.976,0.37,-0.03,-0.42,0.07,0.15,0.14,
3.977,0.37,-0.03,-0.42,0.07,0.15,0.14,
4.014,0.37,-0.03,-0.42,0.14,0.11,0.21,
4.015,0.37,-0.03,-0.42,0.14,0.11,0.21,
4.015,0.21,0.01,-0.34,0.14,0.11,0.21,
4.016,0.21,0.01,-0.34,0.14,0.11,0.21,
4.051,0.21,0.01,-0.34,0.13,0.15,0.23,
4.053,0.21,0.01,-0.34,0.13,0.15,0.23,
4.054,0.02,0.05,-0.26,0.13,0.15,0.23,
4.054,0.02,0.05,-0.26,0.13,0.15,0.23,
4.09,0.02,0.05,-0.26,0.07,0.11,0.22,
4.091,0.02,0.05,-0.26,0.07,0.11,0.22,
4.091,-0.12,0.09,-0.19,0.07,0.11,0.22,
4.092,-0.12,0.09,-0.19,0.07,0.11,0.22,
4.141,-0.12,0.09,-0.19,0.00,0.03,0.18,
4.142,-0.12,0.09,-0.19,0.00,0.03,0.18,
4.142,-0.21,0.12,-0.12,0.00,0.03,0.18,
4.143,-0.21,0.12,-0.12,0.00,0.03,0.18,
4.167,-0.21,0.12,-0.12,-0.02,-0.03,0.11,
4.169,-0.21,0.12,-0.12,-0.02,-0.03,0.11,
4.17,-0.23,0.13,-0.04,-0.02,-0.03,0.11,
4.17,-0.23,0.13,-0.04,-0.02,-0.03,0.11,
4.204,-0.23,0.13,-0.04,-0.02,-0.08,0.06,
4.205,-0.23,0.13,-0.04,-0.02,-0.08,0.06,
4.205,-0.20,0.15,0.02,-0.02,-0.08,0.06,
4.206,-0.20,0.15,0.02,-0.02,-0.08,0.06,
4.242,-0.20,0.15,0.02,0.01,-0.06,0.02,
4.243,-0.20,0.15,0.02,0.01,-0.06,0.02,
4.244,-0.17,0.14,0.07,0.01,-0.06,0.02,
4.245,-0.17,0.14,0.07,0.01,-0.06,0.02,
4.284,-0.17,0.14,0.07,0.05,0.00,-0.00,
4.285,-0.17,0.14,0.07,0.05,0.00,-0.00,
4.285,-0.12,0.13,0.06,0.05,0.00,-0.00,
4.286,-0.12,0.13,0.06,0.05,0.00,-0.00,
4.317,-0.12,0.13,0.06,0.02,0.00,-0.00,
4.318,-0.12,0.13,0.06,0.02,0.00,-0.00,
4.319,-0.08,0.13,0.05,0.02,0.00,-0.00,
4.32,-0.08,0.13,0.05,0.02,0.00,-0.00,
4.356,-0.08,0.13,0.05,0.01,0.00,-0.00,
4.357,-0.08,0.13,0.05,0.01,0.00,-0.00,
4.358,-0.04,0.12,0.04,0.01,0.00,-0.00,
4.36,-0.04,0.12,0.04,0.01,0.00,-0.00,
4.393,-0.04,0.12,0.04,0.01,0.00,-0.00,
4.394,-0.04,0.12,0.04,0.01,0.00,-0.00,
4.395,-0.01,0.12,0.03,0.01,0.00,-0.00,
4.395,-0.01,0.12,0.03,0.01,0.00,-0.00,
4.431,-0.01,0.12,0.03,0.00,0.00,-0.00,
4.433,-0.01,0.12,0.03,0.00,0.00,-0.00,
4.433,0.01,0.11,0.02,0.00,0.00,-0.00,
4.434,0.01,0.11,0.02,0.00,0.00,-0.00,
4.469,0.01,0.11,0.02,0.00,0.00,0.00,
4.47,0.01,0.11,0.02,0.00,0.00,0.00,
4.471,0.02,0.11,0.01,0.00,0.00,0.00,
4.471,0.02,0.11,0.01,0.00,0.00,0.00,
4.507,0.02,0.11,0.01,0.00,0.00,-0.00,
4.509,0.02,0.11,0.01,0.00,0.00,-0.00,
4.509,0.02,0.11,0.00,0.00,0.00,-0.00,
4.51,0.02,0.11,0.00,0.00,0.00,-0.00,
4.546,0.02,0.11,0.00,0.00,0.00,0.00,
4.547,0.02,0.11,0.00,0.00,0.00,0.00,
4.548,0.01,0.11,-0.00,0.00,0.00,0.00,
4.548,0.01,0.11,-0.00,0.00,0.00,0.00,
4.583,0.01,0.11,-0.00,-0.00,0.00,-0.00,
4.585,0.01,0.11,-0.00,-0.00,0.00,-0.00,
4.588,0.01,0.11,-0.01,-0.00,0.00,-0.00,
4.589,0.01,0.11,-0.01,-0.00,0.00,-0.00,
4.621,0.01,0.11,-0.01,-0.00,-0.00,0.00,
4.622,0.01,0.11,-0.01,-0.00,-0.00,0.00,
4.623,0.01,0.11,-0.01,-0.00,-0.00,0.00,
4.623,0.01,0.11,-0.01,-0.00,-0.00,0.00,
4.669,0.01,0.11,-0.01,0.00,0.00,0.00,
4.671,0.01,0.11,-0.01,0.00,0.00,0.00,
4.671,0.01,0.11,-0.02,0.00,0.00,0.00,
4.673,0.01,0.11,-0.02,0.00,0.00,0.00,
4.698,0.01,0.11,-0.02,-0.00,0.00,0.00,
4.7,0.01,0.11,-0.02,-0.00,0.00,0.00,
4.701,0.01,0.11,-0.02,-0.00,0.00,0.00,
4.703,0.01,0.11,-0.02,-0.00,0.00,0.00,
4.736,0.01,0.11,-0.02,-0.00,-0.00,-0.00,
4.737,0.01,0.11,-0.02,-0.00,-0.00,-0.00,
4.738,0.01,0.11,-0.02,-0.00,-0.00,-0.00,
4.738,0.01,0.11,-0.02,-0.00,-0.00,-0.00,
4.773,0.01,0.11,-0.02,0.00,0.00,-0.00,
4.774,0.01,0.11,-0.02,0.00,0.00,-0.00,
4.774,0.01,0.11,-0.02,0.00,0.00,-0.00,
4.775,0.01,0.11,-0.02,0.00,0.00,-0.00,
4.811,0.01,0.11,-0.02,0.00,-0.00,0.00,
4.812,0.01,0.11,-0.02,0.00,-0.00,0.00,
4.813,0.01,0.11,-0.02,0.00,-0.00,0.00,
4.814,0.01,0.11,-0.02,0.00,-0.00,0.00,
4.85,0.01,0.11,-0.02,0.00,-0.00,-0.00,
4.851,0.01,0.11,-0.02,0.00,-0.00,-0.00,
4.852,0.01,0.11,-0.02,0.00,-0.00,-0.00,
4.852,0.01,0.11,-0.02,0.00,-0.00,-0.00,
4.886,0.01,0.11,-0.02,-0.00,-0.00,-0.00,
4.888,0.01,0.11,-0.02,-0.00,-0.00,-0.00,
4.889,0.01,0.11,-0.02,-0.00,-0.00,-0.00,
4.89,0.01,0.11,-0.02,-0.00,-0.00,-0.00,
4.926,0.01,0.11,-0.02,-0.00,-0.00,-0.00,
4.927,0.01,0.11,-0.02,-0.00,-0.00,-0.00,
4.928,0.01,0.11,-0.02,-0.00,-0.00,-0.00,
4.928,0.01,0.11,-0.02,-0.00,-0.00,-0.00,
4.966,0.01,0.11,-0.02,0.00,0.00,-0.00,
4.969,0.01,0.11,-0.02,0.00,0.00,-0.00,
4.97,0.01,0.11,-0.02,0.00,0.00,-0.00,
4.971,0.01,0.11,-0.02,0.00,0.00,-0.00,
5.001,0.01,0.11,-0.02,0.00,-0.00,-0.00,
5.002,0.01,0.11,-0.02,0.00,-0.00,-0.00,
5.003,0.01,0.11,-0.02,0.00,-0.00,-0.00,
5.004,0.01,0.11,-0.02,0.00,-0.00,-0.00,
5.038,0.01,0.11,-0.02,-0.00,0.00,0.00,
5.04,0.01,0.11,-0.02,-0.00,0.00,0.00,
5.041,0.01,0.11,-0.02,-0.00,0.00,0.00,
5.042,0.01,0.11,-0.02,-0.00,0.00,0.00,
5.08,0.01,0.11,-0.02,-0.00,0.00,-0.00,
5.081,0.01,0.11,-0.02,-0.00,0.00,-0.00,
5.081,0.01,0.11,-0.02,-0.00,0.00,-0.00,
5.082,0.01,0.11,-0.02,-0.00,0.00,-0.00,
5.127,0.01,0.11,-0.02,0.00,-0.00,-0.00,
5.128,0.01,0.11,-0.02,0.00,-0.00,-0.00,
5.129,0.13,0.09,0.24,0.00,-0.00,-0.00,
5.129,0.13,0.09,0.24,0.00,-0.00,-0.00,
5.153,0.13,0.09,0.24,0.00,-0.00,0.00,
5.154,0.13,0.09,0.24,0.00,-0.00,0.00,
5.154,0.27,0.08,0.37,0.00,-0.00,0.00,
5.155,0.27,0.08,0.37,0.00,-0.00,0.00,
5.19,0.27,0.08,0.37,0.00,0.00,-0.00,
5.191,0.27,0.08,0.37,0.00,0.00,-0.00,
5.192,0.36,0.05,0.48,0.00,0.00,-0.00,
5.193,0.36,0.05,0.48,0.00,0.00,-0.00,
5.229,0.36,0.05,0.48,0.30,-0.01,-0.21,
5.231,0.36,0.05,0.48,0.30,-0.01,-0.21,
5.231,0.32,-0.05,0.58,0.30,-0.01,-0.21,
5.232,0.32,-0.05,0.58,0.30,-0.01,-0.21,
5.266,0.32,-0.05,0.58,0.23,0.05,-0.16,
5.268,0.32,-0.05,0.58,0.23,0.05,-0.16,
5.269,0.35,-0.10,0.50,0.23,0.05,-0.16,
5.27,0.35,-0.10,0.50,0.23,0.05,-0.16,
5.305,0.35,-0.10,0.50,0.15,0.16,-0.19,
5.306,0.35,-0.10,0.50,0.15,0.16,-0.19,
5.306,0.53,-0.12,0.46,0.15,0.16,-0.19,
5.307,0.53,-0.12,0.46,0.15,0.16,-0.19,
5.342,0.53,-0.12,0.46,0.04,0.01,-0.34,
5.344,0.53,-0.12,0.46,0.04,0.01,-0.34,
5.344,0.77,-0.21,0.31,0.04,0.01,-0.34,
5.345,0.77,-0.21,0.31,0.04,0.01,-0.34,
5.387,0.77,-0.21,0.31,-0.16,0.10,-0.50,
5.388,0.77,-0.21,0.31,-0.16,0.10,-0.50,
5.389,0.95,-0.27,-0.12,-0.16,0.10,-0.50,
5.389,0.95,-0.27,-0.12,-0.16,0.10,-0.50,
5.419,0.95,-0.27,-0.12,-0.37,0.31,-0.55,
5.422,0.95,-0.27,-0.12,-0.37,0.31,-0.55,
5.423,0.98,-0.20,-0.37,-0.37,0.31,-0.55,
5.424,0.98,-0.20,-0.37,-0.37,0.31,-0.55,
5.456,0.98,-0.20,-0.37,-0.41,0.40,-0.39,
5.457,0.98,-0.20,-0.37,-0.41,0.40,-0.39,
5.458,0.72,-0.04,-0.55,-0.41,0.40,-0.39,
5.459,0.72,-0.04,-0.55,-0.41,0.40,-0.39,
5.495,0.72,-0.04,-0.55,-0.36,0.53,-0.19,
5.497,0.72,-0.04,-0.55,-0.36,0.53,-0.19,
5.498,0.42,0.23,-0.58,-0.36,0.53,-0.19,
5.499,0.42,0.23,-0.58,-0.36,0.53,-0.19,
5.533,0.42,0.23,-0.58,-0.12,0.70,0.08,
5.535,0.42,0.23,-0.58,-0.12,0.70,0.08,
5.535,0.19,0.57,-0.39,-0.12,0.70,0.08,
5.536,0.19,0.57,-0.39,-0.12,0.70,0.08,
5.571,0.19,0.57,-0.39,0.15,0.67,0.17,
5.572,0.19,0.57,-0.39,0.15,0.67,0.17,
5.574,0.08,0.79,-0.21,0.15,0.67,0.17,
5.575,0.08,0.79,-0.21,0.15,0.67,0.17,
5.608,0.08,0.79,-0.21,0.26,0.43,0.10,
5.609,0.08,0.79,-0.21,0.26,0.43,0.10,
5.61,0.13,0.92,-0.17,0.26,0.43,0.10,
5.61,0.13,0.92,-0.17,0.26,0.43,0.10,
5.646,0.13,0.92,-0.17,0.21,0.12,-0.09,
5.648,0.13,0.92,-0.17,0.21,0.12,-0.09,
5.649,0.35,0.85,-0.08,0.21,0.12,-0.09,
5.65,0.35,0.85,-0.08,0.21,0.12,-0.09,
5.686,0.35,0.85,-0.08,0.17,-0.10,-0.26,
5.687,0.35,0.85,-0.08,0.17,-0.10,-0.26,
5.688,0.52,0.55,0.06,0.17,-0.10,-0.26,
5.689,0.52,0.55,0.06,0.17,-0.10,-0.26,
5.722,0.52,0.55,0.06,0.20,-0.37,-0.46,
5.724,0.52,0.55,0.06,0.20,-0.37,-0.46,
5.724,0.77,0.07,0.34,0.20,-0.37,-0.46,
5.725,0.77,0.07,0.34,0.20,-0.37,-0.46,
5.76,0.77,0.07,0.34,0.24,-0.52,-0.48,
5.763,0.77,0.07,0.34,0.24,-0.52,-0.48,
5.764,0.83,-1.40,0.73,0.24,-0.52,-0.48,
5.765,0.83,-1.40,0.73,0.24,-0.52,-0.48,
5.804,0.83,-1.40,0.73,0.20,0.25,0.24,
5.805,0.83,-1.40,0.73,0.20,0.25,0.24,
5.805,-1.43,-1.80,0.86,0.20,0.25,0.24,
5.806,-1.43,-1.80,0.86,0.20,0.25,0.24,
5.836,-1.43,-1.80,0.86,0.13,0.92,1.04,
5.837,-1.43,-1.80,0.86,0.13,0.92,1.04,
5.838,-1.29,-2.28,0.77,0.13,0.92,1.04,
5.838,-1.29,-2.28,0.77,0.13,0.92,1.04,
5.874,-1.29,-2.28,0.77,0.00,0.64,0.87,
5.876,-1.29,-2.28,0.77,0.00,0.64,0.87,
5.877,-1.25,-2.50,0.49,0.00,0.64,0.87,
5.878,-1.25,-2.50,0.49,0.00,0.64,0.87,
5.912,-1.25,-2.50,0.49,-0.31,0.34,0.55,
5.913,-1.25,-2.50,0.49,-0.31,0.34,0.55,
5.914,-1.38,-2.47,-0.07,-0.31,0.34,0.55,
5.914,-1.38,-2.47,-0.07,-0.31,0.34,0.55,
5.95,-1.38,-2.47,-0.07,-0.56,0.21,0.26,
5.952,-1.38,-2.47,-0.07,-0.56,0.21,0.26,
5.953,-0.81,-2.26,-0.50,-0.56,0.21,0.26,
5.954,-0.81,-2.26,-0.50,-0.56,0.21,0.26,
5.988,-0.81,-2.26,-0.50,-0.59,0.34,-0.07,
5.989,-0.81,-2.26,-0.50,-0.59,0.34,-0.07,
5.99,-0.65,-2.00,-0.69,-0.59,0.34,-0.07,
5.991,-0.65,-2.00,-0.69,-0.59,0.34,-0.07,
6.026,-0.65,-2.00,-0.69,-0.46,1.03,-0.04,
6.028,-0.65,-2.00,-0.69,-0.46,1.03,-0.04,
6.03,-1.08,-2.01,-0.94,-0.46,1.03,-0.04,
6.031,-1.08,-2.01,-0.94,-0.46,1.03,-0.04,
6.064,-1.08,-2.01,-0.94,-0.34,1.69,0.30,
6.067,-1.08,-2.01,-0.94,-0.34,1.69,0.30,
6.068,-2.47,-1.96,-1.06,-0.34,1.69,0.30,
6.069,-2.47,-1.96,-1.06,-0.34,1.69,0.30,
6.102,-2.47,-1.96,-1.06,-0.10,2.48,1.02,
6.103,-2.47,-1.96,-1.06,-0.10,2.48,1.02,
6.104,-2.38,-1.66,-1.14,-0.10,2.48,1.02,
6.105,-2.38,-1.66,-1.14,-0.10,2.48,1.02,
6.152,-2.38,-1.66,-1.14,-0.12,1.65,0.43,
6.155,-2.38,-1.66,-1.14,-0.12,1.65,0.43,
6.156,-0.26,-1.34,-1.08,-0.12,1.65,0.43,
6.157,-0.26,-1.34,-1.08,-0.12,1.65,0.43,
6.185,-0.26,-1.34,-1.08,-0.25,0.56,-0.71,
6.186,-0.26,-1.34,-1.08,-0.25,0.56,-0.71,
6.186,0.31,-1.10,-1.12,-0.25,0.56,-0.71,
6.187,0.31,-1.10,-1.12,-0.25,0.56,-0.71,
6.216,0.31,-1.10,-1.12,-0.38,0.26,-1.38,
6.217,0.31,-1.10,-1.12,-0.38,0.26,-1.38,
6.218,2.01,-0.89,-1.33,-0.38,0.26,-1.38,
6.218,2.01,-0.89,-1.33,-0.38,0.26,-1.38,
6.254,2.01,-0.89,-1.33,-0.52,-0.07,-1.88,
6.257,2.01,-0.89,-1.33,-0.52,-0.07,-1.88,
6.258,2.25,-0.70,-1.52,-0.52,-0.07,-1.88,
6.259,2.25,-0.70,-1.52,-0.52,-0.07,-1.88,
6.292,2.25,-0.70,-1.52,-0.63,-0.46,-1.53,
6.294,2.25,-0.70,-1.52,-0.63,-0.46,-1.53,
6.295,1.82,-0.23,-1.74,-0.63,-0.46,-1.53,
6.296,1.82,-0.23,-1.74,-0.63,-0.46,-1.53,
6.33,1.82,-0.23,-1.74,-0.75,-0.78,-0.67,
6.332,1.82,-0.23,-1.74,-0.75,-0.78,-0.67,
6.333,1.16,1.66,-1.62,-0.75,-0.78,-0.67,
6.335,1.16,1.66,-1.62,-0.75,-0.78,-0.67,
6.368,1.16,1.66,-1.62,-0.66,-1.00,0.13,
6.37,1.16,1.66,-1.62,-0.66,-1.00,0.13,
6.371,0.54,3.21,-1.23,-0.66,-1.00,0.13,
6.372,0.54,3.21,-1.23,-0.66,-1.00,0.13,
6.405,0.54,3.21,-1.23,-0.45,-0.97,0.73,
6.407,0.54,3.21,-1.23,-0.45,-0.97,0.73,
6.407,0.09,3.78,-0.94,-0.45,-0.97,0.73,
6.408,0.09,3.78,-0.94,-0.45,-0.97,0.73,
6.445,0.09,3.78,-0.94,-0.37,-0.85,0.95,
6.447,0.09,3.78,-0.94,-0.37,-0.85,0.95,
6.448,-0.03,4.34,-1.01,-0.37,-0.85,0.95,
6.449,-0.03,4.34,-1.01,-0.37,-0.85,0.95,
6.487,-0.03,4.34,-1.01,-1.59,-0.80,0.69,
6.489,-0.03,4.34,-1.01,-1.59,-0.80,0.69,
6.49,0.07,4.56,-2.71,-1.59,-0.80,0.69,
6.492,0.07,4.56,-2.71,-1.59,-0.80,0.69,
6.52,0.07,4.56,-2.71,-3.14,-0.93,-0.15,
6.521,0.07,4.56,-2.71,-3.14,-0.93,-0.15,
6.522,0.32,4.35,-2.86,-3.14,-0.93,-0.15,
6.523,0.32,4.35,-2.86,-3.14,-0.93,-0.15,
6.558,0.32,4.35,-2.86,-3.09,-1.04,-0.99,
6.56,0.32,4.35,-2.86,-3.09,-1.04,-0.99,
6.561,0.42,2.65,-4.54,-3.09,-1.04,-0.99,
6.563,0.42,2.65,-4.54,-3.09,-1.04,-0.99,
6.602,0.42,2.65,-4.54,-2.54,-0.93,-1.20,
6.603,0.42,2.65,-4.54,-2.54,-0.93,-1.20,
6.604,0.40,2.23,-4.76,-2.54,-0.93,-1.20,
6.605,0.40,2.23,-4.76,-2.54,-0.93,-1.20,
6.634,0.40,2.23,-4.76,-1.88,-0.75,-0.96,
6.636,0.40,2.23,-4.76,-1.88,-0.75,-0.96,
6.637,0.15,1.91,-4.66,-1.88,-0.75,-0.96,
6.638,0.15,1.91,-4.66,-1.88,-0.75,-0.96,
6.671,0.15,1.91,-4.66,-1.16,-0.69,-0.45,
6.672,0.15,1.91,-4.66,-1.16,-0.69,-0.45,
6.673,-0.14,1.62,-4.24,-1.16,-0.69,-0.45,
6.673,-0.14,1.62,-4.24,-1.16,-0.69,-0.45,
6.71,-0.14,1.62,-4.24,-0.50,-0.74,-0.08,
6.711,-0.14,1.62,-4.24,-0.50,-0.74,-0.08,
6.712,-0.43,1.12,-2.89,-0.50,-0.74,-0.08,
6.712,-0.43,1.12,-2.89,-0.50,-0.74,-0.08,
6.748,-0.43,1.12,-2.89,0.54,-0.26,0.41,
6.751,-0.43,1.12,-2.89,0.54,-0.26,0.41,
6.752,-0.69,0.65,-0.52,0.54,-0.26,0.41,
6.753,-0.69,0.65,-0.52,0.54,-0.26,0.41,
6.787,-0.69,0.65,-0.52,1.52,0.52,0.91,
6.788,-0.69,0.65,-0.52,1.52,0.52,0.91,
6.789,-0.68,0.01,0.49,1.52,0.52,0.91,
6.789,-0.68,0.01,0.49,1.52,0.52,0.91,
6.823,-0.68,0.01,0.49,1.71,0.88,0.91,
6.826,-0.68,0.01,0.49,1.71,0.88,0.91,
6.827,-0.48,-0.68,1.38,1.71,0.88,0.91,
6.829,-0.48,-0.68,1.38,1.71,0.88,0.91,
6.862,-0.48,-0.68,1.38,1.90,1.23,0.51,
6.866,-0.48,-0.68,1.38,1.90,1.23,0.51,
6.867,-0.01,-1.33,2.14,1.90,1.23,0.51,
6.868,-0.01,-1.33,2.14,1.90,1.23,0.51,
6.903,-0.01,-1.33,2.14,1.69,0.88,-0.61,
6.904,-0.01,-1.33,2.14,1.69,0.88,-0.61,
6.905,1.78,-1.82,2.55,1.69,0.88,-0.61,
6.905,1.78,-1.82,2.55,1.69,0.88,-0.61,
6.938,1.78,-1.82,2.55,1.43,0.10,-1.64,
6.94,1.78,-1.82,2.55,1.43,0.10,-1.64,
6.941,1.99,-2.26,2.81,1.43,0.10,-1.64,
6.942,1.99,-2.26,2.81,1.43,0.10,-1.64,
6.986,1.99,-2.26,2.81,1.29,-0.37,-1.47,
6.987,1.99,-2.26,2.81,1.29,-0.37,-1.47,
6.987,2.20,-2.45,2.92,1.29,-0.37,-1.47,
6.987,2.20,-2.45,2.92,1.29,-0.37,-1.47,
7.014,2.20,-2.45,2.92,1.21,-0.64,-1.20,
7.016,2.20,-2.45,2.92,1.21,-0.64,-1.20,
7.018,2.21,-2.13,3.06,1.21,-0.64,-1.20,
7.018,2.21,-2.13,3.06,1.21,-0.64,-1.20,
7.052,2.21,-2.13,3.06,1.03,-0.92,-0.84,
7.054,2.21,-2.13,3.06,1.03,-0.92,-0.84,
7.055,1.71,-0.07,3.13,1.03,-0.92,-0.84,
7.056,1.71,-0.07,3.13,1.03,-0.92,-0.84,
7.089,1.71,-0.07,3.13,0.92,-0.73,-0.32,
7.092,1.71,-0.07,3.13,0.92,-0.73,-0.32,
7.093,0.86,0.57,2.86,0.92,-0.73,-0.32,
7.094,0.86,0.57,2.86,0.92,-0.73,-0.32,
7.139,0.86,0.57,2.86,0.66,-0.22,0.41,
7.141,0.86,0.57,2.86,0.66,-0.22,0.41,
7.141,0.02,1.23,2.40,0.66,-0.22,0.41,
7.142,0.02,1.23,2.40,0.66,-0.22,0.41,
7.166,0.02,1.23,2.40,0.47,0.01,0.79,
7.167,0.02,1.23,2.40,0.47,0.01,0.79,
7.168,-0.39,1.48,2.09,0.47,0.01,0.79,
7.168,-0.39,1.48,2.09,0.47,0.01,0.79,
7.203,-0.39,1.48,2.09,0.36,0.13,0.79,
7.205,-0.39,1.48,2.09,0.36,0.13,0.79,
7.205,-0.48,1.21,1.74,0.36,0.13,0.79,
7.206,-0.48,1.21,1.74,0.36,0.13,0.79,
7.241,-0.48,1.21,1.74,0.42,0.32,0.30,
7.244,-0.48,1.21,1.74,0.42,0.32,0.30,
7.244,-0.22,0.81,1.69,0.42,0.32,0.30,
7.245,-0.22,0.81,1.69,0.42,0.32,0.30,
7.279,-0.22,0.81,1.69,0.70,0.32,-0.27,
7.281,-0.22,0.81,1.69,0.70,0.32,-0.27,
7.282,-0.02,0.52,1.95,0.70,0.32,-0.27,
7.284,-0.02,0.52,1.95,0.70,0.32,-0.27,
7.317,-0.02,0.52,1.95,0.98,0.43,-0.44,
7.318,-0.02,0.52,1.95,0.98,0.43,-0.44,
7.319,-0.23,0.29,2.19,0.98,0.43,-0.44,
7.32,-0.23,0.29,2.19,0.98,0.43,-0.44,
7.356,-0.23,0.29,2.19,1.10,0.72,-0.12,
7.357,-0.23,0.29,2.19,1.10,0.72,-0.12,
7.358,-0.58,0.16,2.42,1.10,0.72,-0.12,
7.358,-0.58,0.16,2.42,1.10,0.72,-0.12,
7.399,-0.58,0.16,2.42,1.12,0.88,0.20,
7.401,-0.58,0.16,2.42,1.12,0.88,0.20,
7.402,-0.89,-0.14,2.71,1.12,0.88,0.20,
7.403,-0.89,-0.14,2.71,1.12,0.88,0.20,
7.431,-0.89,-0.14,2.71,1.08,0.96,0.51,
7.433,-0.89,-0.14,2.71,1.08,0.96,0.51,
7.433,-1.00,-0.66,2.58,1.08,0.96,0.51,
7.434,-1.00,-0.66,2.58,1.08,0.96,0.51,
7.469,-1.00,-0.66,2.58,0.69,0.63,0.53,
7.472,-1.00,-0.66,2.58,0.69,0.63,0.53,
7.472,-0.92,-1.30,2.13,0.69,0.63,0.53,
7.473,-0.92,-1.30,2.13,0.69,0.63,0.53,
7.506,-0.92,-1.30,2.13,0.15,0.29,0.37,
7.509,-0.92,-1.30,2.13,0.15,0.29,0.37,
7.51,-0.79,-1.94,1.45,0.15,0.29,0.37,
7.511,-0.79,-1.94,1.45,0.15,0.29,0.37,
7.546,-0.79,-1.94,1.45,-0.62,0.11,0.28,
7.548,-0.79,-1.94,1.45,-0.62,0.11,0.28,
7.549,-0.94,-2.39,-0.36,-0.62,0.11,0.28,
7.55,-0.94,-2.39,-0.36,-0.62,0.11,0.28,
7.583,-0.94,-2.39,-0.36,-1.21,0.22,0.32,
7.584,-0.94,-2.39,-0.36,-1.21,0.22,0.32,
7.584,-1.14,-2.59,-1.00,-1.21,0.22,0.32,
7.585,-1.14,-2.59,-1.00,-1.21,0.22,0.32,
7.622,-1.14,-2.59,-1.00,-1.30,0.87,0.41,
7.624,-1.14,-2.59,-1.00,-1.30,0.87,0.41,
7.625,-1.17,-2.48,-1.65,-1.30,0.87,0.41,
7.625,-1.17,-2.48,-1.65,-1.30,0.87,0.41,
7.659,-1.17,-2.48,-1.65,-1.04,1.34,0.40,
7.662,-1.17,-2.48,-1.65,-1.04,1.34,0.40,
7.663,-1.05,-2.19,-1.89,-1.04,1.34,0.40,
7.664,-1.05,-2.19,-1.89,-1.04,1.34,0.40,
7.7,-1.05,-2.19,-1.89,-0.56,1.62,0.28,
7.701,-1.05,-2.19,-1.89,-0.56,1.62,0.28,
7.702,-0.73,-1.85,-1.55,-0.56,1.62,0.28,
7.702,-0.73,-1.85,-1.55,-0.56,1.62,0.28,
7.735,-0.73,-1.85,-1.55,-0.13,1.61,0.05,
7.737,-0.73,-1.85,-1.55,-0.13,1.61,0.05,
7.737,-0.34,-1.38,-1.30,-0.13,1.61,0.05,
7.738,-0.34,-1.38,-1.30,-0.13,1.61,0.05,
7.773,-0.34,-1.38,-1.30,0.02,1.23,-0.12,
7.775,-0.34,-1.38,-1.30,0.02,1.23,-0.12,
7.776,-0.01,-0.91,-1.05,0.02,1.23,-0.12,
7.777,-0.01,-0.91,-1.05,0.02,1.23,-0.12,
7.812,-0.01,-0.91,-1.05,0.01,0.25,-0.32,
7.813,-0.01,-0.91,-1.05,0.01,0.25,-0.32,
7.814,0.25,-0.41,-1.03,0.01,0.25,-0.32,
7.814,0.25,-0.41,-1.03,0.01,0.25,-0.32,
7.849,0.25,-0.41,-1.03,-0.24,-0.48,-0.37,
7.85,0.25,-0.41,-1.03,-0.24,-0.48,-0.37,
7.851,0.34,0.20,-1.17,-0.24,-0.48,-0.37,
7.852,0.34,0.20,-1.17,-0.24,-0.48,-0.37,
7.886,0.34,0.20,-1.17,-0.44,-1.07,-0.29,
7.887,0.34,0.20,-1.17,-0.44,-1.07,-0.29,
7.887,0.26,1.64,-0.87,-0.44,-1.07,-0.29,
7.888,0.26,1.64,-0.87,-0.44,-1.07,-0.29,
7.924,0.26,1.64,-0.87,-0.43,-1.46,-0.16,
7.926,0.26,1.64,-0.87,-0.43,-1.46,-0.16,
7.926,-0.01,2.08,-0.62,-0.43,-1.46,-0.16,
7.927,-0.01,2.08,-0.62,-0.43,-1.46,-0.16,
7.963,-0.01,2.08,-0.62,-0.40,-1.38,0.28,
7.965,-0.01,2.08,-0.62,-0.40,-1.38,0.28,
7.967,-0.29,3.54,-0.43,-0.40,-1.38,0.28,
7.968,-0.29,3.54,-0.43,-0.40,-1.38,0.28,
8.0,-0.29,3.54,-0.43,-0.53,-0.93,0.61,
8.002,-0.29,3.54,-0.43,-0.53,-0.93,0.61,
8.002,-0.33,3.82,-0.51,-0.53,-0.93,0.61,
8.003,-0.33,3.82,-0.51,-0.53,-0.93,0.61,
8.039,-0.33,3.82,-0.51,-1.45,-0.65,0.47,
8.04,-0.33,3.82,-0.51,-1.45,-0.65,0.47,
8.041,-0.21,4.00,-2.11,-1.45,-0.65,0.47,
8.041,-0.21,4.00,-2.11,-1.45,-0.65,0.47,
8.076,-0.21,4.00,-2.11,-2.65,-0.66,-0.10,
8.078,-0.21,4.00,-2.11,-2.65,-0.66,-0.10,
8.08,0.09,4.06,-2.31,-2.65,-0.66,-0.10,
8.08,0.09,4.06,-2.31,-2.65,-0.66,-0.10,
8.127,0.09,4.06,-2.31,-2.58,-0.67,-0.56,
8.129,0.09,4.06,-2.31,-2.58,-0.67,-0.56,
8.13,0.33,3.98,-2.80,-2.58,-0.67,-0.56,
8.13,0.33,3.98,-2.80,-2.58,-0.67,-0.56,
8.153,0.33,3.98,-2.80,-3.20,-0.77,-1.21,
8.156,0.33,3.98,-2.80,-3.20,-0.77,-1.21,
8.157,0.51,3.57,-4.42,-3.20,-0.77,-1.21,
8.158,0.51,3.57,-4.42,-3.20,-0.77,-1.21,
8.201,0.51,3.57,-4.42,-3.04,-0.87,-1.48,
8.202,0.51,3.57,-4.42,-3.04,-0.87,-1.48,
8.204,0.68,1.81,-5.58,-3.04,-0.87,-1.48,
8.205,0.68,1.81,-5.58,-3.04,-0.87,-1.48,
8.229,0.68,1.81,-5.58,-1.77,-0.69,-1.03,
8.231,0.51,1.59,-4.88,-1.77,-0.69,-1.03,
8.233,0.51,1.59,-4.88,-1.77,-0.69,-1.03,
8.234,0.51,1.59,-4.88,-1.77,-0.69,-1.03,
8.266,0.51,1.59,-4.88,-0.40,-0.33,-0.32,
8.268,0.51,1.59,-4.88,-0.40,-0.33,-0.32,
8.269,0.26,0.98,-2.48,-0.40,-0.33,-0.32,
8.27,0.26,0.98,-2.48,-0.40,-0.33,-0.32,
8.308,0.26,0.98,-2.48,0.65,0.20,0.36,
8.309,0.26,0.98,-2.48,0.65,0.20,0.36,
8.309,-0.09,0.20,-1.47,0.65,0.20,0.36,
8.309,-0.09,0.20,-1.47,0.65,0.20,0.36,
8.343,-0.09,0.20,-1.47,1.84,0.83,1.04,
8.345,-0.09,0.20,-1.47,1.84,0.83,1.04,
8.346,-0.39,-0.31,1.40,1.84,0.83,1.04,
8.348,-0.39,-0.31,1.40,1.84,0.83,1.04,
8.38,-0.39,-0.31,1.40,2.64,1.29,1.17,
8.382,-0.39,-0.31,1.40,2.64,1.29,1.17,
8.383,-0.36,-1.01,2.08,2.64,1.29,1.17,
8.384,-0.36,-1.01,2.08,2.64,1.29,1.17,
8.418,-0.36,-1.01,2.08,2.17,1.20,0.68,
8.419,-0.36,-1.01,2.08,2.17,1.20,0.68,
8.42,-0.04,-1.64,2.43,2.17,1.20,0.68,
8.421,-0.04,-1.64,2.43,2.17,1.20,0.68,
8.456,-0.04,-1.64,2.43,1.50,0.82,-0.00,
8.458,-0.04,-1.64,2.43,1.50,0.82,-0.00,
8.46,0.42,-1.83,2.69,1.50,0.82,-0.00,
8.461,0.42,-1.83,2.69,1.50,0.82,-0.00,
8.504,0.42,-1.83,2.69,1.16,0.55,-0.39,
8.506,0.42,-1.83,2.69,1.16,0.55,-0.39,
8.507,0.79,-1.83,2.79,1.16,0.55,-0.39,
8.508,0.79,-1.83,2.79,1.16,0.55,-0.39,
8.533,0.79,-1.83,2.79,0.96,0.31,-0.71,
8.535,0.79,-1.83,2.79,0.96,0.31,-0.71,
8.536,1.02,-1.72,2.79,0.96,0.31,-0.71,
8.537,1.02,-1.72,2.79,0.96,0.31,-0.71,
8.57,1.02,-1.72,2.79,0.85,-0.08,-0.74,
8.571,1.02,-1.72,2.79,0.85,-0.08,-0.74,
8.572,1.10,-1.47,2.67,0.85,-0.08,-0.74,
8.573,1.10,-1.47,2.67,0.85,-0.08,-0.74,
8.608,1.10,-1.47,2.67,0.79,-0.36,-0.60,
8.61,1.10,-1.47,2.67,0.79,-0.36,-0.60,
8.611,1.08,-1.07,2.45,0.79,-0.36,-0.60,
8.612,1.08,-1.07,2.45,0.79,-0.36,-0.60,
8.647,1.08,-1.07,2.45,0.74,-0.64,-0.44,
8.649,1.08,-1.07,2.45,0.74,-0.64,-0.44,
8.651,0.89,-0.60,2.29,0.74,-0.64,-0.44,
8.652,0.89,-0.60,2.29,0.74,-0.64,-0.44,
8.685,0.89,-0.60,2.29,0.71,-0.62,-0.28,
8.686,0.89,-0.60,2.29,0.71,-0.62,-0.28,
8.687,0.66,-0.21,2.19,0.71,-0.62,-0.28,
8.688,0.66,-0.21,2.19,0.71,-0.62,-0.28,
8.722,0.66,-0.21,2.19,0.69,-0.41,-0.00,
8.723,0.66,-0.21,2.19,0.69,-0.41,-0.00,
8.724,0.31,0.20,1.86,0.69,-0.41,-0.00,
8.724,0.31,0.20,1.86,0.69,-0.41,-0.00,
8.761,0.31,0.20,1.86,0.61,-0.21,0.24,
8.763,0.31,0.20,1.86,0.61,-0.21,0.24,
8.765,-0.07,0.50,1.66,0.61,-0.21,0.24,
8.766,-0.07,0.50,1.66,0.61,-0.21,0.24,
8.803,-0.07,0.50,1.66,0.54,0.02,0.38,
8.804,-0.07,0.50,1.66,0.54,0.02,0.38,
8.805,-0.32,0.58,1.60,0.54,0.02,0.38,
8.805,-0.32,0.58,1.60,0.54,0.02,0.38,
8.836,-0.32,0.58,1.60,0.50,0.23,0.38,
8.838,-0.32,0.58,1.60,0.50,0.23,0.38,
8.838,-0.51,0.55,1.53,0.50,0.23,0.38,
8.839,-0.51,0.55,1.53,0.50,0.23,0.38,
8.874,-0.51,0.55,1.53,0.50,0.26,0.32,
8.877,-0.51,0.55,1.53,0.50,0.26,0.32,
8.878,-0.57,0.46,1.58,0.50,0.26,0.32,
8.879,-0.57,0.46,1.58,0.50,0.26,0.32,
8.92,-0.57,0.46,1.58,0.59,0.32,0.19,
8.921,-0.57,0.46,1.58,0.59,0.32,0.19,
8.922,-0.54,0.37,1.59,0.59,0.32,0.19,
8.923,-0.54,0.37,1.59,0.59,0.32,0.19,
8.95,-0.54,0.37,1.59,0.65,0.32,0.10,
8.951,-0.54,0.37,1.59,0.65,0.32,0.10,
8.952,-0.52,0.25,1.63,0.65,0.32,0.10,
8.953,-0.52,0.25,1.63,0.65,0.32,0.10,
8.988,-0.52,0.25,1.63,0.70,0.35,0.05,
8.99,-0.52,0.25,1.63,0.70,0.35,0.05,
8.991,-0.40,0.14,1.74,0.70,0.35,0.05,
8.993,-0.40,0.14,1.74,0.70,0.35,0.05,
9.026,-0.40,0.14,1.74,0.82,0.29,-0.03,
9.027,-0.40,0.14,1.74,0.82,0.29,-0.03,
9.027,-0.20,0.04,2.07,0.82,0.29,-0.03,
9.028,-0.20,0.04,2.07,0.82,0.29,-0.03,
9.065,-0.20,0.04,2.07,0.93,0.20,-0.08,
9.066,-0.20,0.04,2.07,0.93,0.20,-0.08,
9.067,-0.18,-0.36,2.24,0.93,0.20,-0.08,
9.068,-0.18,-0.36,2.24,0.93,0.20,-0.08,
9.102,-0.18,-0.36,2.24,0.80,0.18,0.01,
9.104,-0.18,-0.36,2.24,0.80,0.18,0.01,
9.105,-0.22,-1.01,1.92,0.80,0.18,0.01,
9.106,-0.22,-1.01,1.92,0.80,0.18,0.01,
9.152,-0.22,-1.01,1.92,0.27,0.03,0.12,
9.153,-0.22,-1.01,1.92,0.27,0.03,0.12,
9.154,-0.21,-2.62,1.36,0.27,0.03,0.12,
9.155,-0.21,-2.62,1.36,0.27,0.03,0.12,
9.178,-0.21,-2.62,1.36,-0.58,-0.05,0.22,
9.18,-0.21,-2.62,1.36,-0.58,-0.05,0.22,
9.181,-0.49,-2.96,-0.53,-0.58,-0.05,0.22,
9.182,-0.49,-2.96,-0.53,-0.58,-0.05,0.22,
9.215,-0.49,-2.96,-0.53,-1.29,0.12,0.35,
9.217,-0.49,-2.96,-0.53,-1.29,0.12,0.35,
9.218,-0.75,-3.05,-1.25,-1.29,0.12,0.35,
9.218,-0.75,-3.05,-1.25,-1.29,0.12,0.35,
9.254,-0.75,-3.05,-1.25,-1.30,0.43,0.40,
9.256,-0.75,-3.05,-1.25,-1.30,0.43,0.40,
9.256,-0.85,-2.87,-1.77,-1.30,0.43,0.40,
9.257,-0.85,-2.87,-1.77,-1.30,0.43,0.40,
9.301,-0.85,-2.87,-1.77,-1.11,1.00,0.44,
9.303,-0.85,-2.87,-1.77,-1.11,1.00,0.44,
9.303,-1.01,-2.49,-2.05,-1.11,1.00,0.44,
9.304,-1.01,-2.49,-2.05,-1.11,1.00,0.44,
9.332,-1.01,-2.49,-2.05,-0.67,1.20,0.41,
9.334,-1.01,-2.49,-2.05,-0.67,1.20,0.41,
9.335,-0.84,-2.03,-1.56,-0.67,1.20,0.41,
9.336,-0.84,-2.03,-1.56,-0.67,1.20,0.41,
9.369,-0.84,-2.03,-1.56,-0.11,1.15,0.23,
9.371,-0.84,-2.03,-1.56,-0.11,1.15,0.23,
9.372,-0.56,-1.54,-1.02,-0.11,1.15,0.23,
9.373,-0.56,-1.54,-1.02,-0.11,1.15,0.23,
9.406,-0.56,-1.54,-1.02,0.21,0.80,0.05,
9.408,-0.56,-1.54,-1.02,0.21,0.80,0.05,
9.408,-0.43,-0.90,-0.74,0.21,0.80,0.05,
9.409,-0.43,-0.90,-0.74,0.21,0.80,0.05,
9.444,-0.43,-0.90,-0.74,0.22,0.22,-0.03,
9.447,-0.43,-0.90,-0.74,0.22,0.22,-0.03,
9.448,-0.16,0.78,-0.63,0.22,0.22,-0.03,
9.449,-0.16,0.78,-0.63,0.22,0.22,-0.03,
9.481,-0.16,0.78,-0.63,-0.09,-0.39,-0.17,
9.483,-0.16,0.78,-0.63,-0.09,-0.39,-0.17,
9.483,0.03,0.96,-0.96,-0.09,-0.39,-0.17,
9.484,0.03,0.96,-0.96,-0.09,-0.39,-0.17,
9.52,0.03,0.96,-0.96,-0.58,-0.90,-0.24,
9.521,0.03,0.96,-0.96,-0.58,-0.90,-0.24,
9.522,0.10,1.38,-1.08,-0.58,-0.90,-0.24,
9.523,0.10,1.38,-1.08,-0.58,-0.90,-0.24,
9.558,0.10,1.38,-1.08,-0.78,-1.23,-0.24,
9.559,0.10,1.38,-1.08,-0.78,-1.23,-0.24,
9.559,0.17,1.98,-0.89,-0.78,-1.23,-0.24,
9.56,0.17,1.98,-0.89,-0.78,-1.23,-0.24,
9.596,0.17,1.98,-0.89,-0.86,-1.18,-0.15,
9.597,0.17,1.98,-0.89,-0.86,-1.18,-0.15,
9.598,0.14,3.48,-0.95,-0.86,-1.18,-0.15,
9.598,0.14,3.48,-0.95,-0.86,-1.18,-0.15,
9.634,0.14,3.48,-0.95,-1.07,-0.99,-0.04,
9.636,0.14,3.48,-0.95,-1.07,-0.99,-0.04,
9.636,0.17,3.90,-1.15,-1.07,-0.99,-0.04,
9.637,0.17,3.90,-1.15,-1.07,-0.99,-0.04,
9.672,0.17,3.90,-1.15,-1.58,-0.79,-0.16,
9.674,0.17,3.90,-1.15,-1.58,-0.79,-0.16,
9.675,0.41,4.35,-1.63,-1.58,-0.79,-0.16,
9.676,0.41,4.35,-1.63,-1.58,-0.79,-0.16,
9.718,0.41,4.35,-1.63,-2.64,-0.73,-0.61,
9.719,0.41,4.35,-1.63,-2.64,-0.73,-0.61,
9.72,0.69,4.61,-3.07,-2.64,-0.73,-0.61,
9.721,0.69,4.61,-3.07,-2.64,-0.73,-0.61,
9.747,0.69,4.61,-3.07,-3.27,-0.87,-1.10,
9.748,0.69,4.61,-3.07,-3.27,-0.87,-1.10,
9.749,0.76,4.74,-2.95,-3.27,-0.87,-1.10,
9.749,0.76,4.74,-2.95,-3.27,-0.87,-1.10,
9.787,0.76,4.74,-2.95,-2.53,-0.54,-1.05,
9.788,0.76,4.74,-2.95,-2.53,-0.54,-1.05,
9.788,0.70,4.65,-2.94,-2.53,-0.54,-1.05,
9.789,0.70,4.65,-2.94,-2.53,-0.54,-1.05,
9.823,0.70,4.65,-2.94,-1.90,-0.46,-0.75,
9.825,0.70,4.65,-2.94,-1.90,-0.46,-0.75,
9.825,0.72,1.65,-4.95,-1.90,-0.46,-0.75,
9.826,0.72,1.65,-4.95,-1.90,-0.46,-0.75,
9.862,0.72,1.65,-4.95,-0.98,-0.27,-0.41,
9.864,0.72,1.65,-4.95,-0.98,-0.27,-0.41,
9.865,0.74,0.99,-4.46,-0.98,-0.27,-0.41,
9.866,0.74,0.99,-4.46,-0.98,-0.27,-0.41,
9.902,0.74,0.99,-4.46,-0.34,-0.30,-0.36,
9.904,0.74,0.99,-4.46,-0.34,-0.30,-0.36,
9.905,0.53,0.68,-3.60,-0.34,-0.30,-0.36,
9.905,0.53,0.68,-3.60,-0.34,-0.30,-0.36,
9.938,0.53,0.68,-3.60,0.53,-0.27,-0.20,
9.94,0.53,0.68,-3.60,0.53,-0.27,-0.20,
9.941,0.45,0.09,-0.70,0.53,-0.27,-0.20,
9.942,0.45,0.09,-0.70,0.53,-0.27,-0.20,
9.977,0.45,0.09,-0.70,1.99,0.14,0.34,
9.979,0.45,0.09,-0.70,1.99,0.14,0.34,
9.98,0.08,-0.48,1.70,1.99,0.14,0.34,
9.981,0.08,-0.48,1.70,1.99,0.14,0.34,
10.017,0.08,-0.48,1.70,2.64,0.65,0.65,
10.018,0.08,-0.48,1.70,2.64,0.65,0.65,
10.019,-0.25,-0.58,2.21,2.64,0.65,0.65,
10.02,-0.25,-0.58,2.21,2.64,0.65,0.65,
10.051,-0.25,-0.58,2.21,2.32,0.74,0.69,
10.053,-0.25,-0.58,2.21,2.32,0.74,0.69,
10.053,-0.25,-1.21,2.56,2.32,0.74,0.69,
10.054,-0.25,-1.21,2.56,2.32,0.74,0.69,
10.1,-0.25,-1.21,2.56,1.74,0.64,0.46,
10.1,-0.25,-1.21,2.56,1.74,0.64,0.46,
10.101,-0.29,-1.75,2.72,1.74,0.64,0.46,
10.101,-0.29,-1.75,2.72,1.74,0.64,0.46,
10.14,-0.29,-1.75,2.72,1.23,0.70,0.18,
10.143,-0.29,-1.75,2.72,1.23,0.70,0.18,
10.144,-0.07,-1.52,2.72,1.23,0.70,0.18,
10.145,-0.07,-1.52,2.72,1.23,0.70,0.18,
10.167,-0.07,-1.52,2.72,1.01,0.50,-0.01,
10.17,-0.07,-1.52,2.72,1.01,0.50,-0.01,
10.171,0.13,-1.28,2.80,1.01,0.50,-0.01,
10.172,0.13,-1.28,2.80,1.01,0.50,-0.01,
10.203,0.13,-1.28,2.80,0.96,0.21,-0.19,
10.204,0.13,-1.28,2.80,0.96,0.21,-0.19,
10.204,0.24,-1.20,2.74,0.96,0.21,-0.19,
10.205,0.24,-1.20,2.74,0.96,0.21,-0.19,
10.242,0.24,-1.20,2.74,0.89,-0.17,-0.34,
10.244,0.24,-1.20,2.74,0.89,-0.17,-0.34,
10.245,0.41,-0.93,2.37,0.89,-0.17,-0.34,
10.246,0.41,-0.93,2.37,0.89,-0.17,-0.34,
10.279,0.41,-0.93,2.37,0.72,-0.53,-0.38,
10.281,0.41,-0.93,2.37,0.72,-0.53,-0.38,
10.283,0.43,-0.43,2.22,0.72,-0.53,-0.38,
10.284,0.43,-0.43,2.22,0.72,-0.53,-0.38,
10.324,0.43,-0.43,2.22,0.66,-0.66,-0.24,
10.327,0.43,-0.43,2.22,0.66,-0.66,-0.24,
10.329,0.21,-0.03,2.10,0.66,-0.66,-0.24,
10.331,0.21,-0.03,2.10,0.66,-0.66,-0.24,
10.355,0.21,-0.03,2.10,0.62,-0.43,0.02,
10.356,0.21,-0.03,2.10,0.62,-0.43,0.02,
10.356,0.01,0.31,1.78,0.62,-0.43,0.02,
10.357,0.01,0.31,1.78,0.62,-0.43,0.02,
10.393,0.01,0.31,1.78,0.55,-0.29,0.19,
10.394,0.01,0.31,1.78,0.55,-0.29,0.19,
10.396,-0.29,0.55,1.60,0.55,-0.29,0.19,
10.397,-0.29,0.55,1.60,0.55,-0.29,0.19,
10.43,-0.29,0.55,1.60,0.48,0.05,0.45,
10.432,-0.29,0.55,1.60,0.48,0.05,0.45,
10.432,-0.53,0.58,1.46,0.48,0.05,0.45,
10.432,-0.53,0.58,1.46,0.48,0.05,0.45,
10.47,-0.53,0.58,1.46,0.39,0.18,0.44,
10.472,-0.53,0.58,1.46,0.39,0.18,0.44,
10.473,-0.44,0.57,1.25,0.39,0.18,0.44,
10.474,-0.44,0.57,1.25,0.39,0.18,0.44,
10.516,-0.44,0.57,1.25,0.33,0.14,0.19,
10.518,-0.44,0.57,1.25,0.33,0.14,0.19,
10.519,-0.32,0.49,1.18,0.33,0.14,0.19,
10.52,-0.32,0.49,1.18,0.33,0.14,0.19,
10.545,-0.32,0.49,1.18,0.35,0.12,0.02,
10.546,-0.32,0.49,1.18,0.35,0.12,0.02,
10.547,-0.19,0.46,1.22,0.35,0.12,0.02,
10.547,-0.19,0.46,1.22,0.35,0.12,0.02,
10.583,-0.19,0.46,1.22,0.49,0.06,-0.12,
10.585,-0.19,0.46,1.22,0.49,0.06,-0.12,
10.586,-0.19,0.47,1.24,0.49,0.06,-0.12,
10.587,-0.19,0.47,1.24,0.49,0.06,-0.12,
10.621,-0.19,0.47,1.24,0.57,0.11,-0.07,
10.623,-0.19,0.47,1.24,0.57,0.11,-0.07,
10.624,-0.23,0.43,1.33,0.57,0.11,-0.07,
10.625,-0.23,0.43,1.33,0.57,0.11,-0.07,
10.659,-0.23,0.43,1.33,0.68,0.16,-0.05,
10.661,-0.23,0.43,1.33,0.68,0.16,-0.05,
10.662,-0.05,0.28,1.59,0.68,0.16,-0.05,
10.664,-0.05,0.28,1.59,0.68,0.16,-0.05,
10.696,-0.05,0.28,1.59,0.81,0.13,-0.11,
10.698,-0.05,0.28,1.59,0.81,0.13,-0.11,
10.699,0.06,-0.14,1.83,0.81,0.13,-0.11,
10.7,0.06,-0.14,1.83,0.81,0.13,-0.11,
10.735,0.06,-0.14,1.83,0.80,0.16,-0.11,
10.736,0.06,-0.14,1.83,0.80,0.16,-0.11,
10.737,-0.02,-0.62,1.73,0.80,0.16,-0.11,
10.737,-0.02,-0.62,1.73,0.80,0.16,-0.11,
10.773,-0.02,-0.62,1.73,0.52,0.26,0.04,
10.774,-0.02,-0.62,1.73,0.52,0.26,0.04,
10.775,-0.19,-1.19,1.58,0.52,0.26,0.04,
10.775,-0.19,-1.19,1.58,0.52,0.26,0.04,
10.817,-0.19,-1.19,1.58,0.15,0.32,0.25,
10.818,-0.19,-1.19,1.58,0.15,0.32,0.25,
10.819,-0.56,-2.67,1.14,0.15,0.32,0.25,
10.819,-0.56,-2.67,1.14,0.15,0.32,0.25,
10.848,-0.56,-2.67,1.14,-0.30,0.30,0.45,
10.85,-0.56,-2.67,1.14,-0.30,0.30,0.45,
10.85,-0.96,-2.80,0.31,-0.30,0.30,0.45,
10.851,-0.96,-2.80,0.31,-0.30,0.30,0.45,
10.886,-0.96,-2.80,0.31,-0.63,0.40,0.49,
10.889,-0.96,-2.80,0.31,-0.63,0.40,0.49,
10.89,-1.06,-2.87,-0.37,-0.63,0.40,0.49,
10.891,-1.06,-2.87,-0.37,-0.63,0.40,0.49,
10.934,-1.06,-2.87,-0.37,-0.85,0.59,0.41,
10.936,-1.06,-2.87,-0.37,-0.85,0.59,0.41,
10.937,-1.08,-2.85,-1.96,-0.85,0.59,0.41,
10.937,-1.08,-2.85,-1.96,-0.85,0.59,0.41,
10.962,-1.08,-2.85,-1.96,-1.36,0.71,0.27,
10.965,-1.08,-2.85,-1.96,-1.36,0.71,0.27,
10.966,-0.91,-2.61,-2.12,-1.36,0.71,0.27,
10.967,-0.91,-2.61,-2.12,-1.36,0.71,0.27,
11.001,-0.91,-2.61,-2.12,-0.98,0.78,0.07,
11.003,-0.91,-2.61,-2.12,-0.98,0.78,0.07,
11.004,-0.47,-2.30,-1.79,-0.98,0.78,0.07,
11.005,-0.47,-2.30,-1.79,-0.98,0.78,0.07,
11.038,-0.47,-2.30,-1.79,-0.43,0.79,-0.22,
11.039,-0.47,-2.30,-1.79,-0.43,0.79,-0.22,
11.039,0.11,-1.93,-1.57,-0.43,0.79,-0.22,
11.04,0.11,-1.93,-1.57,-0.43,0.79,-0.22,
11.076,0.11,-1.93,-1.57,-0.14,0.37,-0.50,
11.077,0.11,-1.93,-1.57,-0.14,0.37,-0.50,
11.078,0.53,-1.44,-1.34,-0.14,0.37,-0.50,
11.079,0.53,-1.44,-1.34,-0.14,0.37,-0.50,
11.128,0.53,-1.44,-1.34,-0.10,-0.25,-0.61,
11.129,0.53,-1.44,-1.34,-0.10,-0.25,-0.61,
11.13,0.80,0.28,-1.35,-0.10,-0.25,-0.61,
11.13,0.80,0.28,-1.35,-0.10,-0.25,-0.61,
11.152,0.80,0.28,-1.35,-0.43,-1.20,-0.76,
11.154,0.80,0.28,-1.35,-0.43,-1.20,-0.76,
11.154,0.95,0.63,-1.55,-0.43,-1.20,-0.76,
11.155,0.95,0.63,-1.55,-0.43,-1.20,-0.76,
11.19,0.95,0.63,-1.55,-0.68,-1.57,-0.56,
11.191,0.95,0.63,-1.55,-0.68,-1.57,-0.56,
11.192,0.68,2.17,-1.20,-0.68,-1.57,-0.56,
11.192,0.68,2.17,-1.20,-0.68,-1.57,-0.56,
11.23,0.68,2.17,-1.20,-0.53,-1.57,-0.25,
11.231,0.68,2.17,-1.20,-0.53,-1.57,-0.25,
11.233,0.34,4.05,-0.68,-0.53,-1.57,-0.25,
11.234,0.34,4.05,-0.68,-0.53,-1.57,-0.25,
11.267,0.34,4.05,-0.68,-0.42,-1.42,0.12,
11.268,0.34,4.05,-0.68,-0.42,-1.42,0.12,
11.269,0.04,4.27,-0.53,-0.42,-1.42,0.12,
11.269,0.04,4.27,-0.53,-0.42,-1.42,0.12,
11.312,0.04,4.27,-0.53,-0.49,-1.22,0.33,
11.313,0.04,4.27,-0.53,-0.49,-1.22,0.33,
11.314,-0.12,4.63,-0.69,-0.49,-1.22,0.33,
11.314,-0.12,4.63,-0.69,-0.49,-1.22,0.33,
11.342,-0.12,4.63,-0.69,-1.66,-0.97,0.32,
11.344,-0.12,4.63,-0.69,-1.66,-0.97,0.32,
11.345,-0.12,4.75,-2.03,-1.66,-0.97,0.32,
11.346,-0.12,4.75,-2.03,-1.66,-0.97,0.32,
11.38,-0.12,4.75,-2.03,-2.89,-1.01,-0.16,
11.382,-0.12,4.75,-2.03,-2.89,-1.01,-0.16,
11.384,-0.05,4.65,-2.31,-2.89,-1.01,-0.16,
11.385,-0.05,4.65,-2.31,-2.89,-1.01,-0.16,
11.426,-0.05,4.65,-2.31,-2.54,-1.18,-0.75,
11.429,-0.05,4.65,-2.31,-2.54,-1.18,-0.75,
11.429,-0.10,4.44,-2.60,-2.54,-1.18,-0.75,
11.43,-0.10,4.44,-2.60,-2.54,-1.18,-0.75,
11.457,-0.10,4.44,-2.60,-2.20,-1.00,-0.70,
11.458,-0.10,4.44,-2.60,-2.20,-1.00,-0.70,
11.458,-0.38,2.09,-5.18,-2.20,-1.00,-0.70,
11.459,-0.38,2.09,-5.18,-2.20,-1.00,-0.70,
11.494,-0.38,2.09,-5.18,-2.14,-0.96,-0.52,
11.495,-0.38,2.09,-5.18,-2.14,-0.96,-0.52,
11.496,-0.38,1.57,-4.87,-2.14,-0.96,-0.52,
11.497,-0.38,1.57,-4.87,-2.14,-0.96,-0.52,
11.532,-0.38,1.57,-4.87,-1.16,-0.57,-0.24,
11.533,-0.38,1.57,-4.87,-1.16,-0.57,-0.24,
11.534,-0.33,1.19,-4.06,-1.16,-0.57,-0.24,
11.535,-0.33,1.19,-4.06,-1.16,-0.57,-0.24,
11.57,-0.33,1.19,-4.06,-0.21,-0.28,0.01,
11.572,-0.33,1.19,-4.06,-0.21,-0.28,0.01,
11.572,-0.45,0.46,-2.78,-0.21,-0.28,0.01,
11.573,-0.45,0.46,-2.78,-0.21,-0.28,0.01,
11.614,-0.45,0.46,-2.78,1.32,0.11,0.22,
11.615,-0.45,0.46,-2.78,1.32,0.11,0.22,
11.616,-0.34,-1.19,0.44,1.32,0.11,0.22,
11.617,-0.34,-1.19,0.44,1.32,0.11,0.22,
11.645,-0.34,-1.19,0.44,2.99,0.89,0.60,
11.647,-0.34,-1.19,0.44,2.99,0.89,0.60,
11.648,-0.30,-1.08,2.37,2.99,0.89,0.60,
11.649,-0.30,-1.08,2.37,2.99,0.89,0.60,
11.684,-0.30,-1.08,2.37,3.21,1.01,0.52,
11.685,-0.30,-1.08,2.37,3.21,1.01,0.52,
11.685,-0.07,-1.49,2.64,3.21,1.01,0.52,
11.686,-0.07,-1.49,2.64,3.21,1.01,0.52,
11.722,-0.07,-1.49,2.64,2.47,0.92,-0.31,
11.724,-0.07,-1.49,2.64,2.47,0.92,-0.31,
11.725,1.62,-2.06,2.67,2.47,0.92,-0.31,
11.726,1.62,-2.06,2.67,2.47,0.92,-0.31,
11.76,1.62,-2.06,2.67,1.62,0.58,-1.11,
11.762,1.62,-2.06,2.67,1.62,0.58,-1.11,
11.762,1.62,-1.85,2.85,1.62,0.58,-1.11,
11.763,1.62,-1.85,2.85,1.62,0.58,-1.11,
11.798,1.62,-1.85,2.85,1.13,0.19,-0.86,
11.799,1.62,-1.85,2.85,1.13,0.19,-0.86,
11.799,1.39,-1.47,2.60,1.13,0.19,-0.86,
11.8,1.39,-1.47,2.60,1.13,0.19,-0.86,
11.836,1.39,-1.47,2.60,0.76,-0.15,-0.37,
11.836,1.39,-1.47,2.60,0.76,-0.15,-0.37,
11.837,0.98,-1.01,2.14,0.76,-0.15,-0.37,
11.837,0.98,-1.01,2.14,0.76,-0.15,-0.37,
11.874,0.98,-1.01,2.14,0.54,-0.35,-0.03,
11.875,0.98,-1.01,2.14,0.54,-0.35,-0.03,
11.876,0.50,-0.28,2.01,0.54,-0.35,-0.03,
11.876,0.50,-0.28,2.01,0.54,-0.35,-0.03,
11.912,0.50,-0.28,2.01,0.44,-0.28,0.33,
11.914,0.50,-0.28,2.01,0.44,-0.28,0.33,
11.915,0.21,0.42,1.81,0.44,-0.28,0.33,
11.916,0.21,0.42,1.81,0.44,-0.28,0.33,
11.95,0.21,0.42,1.81,0.36,-0.10,0.39,
11.951,0.21,0.42,1.81,0.36,-0.10,0.39,
11.952,0.10,0.79,1.45,0.36,-0.10,0.39,
11.952,0.10,0.79,1.45,0.36,-0.10,0.39,
11.988,0.10,0.79,1.45,0.23,-0.01,0.24,
11.989,0.10,0.79,1.45,0.23,-0.01,0.24,
11.989,0.05,0.93,1.08,0.23,-0.01,0.24,
11.99,0.05,0.93,1.08,0.23,-0.01,0.24,
12.027,0.05,0.93,1.08,0.15,-0.01,0.08,
12.028,0.05,0.93,1.08,0.15,-0.01,0.08,
12.029,0.00,0.84,0.78,0.15,-0.01,0.08,
12.03,0.00,0.84,0.78,0.15,-0.01,0.08,
12.064,0.00,0.84,0.78,0.14,-0.04,0.02,
12.065,0.00,0.84,0.78,0.14,-0.04,0.02,
12.066,-0.07,0.62,0.68,0.14,-0.04,0.02,
12.067,-0.07,0.62,0.68,0.14,-0.04,0.02,
12.101,-0.07,0.62,0.68,0.29,-0.05,0.01,
12.102,-0.07,0.62,0.68,0.29,-0.05,0.01,
12.103,-0.18,0.43,0.84,0.29,-0.05,0.01,
12.104,-0.18,0.43,0.84,0.29,-0.05,0.01,
12.151,-0.18,0.43,0.84,0.49,-0.04,0.04,
12.152,-0.18,0.43,0.84,0.49,-0.04,0.04,
12.153,-0.28,0.26,1.06,0.49,-0.04,0.04,
12.153,-0.28,0.26,1.06,0.49,-0.04,0.04,
12.177,-0.28,0.26,1.06,0.66,0.05,0.11,
12.179,-0.28,0.26,1.06,0.66,0.05,0.11,
12.179,-0.33,0.04,1.32,0.66,0.05,0.11,
12.18,-0.33,0.04,1.32,0.66,0.05,0.11,
12.216,-0.33,0.04,1.32,1.28,0.30,0.11,
12.218,-0.33,0.04,1.32,1.28,0.30,0.11,
12.219,-0.22,-0.32,3.12,1.28,0.30,0.11,
12.22,-0.22,-0.32,3.12,1.28,0.30,0.11,
12.255,-0.22,-0.32,3.12,1.86,0.42,0.06,
12.256,-0.22,-0.32,3.12,1.86,0.42,0.06,
12.257,-0.24,-2.17,3.15,1.86,0.42,0.06,
12.257,-0.24,-2.17,3.15,1.86,0.42,0.06,
12.292,-0.24,-2.17,3.15,0.83,0.22,0.24,
12.293,-0.24,-2.17,3.15,0.83,0.22,0.24,
12.293,-0.71,-2.54,1.24,0.83,0.22,0.24,
12.294,-0.71,-2.54,1.24,0.83,0.22,0.24,
12.329,-0.71,-2.54,1.24,-0.45,0.11,0.49,
12.331,-0.71,-2.54,1.24,-0.45,0.11,0.49,
12.332,-1.02,-2.87,0.74,-0.45,0.11,0.49,
12.333,-1.02,-2.87,0.74,-0.45,0.11,0.49,
12.368,-1.02,-2.87,0.74,-1.15,0.12,0.55,
12.369,-1.02,-2.87,0.74,-1.15,0.12,0.55,
12.37,-1.24,-3.06,-1.27,-1.15,0.12,0.55,
12.37,-1.24,-3.06,-1.27,-1.15,0.12,0.55,
12.414,-1.24,-3.06,-1.27,-1.71,0.16,0.49,
12.416,-1.24,-3.06,-1.27,-1.71,0.16,0.49,
12.417,-1.23,-2.99,-1.97,-1.71,0.16,0.49,
12.418,-1.23,-2.99,-1.97,-1.71,0.16,0.49,
12.444,-1.23,-2.99,-1.97,-1.51,0.48,0.37,
12.445,-1.23,-2.99,-1.97,-1.51,0.48,0.37,
12.446,-0.77,-2.67,-1.60,-1.51,0.48,0.37,
12.447,-0.77,-2.67,-1.60,-1.51,0.48,0.37,
12.481,-0.77,-2.67,-1.60,-0.70,0.91,0.05,
12.484,-0.77,-2.67,-1.60,-0.70,0.91,0.05,
12.485,-0.40,-2.42,-1.40,-0.70,0.91,0.05,
12.485,-0.40,-2.42,-1.40,-0.70,0.91,0.05,
12.519,-0.40,-2.42,-1.40,-0.12,0.96,-0.11,
12.521,-0.40,-2.42,-1.40,-0.12,0.96,-0.11,
12.521,-0.27,-2.07,-0.98,-0.12,0.96,-0.11,
12.522,-0.27,-2.07,-0.98,-0.12,0.96,-0.11,
12.557,-0.27,-2.07,-0.98,0.15,0.68,-0.16,
12.559,-0.27,-2.07,-0.98,0.15,0.68,-0.16,
12.559,0.01,-0.47,-0.73,0.15,0.68,-0.16,
12.56,0.01,-0.47,-0.73,0.15,0.68,-0.16,
12.596,0.01,-0.47,-0.73,0.05,0.22,-0.31,
12.598,0.01,-0.47,-0.73,0.05,0.22,-0.31,
12.6,0.43,-0.08,-0.91,0.05,0.22,-0.31,
12.601,0.43,-0.08,-0.91,0.05,0.22,-0.31,
12.633,0.43,-0.08,-0.91,-0.15,-0.16,-0.45,
12.634,0.43,-0.08,-0.91,-0.15,-0.16,-0.45,
12.635,0.55,1.58,-0.73,-0.15,-0.16,-0.45,
12.635,0.55,1.58,-0.73,-0.15,-0.16,-0.45,
12.672,0.55,1.58,-0.73,-0.28,-0.60,-0.46,
12.673,0.55,1.58,-0.73,-0.28,-0.60,-0.46,
12.673,0.49,3.13,-0.43,-0.28,-0.60,-0.46,
12.674,0.49,3.13,-0.43,-0.28,-0.60,-0.46,
12.716,0.49,3.13,-0.43,-0.41,-0.79,-0.22,
12.718,0.49,3.13,-0.43,-0.41,-0.79,-0.22,
12.719,0.22,5.00,-0.31,-0.41,-0.79,-0.22,
12.719,0.22,5.00,-0.31,-0.41,-0.79,-0.22,
12.746,0.22,5.00,-0.31,-0.70,-0.73,0.23,
12.748,0.22,5.00,-0.31,-0.70,-0.73,0.23,
12.748,-0.03,5.34,-0.23,-0.70,-0.73,0.23,
12.749,-0.03,5.34,-0.23,-0.70,-0.73,0.23,
12.785,-0.03,5.34,-0.23,-1.10,-0.58,0.52,
12.786,-0.03,5.34,-0.23,-1.10,-0.58,0.52,
12.787,-0.07,5.72,-0.52,-1.10,-0.58,0.52,
12.788,-0.07,5.72,-0.52,-1.10,-0.58,0.52,
12.826,-0.07,5.72,-0.52,-1.89,-0.50,0.39,
12.829,-0.07,5.72,-0.52,-1.89,-0.50,0.39,
12.83,0.12,5.79,-1.98,-1.89,-0.50,0.39,
12.831,0.12,5.79,-1.98,-1.89,-0.50,0.39,
12.862,0.12,5.79,-1.98,-4.95,-1.07,-0.75,
12.864,0.12,5.79,-1.98,-4.95,-1.07,-0.75,
12.865,0.32,5.40,-4.73,-4.95,-1.07,-0.75,
12.866,0.32,5.40,-4.73,-4.95,-1.07,-0.75,
12.899,0.32,5.40,-4.73,-4.49,-1.18,-1.45,
12.901,0.32,5.40,-4.73,-4.49,-1.18,-1.45,
12.903,0.30,3.15,-4.92,-4.49,-1.18,-1.45,
12.904,0.30,3.15,-4.92,-4.49,-1.18,-1.45,
12.936,0.30,3.15,-4.92,-1.51,-0.42,-0.61,
12.938,0.30,3.15,-4.92,-1.51,-0.42,-0.61,
12.938,0.09,1.57,-5.01,-1.51,-0.42,-0.61,
12.939,0.09,1.57,-5.01,-1.51,-0.42,-0.61,
12.976,0.09,1.57,-5.01,-0.07,-0.14,-0.02,
12.977,0.09,1.57,-5.01,-0.07,-0.14,-0.02,
12.978,-0.16,1.28,-4.16,-0.07,-0.14,-0.02,
12.978,-0.16,1.28,-4.16,-0.07,-0.14,-0.02,
13.013,-0.16,1.28,-4.16,0.70,0.03,0.37,
13.015,-0.16,1.28,-4.16,0.70,0.03,0.37,
13.016,-0.52,-0.55,-0.19,0.70,0.03,0.37,
13.017,-0.52,-0.55,-0.19,0.70,0.03,0.37,
13.051,-0.52,-0.55,-0.19,2.86,0.93,1.18,
13.052,-0.52,-0.55,-0.19,2.86,0.93,1.18,
13.052,-0.61,-1.11,1.16,2.86,0.93,1.18,
13.052,-0.61,-1.11,1.16,2.86,0.93,1.18,
13.089,-0.61,-1.11,1.16,2.78,1.08,1.00,
13.09,-0.61,-1.11,1.16,2.78,1.08,1.00,
13.091,-0.46,-1.73,2.37,2.78,1.08,1.00,
13.091,-0.46,-1.73,2.37,2.78,1.08,1.00,
13.138,-0.46,-1.73,2.37,2.38,1.08,0.55,
13.141,-0.46,-1.73,2.37,2.38,1.08,0.55,
13.142,-0.22,-3.61,3.17,2.38,1.08,0.55,
13.143,-0.22,-3.61,3.17,2.38,1.08,0.55,
13.168,-0.22,-3.61,3.17,1.90,0.97,0.07,
13.169,-0.22,-3.61,3.17,1.90,0.97,0.07,
13.169,0.25,-3.44,3.22,1.90,0.97,0.07,
13.17,0.25,-3.44,3.22,1.90,0.97,0.07,
13.203,0.25,-3.44,3.22,1.41,0.74,-0.23,
13.204,0.25,-3.44,3.22,1.41,0.74,-0.23,
13.204,0.57,-2.94,3.30,1.41,0.74,-0.23,
13.205,0.57,-2.94,3.30,1.41,0.74,-0.23,
13.241,0.57,-2.94,3.30,0.95,0.37,-0.46,
13.242,0.57,-2.94,3.30,0.95,0.37,-0.46,
13.242,0.71,-2.38,3.26,0.95,0.37,-0.46,
13.242,0.71,-2.38,3.26,0.95,0.37,-0.46,
13.279,0.71,-2.38,3.26,0.63,-0.03,-0.49,
13.28,0.71,-2.38,3.26,0.63,-0.03,-0.49,
13.281,0.82,-1.60,2.76,0.63,-0.03,-0.49,
13.282,0.82,-1.60,2.76,0.63,-0.03,-0.49,
13.317,0.82,-1.60,2.76,0.39,-0.32,-0.49,
13.319,0.82,-1.60,2.76,0.39,-0.32,-0.49,
13.32,0.94,-0.70,2.24,0.39,-0.32,-0.49,
13.321,0.94,-0.70,2.24,0.39,-0.32,-0.49,
13.354,0.94,-0.70,2.24,0.33,-0.40,-0.50,
13.355,0.94,-0.70,2.24,0.33,-0.40,-0.50,
13.356,1.03,-0.05,2.15,0.33,-0.40,-0.50,
13.356,1.03,-0.05,2.15,0.33,-0.40,-0.50,
13.393,1.03,-0.05,2.15,0.47,-0.25,-0.48,
13.394,1.03,-0.05,2.15,0.47,-0.25,-0.48,
13.394,0.97,0.47,1.79,0.47,-0.25,-0.48,
13.395,0.97,0.47,1.79,0.47,-0.25,-0.48,
13.431,0.97,0.47,1.79,0.49,0.02,-0.29,
13.433,0.97,0.47,1.79,0.49,0.02,-0.29,
13.435,0.68,0.73,1.41,0.49,0.02,-0.29,
13.436,0.68,0.73,1.41,0.49,0.02,-0.29,
13.469,0.68,0.73,1.41,0.43,0.24,0.07,
13.47,0.68,0.73,1.41,0.43,0.24,0.07,
13.47,0.21,0.83,1.29,0.43,0.24,0.07,
13.471,0.21,0.83,1.29,0.43,0.24,0.07,
13.506,0.21,0.83,1.29,0.35,0.35,0.38,
13.508,0.21,0.83,1.29,0.35,0.35,0.38,
13.509,-0.08,0.83,1.11,0.35,0.35,0.38,
13.511,-0.08,0.83,1.11,0.35,0.35,0.38,
13.544,-0.08,0.83,1.11,0.31,0.39,0.42,
13.545,-0.08,0.83,1.11,0.31,0.39,0.42,
13.545,-0.09,0.69,1.14,0.31,0.39,0.42,
13.546,-0.09,0.69,1.14,0.31,0.39,0.42,
13.582,-0.09,0.69,1.14,0.44,0.38,0.20,
13.584,-0.09,0.69,1.14,0.44,0.38,0.20,
13.585,-0.04,0.46,1.28,0.44,0.38,0.20,
13.586,-0.04,0.46,1.28,0.44,0.38,0.20,
13.626,-0.04,0.46,1.28,0.63,0.28,-0.02,
13.628,-0.04,0.46,1.28,0.63,0.28,-0.02,
13.629,-0.03,0.14,1.50,0.63,0.28,-0.02,
13.63,-0.03,0.14,1.50,0.63,0.28,-0.02,
13.658,-0.03,0.14,1.50,0.83,0.30,-0.06,
13.659,-0.03,0.14,1.50,0.83,0.30,-0.06,
13.66,-0.12,-0.25,1.90,0.83,0.30,-0.06,
13.66,-0.12,-0.25,1.90,0.83,0.30,-0.06,
13.697,-0.12,-0.25,1.90,1.43,0.50,-0.02,
13.699,-0.12,-0.25,1.90,1.43,0.50,-0.02,
13.7,-0.12,-0.64,3.60,1.43,0.50,-0.02,
13.701,-0.12,-0.64,3.60,1.43,0.50,-0.02,
13.734,-0.12,-0.64,3.60,1.88,0.82,0.18,
13.736,-0.12,-0.64,3.60,1.88,0.82,0.18,
13.736,-1.95,-2.61,3.49,1.88,0.82,0.18,
13.737,-1.95,-2.61,3.49,1.88,0.82,0.18,
13.773,-1.95,-2.61,3.49,1.12,1.14,1.12,
13.774,-1.95,-2.61,3.49,1.12,1.14,1.12,
13.774,-2.22,-2.78,2.80,1.12,1.14,1.12,
13.775,-2.22,-2.78,2.80,1.12,1.14,1.12,
13.811,-2.22,-2.78,2.80,-0.10,0.79,1.04,
13.812,-2.22,-2.78,2.80,-0.10,0.79,1.04,
13.813,-2.18,-2.90,0.61,-0.10,0.79,1.04,
13.815,-2.18,-2.90,0.61,-0.10,0.79,1.04,
13.848,-2.18,-2.90,0.61,-1.74,0.42,0.67,
13.849,-2.18,-2.90,0.61,-1.74,0.42,0.67,
13.849,-2.03,-2.98,-2.33,-1.74,0.42,0.67,
13.85,-2.03,-2.98,-2.33,-1.74,0.42,0.67,
13.886,-2.03,-2.98,-2.33,-2.49,0.17,-0.07,
13.887,-2.03,-2.98,-2.33,-2.49,0.17,-0.07,
13.888,-0.21,-2.56,-2.38,-2.49,0.17,-0.07,
13.888,-0.21,-2.56,-2.38,-2.49,0.17,-0.07,
13.932,-0.21,-2.56,-2.38,-1.94,0.34,-0.72,
13.933,-0.21,-2.56,-2.38,-1.94,0.34,-0.72,
13.934,0.07,-1.90,-1.95,-1.94,0.34,-0.72,
13.934,0.07,-1.90,-1.95,-1.94,0.34,-0.72,
13.962,0.07,-1.90,-1.95,-0.87,1.28,-0.15,
13.964,0.07,-1.90,-1.95,-0.87,1.28,-0.15,
13.964,-1.53,-0.42,-1.56,-0.87,1.28,-0.15,
13.965,-1.53,-0.42,-1.56,-0.87,1.28,-0.15,
14.001,-1.53,-0.42,-1.56,0.35,2.28,1.52,
14.002,-1.53,-0.42,-1.56,0.35,2.28,1.52,
14.003,-3.02,0.10,0.03,0.35,2.28,1.52,
14.003,-3.02,0.10,0.03,0.35,2.28,1.52,
14.041,-3.02,0.10,0.03,0.13,1.41,2.34,
14.043,-3.02,0.10,0.03,0.13,1.41,2.34,
14.044,-2.78,1.60,0.38,0.13,1.41,2.34,
14.044,-2.78,1.60,0.38,0.13,1.41,2.34,
14.076,-2.78,1.60,0.38,0.40,0.87,1.92,
14.078,-2.78,1.60,0.38,0.40,0.87,1.92,
14.079,-2.22,1.77,0.26,0.40,0.87,1.92,
14.08,-2.22,1.77,0.26,0.40,0.87,1.92,
14.126,-2.22,1.77,0.26,0.69,1.45,1.20,
14.129,-2.22,1.77,0.26,0.69,1.45,1.20,
14.13,-1.45,1.95,0.20,0.69,1.45,1.20,
14.131,-1.45,1.95,0.20,0.69,1.45,1.20,
14.152,-1.45,1.95,0.20,1.23,3.80,-0.56,
14.154,-1.45,1.95,0.20,1.23,3.80,-0.56,
14.155,0.36,2.04,0.10,1.23,3.80,-0.56,
14.156,0.36,2.04,0.10,1.23,3.80,-0.56,
14.19,0.36,2.04,0.10,0.73,3.99,-1.79,
14.192,0.36,2.04,0.10,0.73,3.99,-1.79,
14.193,0.69,2.08,-0.04,0.73,3.99,-1.79,
14.193,0.69,2.08,-0.04,0.73,3.99,-1.79,
14.227,0.69,2.08,-0.04,0.34,2.91,-1.22,
14.228,0.69,2.08,-0.04,0.34,2.91,-1.22,
14.229,0.74,2.34,0.09,0.34,2.91,-1.22,
14.229,0.74,2.34,0.09,0.34,2.91,-1.22,
14.266,0.74,2.34,0.09,0.27,2.24,-0.55,
14.268,0.74,2.34,0.09,0.27,2.24,-0.55,
14.269,0.77,2.65,0.08,0.27,2.24,-0.55,
14.27,0.77,2.65,0.08,0.27,2.24,-0.55,
14.305,0.77,2.65,0.08,0.23,1.99,-0.27,
14.307,0.77,2.65,0.08,0.23,1.99,-0.27,
14.308,1.04,2.81,-0.15,0.23,1.99,-0.27,
14.309,1.04,2.81,-0.15,0.23,1.99,-0.27,
14.342,1.04,2.81,-0.15,-0.04,1.81,-0.54,
14.343,1.04,2.81,-0.15,-0.04,1.81,-0.54,
14.344,1.61,2.54,-0.61,-0.04,1.81,-0.54,
14.344,1.61,2.54,-0.61,-0.04,1.81,-0.54,
14.38,1.61,2.54,-0.61,-0.91,1.37,-1.70,
14.382,1.61,2.54,-0.61,-0.91,1.37,-1.70,
14.382,3.54,0.68,-2.62,-0.91,1.37,-1.70,
14.383,3.54,0.68,-2.62,-0.91,1.37,-1.70,
14.425,3.54,0.68,-2.62,-2.22,0.84,-2.36,
14.426,3.54,0.68,-2.62,-2.22,0.84,-2.36,
14.427,3.73,-1.37,-4.41,-2.22,0.84,-2.36,
14.428,3.73,-1.37,-4.41,-2.22,0.84,-2.36,
14.456,3.73,-1.37,-4.41,-1.98,0.84,-1.15,
14.457,3.73,-1.37,-4.41,-1.98,0.84,-1.15,
14.458,3.23,-3.32,-4.31,-1.98,0.84,-1.15,
14.458,3.23,-3.32,-4.31,-1.98,0.84,-1.15,
14.494,3.23,-3.32,-4.31,-1.35,1.75,0.15,
14.495,3.23,-3.32,-4.31,-1.35,1.75,0.15,
14.496,0.97,-3.26,-4.53,-1.35,1.75,0.15,
14.496,0.97,-3.26,-4.53,-1.35,1.75,0.15,
14.534,0.97,-3.26,-4.53,-0.47,2.06,2.29,
14.535,0.97,-3.26,-4.53,-0.47,2.06,2.29,
14.536,-1.76,-0.77,-1.42,-0.47,2.06,2.29,
14.537,-1.76,-0.77,-1.42,-0.47,2.06,2.29,
14.571,-1.76,-0.77,-1.42,0.89,1.53,3.25,
14.573,-1.76,-0.77,-1.42,0.89,1.53,3.25,
14.573,-2.39,-0.30,-0.44,0.89,1.53,3.25,
14.574,-2.39,-0.30,-0.44,0.89,1.53,3.25,
14.608,-2.39,-0.30,-0.44,1.26,0.03,2.64,
14.609,-2.39,-0.30,-0.44,1.26,0.03,2.64,
14.61,-2.32,1.37,2.39,1.26,0.03,2.64,
14.61,-2.32,1.37,2.39,1.26,0.03,2.64,
14.645,-2.32,1.37,2.39,1.59,-3.92,1.18,
14.648,-2.32,1.37,2.39,1.59,-3.92,1.18,
14.649,-0.82,1.15,4.21,1.59,-3.92,1.18,
14.649,-0.82,1.15,4.21,1.59,-3.92,1.18,
14.683,-0.82,1.15,4.21,2.23,-3.79,0.01,
14.684,-0.82,1.15,4.21,2.23,-3.79,0.01,
14.685,-0.28,0.78,4.41,2.23,-3.79,0.01,
14.685,-0.28,0.78,4.41,2.23,-3.79,0.01,
14.724,-0.28,0.78,4.41,1.93,-2.33,-0.84,
14.725,-0.28,0.78,4.41,1.93,-2.33,-0.84,
14.725,-0.05,0.40,4.46,1.93,-2.33,-0.84,
14.726,-0.05,0.40,4.46,1.93,-2.33,-0.84,
14.76,-0.05,0.40,4.46,1.15,-0.86,-0.95,
14.761,-0.05,0.40,4.46,1.15,-0.86,-0.95,
14.762,-0.01,0.25,3.97,1.15,-0.86,-0.95,
14.762,-0.01,0.25,3.97,1.15,-0.86,-0.95,
14.797,-0.01,0.25,3.97,0.47,0.30,-0.78,
14.799,-0.01,0.25,3.97,0.47,0.30,-0.78,
14.799,0.07,0.37,3.20,0.47,0.30,-0.78,
14.8,0.07,0.37,3.20,0.47,0.30,-0.78,
14.836,0.07,0.37,3.20,0.11,0.86,-0.57,
14.838,0.07,0.37,3.20,0.11,0.86,-0.57,
14.839,0.15,0.43,2.60,0.11,0.86,-0.57,
14.84,0.15,0.43,2.60,0.11,0.86,-0.57,
14.873,0.15,0.43,2.60,0.07,1.18,-0.53,
14.875,0.15,0.43,2.60,0.07,1.18,-0.53,
14.875,0.43,0.46,2.12,0.07,1.18,-0.53,
14.876,0.43,0.46,2.12,0.07,1.18,-0.53,
14.911,0.43,0.46,2.12,0.07,1.37,-0.72,
14.912,0.43,0.46,2.12,0.07,1.37,-0.72,
14.913,0.84,0.49,1.50,0.07,1.37,-0.72,
14.913,0.84,0.49,1.50,0.07,1.37,-0.72,
14.949,0.84,0.49,1.50,0.05,1.25,-0.85,
14.95,0.84,0.49,1.50,0.05,1.25,-0.85,
14.951,1.08,0.39,0.85,0.05,1.25,-0.85,
14.951,1.08,0.39,0.85,0.05,1.25,-0.85,
14.987,1.08,0.39,0.85,-0.09,1.29,-0.89,
14.989,1.08,0.39,0.85,-0.09,1.29,-0.89,
14.989,1.16,0.19,-0.00,-0.09,1.29,-0.89,
14.99,1.16,0.19,-0.00,-0.09,1.29,-0.89,
15.026,1.16,0.19,-0.00,-0.35,1.22,-0.82,
15.027,1.16,0.19,-0.00,-0.35,1.22,-0.82,
15.028,1.20,0.11,-0.65,-0.35,1.22,-0.82,
15.029,1.20,0.11,-0.65,-0.35,1.22,-0.82,
15.064,1.20,0.11,-0.65,-0.45,1.07,-0.76,
15.065,1.20,0.11,-0.65,-0.45,1.07,-0.76,
15.066,1.32,0.16,-0.76,-0.45,1.07,-0.76,
15.066,1.32,0.16,-0.76,-0.45,1.07,-0.76,
15.102,1.32,0.16,-0.76,-0.33,0.86,-0.77,
15.103,1.32,0.16,-0.76,-0.33,0.86,-0.77,
15.104,1.36,0.25,-0.65,-0.33,0.86,-0.77,
15.104,1.36,0.25,-0.65,-0.33,0.86,-0.77,
15.151,1.36,0.25,-0.65,-0.16,0.82,-0.70,
15.152,1.36,0.25,-0.65,-0.16,0.82,-0.70,
15.153,1.26,0.09,-0.50,-0.16,0.82,-0.70,
15.154,1.26,0.09,-0.50,-0.16,0.82,-0.70,
15.177,1.26,0.09,-0.50,-0.22,1.22,-0.56,
15.179,1.26,0.09,-0.50,-0.22,1.22,-0.56,
15.179,1.03,-0.39,-0.68,-0.22,1.22,-0.56,
15.18,1.03,-0.39,-0.68,-0.22,1.22,-0.56,
15.216,1.03,-0.39,-0.68,-0.68,1.84,-0.42,
15.217,1.03,-0.39,-0.68,-0.68,1.84,-0.42,
15.218,0.56,-2.09,-2.44,-0.68,1.84,-0.42,
15.218,0.56,-2.09,-2.44,-0.68,1.84,-0.42,
15.253,0.56,-2.09,-2.44,0.08,2.90,-0.18,
15.254,0.56,-2.09,-2.44,0.08,2.90,-0.18,
15.255,-1.23,-2.26,-2.47,0.08,2.90,-0.18,
15.255,-1.23,-2.26,-2.47,0.08,2.90,-0.18,
15.291,-1.23,-2.26,-2.47,-0.47,3.10,1.08,
15.292,-1.23,-2.26,-2.47,-0.47,3.10,1.08,
15.293,-3.12,-2.26,-2.21,-0.47,3.10,1.08,
15.294,-3.12,-2.26,-2.21,-0.47,3.10,1.08,
15.329,-3.12,-2.26,-2.21,0.01,2.91,1.85,
15.331,-3.12,-2.26,-2.21,0.01,2.91,1.85,
15.332,-3.59,-2.08,-1.47,0.01,2.91,1.85,
15.333,-3.59,-2.08,-1.47,0.01,2.91,1.85,
15.367,-3.59,-2.08,-1.47,0.63,2.20,1.58,
15.368,-3.59,-2.08,-1.47,0.63,2.20,1.58,
15.369,-3.72,-1.66,-0.58,0.63,2.20,1.58,
15.37,-3.72,-1.66,-0.58,0.63,2.20,1.58,
15.406,-3.72,-1.66,-0.58,0.97,1.37,1.03,
15.407,-3.72,-1.66,-0.58,0.97,1.37,1.03,
15.408,-3.09,-1.14,0.08,0.97,1.37,1.03,
15.408,-3.09,-1.14,0.08,0.97,1.37,1.03,
15.443,-3.09,-1.14,0.08,0.99,0.89,0.40,
15.445,-3.09,-1.14,0.08,0.99,0.89,0.40,
15.446,-0.96,-0.58,0.10,0.99,0.89,0.40,
15.447,-0.96,-0.58,0.10,0.99,0.89,0.40,
15.481,-0.96,-0.58,0.10,0.66,0.48,-0.79,
15.482,-0.96,-0.58,0.10,0.66,0.48,-0.79,
15.483,-0.37,1.21,-0.02,0.66,0.48,-0.79,
15.484,-0.37,1.21,-0.02,0.66,0.48,-0.79,
15.523,-0.37,1.21,-0.02,0.39,0.38,-0.86,
15.525,-0.37,1.21,-0.02,0.39,0.38,-0.86,
15.525,0.10,1.74,0.06,0.39,0.38,-0.86,
15.526,0.10,1.74,0.06,0.39,0.38,-0.86,
15.558,0.10,1.74,0.06,0.30,0.43,-0.61,
15.559,0.10,1.74,0.06,0.30,0.43,-0.61,
15.56,0.54,3.14,0.09,0.30,0.43,-0.61,
15.56,0.54,3.14,0.09,0.30,0.43,-0.61,
15.595,0.54,3.14,0.09,0.29,0.78,-0.47,
15.596,0.54,3.14,0.09,0.29,0.78,-0.47,
15.597,0.93,3.15,0.08,0.29,0.78,-0.47,
15.598,0.93,3.15,0.08,0.29,0.78,-0.47,
15.633,0.93,3.15,0.08,0.14,1.05,-0.61,
15.634,0.93,3.15,0.08,0.14,1.05,-0.61,
15.635,1.55,2.62,-0.29,0.14,1.05,-0.61,
15.636,1.55,2.62,-0.29,0.14,1.05,-0.61,
15.671,1.55,2.62,-0.29,-1.24,1.71,-1.89,
15.672,1.55,2.62,-0.29,-1.24,1.71,-1.89,
15.673,3.68,0.41,-2.33,-1.24,1.71,-1.89,
15.673,3.68,0.41,-2.33,-1.24,1.71,-1.89,
15.709,3.68,0.41,-2.33,-2.88,2.47,-2.46,
15.71,3.68,0.41,-2.33,-2.88,2.47,-2.46,
15.71,4.03,-1.22,-4.21,-2.88,2.47,-2.46,
15.711,4.03,-1.22,-4.21,-2.88,2.47,-2.46,
15.747,4.03,-1.22,-4.21,-2.92,2.06,-1.49,
15.749,4.03,-1.22,-4.21,-2.92,2.06,-1.49,
15.75,3.86,-1.53,-4.68,-2.92,2.06,-1.49,
15.752,3.86,-1.53,-4.68,-2.92,2.06,-1.49,
15.786,3.86,-1.53,-4.68,-2.25,1.57,-0.81,
15.787,3.86,-1.53,-4.68,-2.25,1.57,-0.81,
15.787,3.24,-1.90,-4.57,-2.25,1.57,-0.81,
15.788,3.24,-1.90,-4.57,-2.25,1.57,-0.81,
15.823,3.24,-1.90,-4.57,-0.80,0.74,0.72,
15.825,3.24,-1.90,-4.57,-0.80,0.74,0.72,
15.828,-0.46,-2.03,-2.58,-0.80,0.74,0.72,
15.829,-0.46,-2.03,-2.58,-0.80,0.74,0.72,
15.861,-0.46,-2.03,-2.58,0.79,-0.18,2.41,
15.862,-0.46,-2.03,-2.58,0.79,-0.18,2.41,
15.863,-2.65,-1.47,-0.22,0.79,-0.18,2.41,
15.864,-2.65,-1.47,-0.22,0.79,-0.18,2.41,
15.899,-2.65,-1.47,-0.22,1.64,0.06,2.92,
15.9,-2.65,-1.47,-0.22,1.64,0.06,2.92,
15.901,-3.30,-0.06,0.69,1.64,0.06,2.92,
15.902,-3.30,-0.06,0.69,1.64,0.06,2.92,
15.94,-3.30,-0.06,0.69,2.27,0.10,1.66,
15.942,-3.30,-0.06,0.69,2.27,0.10,1.66,
15.943,-3.68,0.14,3.09,2.27,0.10,1.66,
15.944,-3.68,0.14,3.09,2.27,0.10,1.66,
15.976,-3.68,0.14,3.09,3.07,-0.52,0.92,
15.977,-3.68,0.14,3.09,3.07,-0.52,0.92,
15.978,-1.91,0.50,5.01,3.07,-0.52,0.92,
15.978,-1.91,0.50,5.01,3.07,-0.52,0.92,
16.013,-1.91,0.50,5.01,3.26,-0.66,-0.37,
16.014,-1.91,0.50,5.01,3.26,-0.66,-0.37,
16.015,0.16,0.28,5.05,3.26,-0.66,-0.37,
16.015,0.16,0.28,5.05,3.26,-0.66,-0.37,
16.05,0.16,0.28,5.05,2.01,0.13,-2.19,
16.052,0.16,0.28,5.05,2.01,0.13,-2.19,
16.053,0.48,-0.14,4.53,2.01,0.13,-2.19,
16.054,0.48,-0.14,4.53,2.01,0.13,-2.19,
16.089,0.48,-0.14,4.53,0.45,0.96,-2.32,
16.091,0.48,-0.14,4.53,0.45,0.96,-2.32,
16.092,0.88,-0.19,2.53,0.45,0.96,-2.32,
16.093,0.88,-0.19,2.53,0.45,0.96,-2.32,
16.14,0.88,-0.19,2.53,-0.92,1.66,-1.82,
16.142,0.88,-0.19,2.53,-0.92,1.66,-1.82,
16.143,1.15,-0.16,1.54,-0.92,1.66,-1.82,
16.144,1.15,-0.16,1.54,-0.92,1.66,-1.82,
16.167,1.15,-0.16,1.54,-1.29,1.87,-1.20,
16.168,1.15,-0.16,1.54,-1.29,1.87,-1.20,
16.169,1.20,-0.11,0.60,-1.29,1.87,-1.20,
16.17,1.20,-0.11,0.60,-1.29,1.87,-1.20,
16.203,1.20,-0.11,0.60,-1.21,1.82,-0.87,
16.205,1.20,-0.11,0.60,-1.21,1.82,-0.87,
16.206,1.61,0.01,0.46,-1.21,1.82,-0.87,
16.206,1.61,0.01,0.46,-1.21,1.82,-0.87,
16.241,1.61,0.01,0.46,-0.71,1.54,-0.83,
16.242,1.61,0.01,0.46,-0.71,1.54,-0.83,
16.242,1.84,0.03,-0.07,-0.71,1.54,-0.83,
16.243,1.84,0.03,-0.07,-0.71,1.54,-0.83,
16.278,1.84,0.03,-0.07,-0.54,1.28,-0.67,
16.279,1.84,0.03,-0.07,-0.54,1.28,-0.67,
16.28,1.47,0.14,-0.77,-0.54,1.28,-0.67,
16.281,1.47,0.14,-0.77,-0.54,1.28,-0.67,
16.316,1.47,0.14,-0.77,-0.54,1.09,-0.28,
16.318,1.47,0.14,-0.77,-0.54,1.09,-0.28,
16.32,0.86,0.29,-1.01,-0.54,1.09,-0.28,
16.321,0.86,0.29,-1.01,-0.54,1.09,-0.28,
16.359,0.86,0.29,-1.01,-0.45,0.99,0.02,
16.361,0.86,0.29,-1.01,-0.45,0.99,0.02,
16.361,0.41,0.38,-0.99,-0.45,0.99,0.02,
16.362,0.41,0.38,-0.99,-0.45,0.99,0.02,
16.393,0.41,0.38,-0.99,-0.14,0.81,0.25,
16.394,0.41,0.38,-0.99,-0.14,0.81,0.25,
16.394,0.13,0.44,-0.55,-0.14,0.81,0.25,
16.395,0.13,0.44,-0.55,-0.14,0.81,0.25,
16.43,0.13,0.44,-0.55,0.27,0.71,0.16,
16.431,0.13,0.44,-0.55,0.27,0.71,0.16,
16.432,-0.04,0.23,0.06,0.27,0.71,0.16,
16.432,-0.04,0.23,0.06,0.27,0.71,0.16,
16.468,-0.04,0.23,0.06,0.61,0.51,-0.00,
16.469,-0.04,0.23,0.06,0.61,0.51,-0.00,
16.469,0.04,-0.09,0.65,0.61,0.51,-0.00,
16.47,0.04,-0.09,0.65,0.61,0.51,-0.00,
16.506,0.04,-0.09,0.65,0.71,0.36,-0.04,
16.508,0.04,-0.09,0.65,0.71,0.36,-0.04,
16.508,-0.10,-1.83,1.25,0.71,0.36,-0.04,
16.509,-0.10,-1.83,1.25,0.71,0.36,-0.04,
16.544,-0.10,-1.83,1.25,0.55,0.37,0.09,
16.545,-0.10,-1.83,1.25,0.55,0.37,0.09,
16.546,-0.71,-2.21,1.02,0.55,0.37,0.09,
16.546,-0.71,-2.21,1.02,0.55,0.37,0.09,
16.582,-0.71,-2.21,1.02,-0.04,0.46,0.49,
16.583,-0.71,-2.21,1.02,-0.04,0.46,0.49,
16.584,-1.10,-2.59,0.39,-0.04,0.46,0.49,
16.584,-1.10,-2.59,0.39,-0.04,0.46,0.49,
16.62,-1.10,-2.59,0.39,-0.89,0.49,0.59,
16.622,-1.10,-2.59,0.39,-0.89,0.49,0.59,
16.623,-1.27,-3.04,-1.51,-0.89,0.49,0.59,
16.625,-1.27,-3.04,-1.51,-0.89,0.49,0.59,
16.658,-1.27,-3.04,-1.51,-1.92,0.71,0.47,
16.658,-1.27,-3.04,-1.51,-1.92,0.71,0.47,
16.659,-1.24,-3.22,-3.38,-1.92,0.71,0.47,
16.659,-1.24,-3.22,-3.38,-1.92,0.71,0.47,
16.696,-1.24,-3.22,-3.38,-2.04,1.47,0.24,
16.697,-1.24,-3.22,-3.38,-2.04,1.47,0.24,
16.697,-0.66,-3.18,-3.23,-2.04,1.47,0.24,
16.698,-0.66,-3.18,-3.23,-2.04,1.47,0.24,
16.743,-0.66,-3.18,-3.23,-1.50,1.25,-0.02,
16.744,-0.66,-3.18,-3.23,-1.50,1.25,-0.02,
16.744,-0.36,-3.13,-3.14,-1.50,1.25,-0.02,
16.744,-0.36,-3.13,-3.14,-1.50,1.25,-0.02,
16.772,-0.36,-3.13,-3.14,-0.78,0.35,-0.17,
16.773,-0.36,-3.13,-3.14,-0.78,0.35,-0.17,
16.773,-0.55,-2.61,-2.46,-0.78,0.35,-0.17,
16.774,-0.55,-2.61,-2.46,-0.78,0.35,-0.17,
16.811,-0.55,-2.61,-2.46,-0.24,-0.78,-0.17,
16.813,-0.55,-2.61,-2.46,-0.24,-0.78,-0.17,
16.814,-0.25,-0.95,-1.77,-0.24,-0.78,-0.17,
16.814,-0.25,-0.95,-1.77,-0.24,-0.78,-0.17,
16.848,-0.25,-0.95,-1.77,-0.01,-1.61,-0.35,
16.85,-0.25,-0.95,-1.77,-0.01,-1.61,-0.35,
16.852,0.20,-0.50,-1.43,-0.01,-1.61,-0.35,
16.853,0.20,-0.50,-1.43,-0.01,-1.61,-0.35,
16.886,0.20,-0.50,-1.43,0.04,-2.40,-0.60,
16.887,0.20,-0.50,-1.43,0.04,-2.40,-0.60,
16.888,0.44,1.48,-0.86,0.04,-2.40,-0.60,
16.889,0.44,1.48,-0.86,0.04,-2.40,-0.60,
16.924,0.44,1.48,-0.86,0.09,-2.92,-0.69,
16.925,0.44,1.48,-0.86,0.09,-2.92,-0.69,
16.925,0.59,3.15,-0.35,0.09,-2.92,-0.69,
16.926,0.59,3.15,-0.35,0.09,-2.92,-0.69,
16.962,0.59,3.15,-0.35,0.27,-3.05,-0.54,
16.963,0.59,3.15,-0.35,0.27,-3.05,-0.54,
16.963,0.25,5.24,0.25,0.27,-3.05,-0.54,
16.963,0.25,5.24,0.25,0.27,-3.05,-0.54,
16.999,0.25,5.24,0.25,0.42,-2.84,0.21,
17.001,0.25,5.24,0.25,0.42,-2.84,0.21,
17.001,-0.25,5.71,0.60,0.42,-2.84,0.21,
17.002,-0.25,5.71,0.60,0.42,-2.84,0.21,
17.039,-0.25,5.71,0.60,0.11,-1.87,0.92,
17.04,-0.25,5.71,0.60,0.11,-1.87,0.92,
17.041,-0.22,6.05,0.41,0.11,-1.87,0.92,
17.041,-0.22,6.05,0.41,0.11,-1.87,0.92,
17.076,-0.22,6.05,0.41,-3.02,1.92,1.06,
17.078,-0.22,6.05,0.41,-3.02,1.92,1.06,
17.078,0.05,5.73,-3.39,-3.02,1.92,1.06,
17.079,0.05,5.73,-3.39,-3.02,1.92,1.06,
17.127,0.05,5.73,-3.39,-5.74,3.12,1.06,
17.128,0.05,5.73,-3.39,-5.74,3.12,1.06,
17.129,0.10,1.78,-5.19,-5.74,3.12,1.06,
17.129,0.10,1.78,-5.19,-5.74,3.12,1.06,
17.152,0.10,1.78,-5.19,-3.32,1.58,0.30,
17.154,0.10,1.78,-5.19,-3.32,1.58,0.30,
17.155,0.08,1.50,-5.02,-3.32,1.58,0.30,
17.156,0.08,1.50,-5.02,-3.32,1.58,0.30,
17.19,0.08,1.50,-5.02,-1.06,0.72,0.28,
17.191,0.08,1.50,-5.02,-1.06,0.72,0.28,
17.192,-0.25,1.37,-4.49,-1.06,0.72,0.28,
17.192,-0.25,1.37,-4.49,-1.06,0.72,0.28,
17.228,-0.25,1.37,-4.49,0.58,0.49,0.53,
17.229,-0.25,1.37,-4.49,0.58,0.49,0.53,
17.229,-0.55,-1.31,-2.05,0.58,0.49,0.53,
17.23,-0.55,-1.31,-2.05,0.58,0.49,0.53,
17.266,-0.55,-1.31,-2.05,1.96,0.56,0.60,
17.266,-0.55,-1.31,-2.05,1.96,0.56,0.60,
17.267,-0.35,-1.32,-0.90,1.96,0.56,0.60,
17.267,-0.35,-1.32,-0.90,1.96,0.56,0.60,
17.303,-0.35,-1.32,-0.90,1.99,0.68,0.50,
17.305,-0.35,-1.32,-0.90,1.99,0.68,0.50,
17.305,-0.19,-1.31,1.03,1.99,0.68,0.50,
17.306,-0.19,-1.31,1.03,1.99,0.68,0.50,
17.341,-0.19,-1.31,1.03,2.22,0.85,0.30,
17.342,-0.19,-1.31,1.03,2.22,0.85,0.30,
17.343,0.04,-2.07,1.78,2.22,0.85,0.30,
17.344,0.04,-2.07,1.78,2.22,0.85,0.30,
17.38,0.04,-2.07,1.78,1.81,1.29,0.07,
17.381,0.04,-2.07,1.78,1.81,1.29,0.07,
17.382,0.54,-2.21,2.07,1.81,1.29,0.07,
17.384,0.54,-2.21,2.07,1.81,1.29,0.07,
17.419,0.54,-2.21,2.07,1.29,1.40,-0.24,
17.421,0.54,-2.21,2.07,1.29,1.40,-0.24,
17.422,0.90,-1.83,2.46,1.29,1.40,-0.24,
17.423,0.90,-1.83,2.46,1.29,1.40,-0.24,
17.456,0.90,-1.83,2.46,0.92,1.19,-0.45,
17.457,0.90,-1.83,2.46,0.92,1.19,-0.45,
17.458,1.19,-1.65,2.38,0.92,1.19,-0.45,
17.458,1.19,-1.65,2.38,0.92,1.19,-0.45,
17.493,1.19,-1.65,2.38,0.65,0.92,-0.55,
17.495,1.19,-1.65,2.38,0.65,0.92,-0.55,
17.495,1.53,-1.36,2.16,0.65,0.92,-0.55,
17.496,1.53,-1.36,2.16,0.65,0.92,-0.55,
17.538,1.53,-1.36,2.16,0.50,0.55,-0.69,
17.539,1.53,-1.36,2.16,0.50,0.55,-0.69,
17.539,1.59,-0.67,2.15,0.50,0.55,-0.69,
17.54,1.59,-0.67,2.15,0.50,0.55,-0.69,
17.57,1.59,-0.67,2.15,0.61,0.26,-0.59,
17.57,1.59,-0.67,2.15,0.61,0.26,-0.59,
17.571,1.36,-0.00,2.15,0.61,0.26,-0.59,
17.571,1.36,-0.00,2.15,0.61,0.26,-0.59,
17.608,1.36,-0.00,2.15,0.68,0.24,-0.29,
17.61,1.36,-0.00,2.15,0.68,0.24,-0.29,
17.611,0.98,0.47,1.99,0.68,0.24,-0.29,
17.612,0.98,0.47,1.99,0.68,0.24,-0.29,
17.646,0.98,0.47,1.99,0.61,0.36,0.07,
17.648,0.98,0.47,1.99,0.61,0.36,0.07,
17.649,0.49,0.74,1.73,0.61,0.36,0.07,
17.649,0.49,0.74,1.73,0.61,0.36,0.07,
17.683,0.49,0.74,1.73,0.49,0.40,0.34,
17.684,0.49,0.74,1.73,0.49,0.40,0.34,
17.685,0.00,0.82,1.39,0.49,0.40,0.34,
17.686,0.00,0.82,1.39,0.49,0.40,0.34,
17.722,0.00,0.82,1.39,0.22,0.43,0.60,
17.723,0.00,0.82,1.39,0.22,0.43,0.60,
17.723,-0.23,0.82,0.99,0.22,0.43,0.60,
17.724,-0.23,0.82,0.99,0.22,0.43,0.60,
17.759,-0.23,0.82,0.99,0.10,0.34,0.48,
17.761,-0.23,0.82,0.99,0.10,0.34,0.48,
17.762,-0.28,0.59,0.89,0.10,0.34,0.48,
17.763,-0.28,0.59,0.89,0.10,0.34,0.48,
17.796,-0.28,0.59,0.89,0.14,0.18,0.18,
17.797,-0.28,0.59,0.89,0.14,0.18,0.18,
17.797,-0.23,0.20,0.80,0.14,0.18,0.18,
17.797,-0.23,0.20,0.80,0.14,0.18,0.18,
17.838,-0.23,0.20,0.80,0.73,0.22,-0.07,
17.839,-0.23,0.20,0.80,0.73,0.22,-0.07,
17.84,-0.11,-0.26,2.27,0.73,0.22,-0.07,
17.84,-0.11,-0.26,2.27,0.73,0.22,-0.07,
17.873,-0.11,-0.26,2.27,1.42,0.44,-0.16,
17.874,-0.11,-0.26,2.27,1.42,0.44,-0.16,
17.874,-0.18,-2.14,2.71,1.42,0.44,-0.16,
17.874,-0.18,-2.14,2.71,1.42,0.44,-0.16,
17.911,-0.18,-2.14,2.71,1.34,0.24,0.44,
17.914,-0.18,-2.14,2.71,1.34,0.24,0.44,
17.915,-1.84,-2.47,2.53,1.34,0.24,0.44,
17.916,-1.84,-2.47,2.53,1.34,0.24,0.44,
17.948,-1.84,-2.47,2.53,0.34,-0.18,1.14,
17.949,-1.84,-2.47,2.53,0.34,-0.18,1.14,
17.95,-1.92,-2.92,0.69,0.34,-0.18,1.14,
17.951,-1.92,-2.92,0.69,0.34,-0.18,1.14,
17.986,-1.92,-2.92,0.69,-1.31,0.20,0.88,
17.988,-1.92,-2.92,0.69,-1.31,0.20,0.88,
17.988,-1.82,-3.41,-2.22,-1.31,0.20,0.88,
17.989,-1.82,-3.41,-2.22,-1.31,0.20,0.88,
18.025,-1.82,-3.41,-2.22,-2.25,0.52,0.43,
18.026,-1.82,-3.41,-2.22,-2.25,0.52,0.43,
18.027,-1.67,-3.93,-2.77,-2.25,0.52,0.43,
18.028,-1.67,-3.93,-2.77,-2.25,0.52,0.43,
18.067,-1.67,-3.93,-2.77,-1.44,0.58,0.17,
18.069,-1.67,-3.93,-2.77,-1.44,0.58,0.17,
18.07,-1.02,-4.04,-1.44,-1.44,0.58,0.17,
18.07,-1.02,-4.04,-1.44,-1.44,0.58,0.17,
18.102,-1.02,-4.04,-1.44,-0.52,0.22,-0.12,
18.104,-1.02,-4.04,-1.44,-0.52,0.22,-0.12,
18.104,-0.35,-3.72,-1.34,-0.52,0.22,-0.12,
18.105,-0.35,-3.72,-1.34,-0.52,0.22,-0.12,
18.151,-0.35,-3.72,-1.34,-0.00,-0.50,-0.52,
18.153,-0.35,-3.72,-1.34,-0.00,-0.50,-0.52,
18.154,0.21,-2.05,-0.72,-0.00,-0.50,-0.52,
18.154,0.21,-2.05,-0.72,-0.00,-0.50,-0.52,
18.176,0.21,-2.05,-0.72,0.23,-1.08,-0.74,
18.177,0.21,-2.05,-0.72,0.23,-1.08,-0.74,
18.177,0.85,-0.18,-0.41,0.23,-1.08,-0.74,
18.177,0.85,-0.18,-0.41,0.23,-1.08,-0.74,
18.215,0.85,-0.18,-0.41,0.24,-1.41,-0.87,
18.216,0.85,-0.18,-0.41,0.24,-1.41,-0.87,
18.216,1.18,1.43,-0.30,0.24,-1.41,-0.87,
18.217,1.18,1.43,-0.30,0.24,-1.41,-0.87,
18.254,1.18,1.43,-0.30,0.20,-1.69,-0.92,
18.255,1.18,1.43,-0.30,0.20,-1.69,-0.92,
18.256,1.18,3.37,0.10,0.20,-1.69,-0.92,
18.256,1.18,3.37,0.10,0.20,-1.69,-0.92,
18.291,1.18,3.37,0.10,0.34,-1.87,-0.66,
18.292,1.18,3.37,0.10,0.34,-1.87,-0.66,
18.293,0.83,5.03,0.47,0.34,-1.87,-0.66,
18.294,0.83,5.03,0.47,0.34,-1.87,-0.66,
18.328,0.83,5.03,0.47,0.46,-2.24,0.02,
18.329,0.83,5.03,0.47,0.46,-2.24,0.02,
18.33,0.35,5.47,0.56,0.46,-2.24,0.02,
18.33,0.35,5.47,0.56,0.46,-2.24,0.02,
18.366,0.35,5.47,0.56,-0.09,-2.06,0.59,
18.367,0.35,5.47,0.56,-0.09,-2.06,0.59,
18.368,0.24,5.59,-1.03,-0.09,-2.06,0.59,
18.368,0.24,5.59,-1.03,-0.09,-2.06,0.59,
18.405,0.24,5.59,-1.03,-3.39,0.80,0.88,
18.406,0.24,5.59,-1.03,-3.39,0.80,0.88,
18.406,0.41,5.35,-2.49,-3.39,0.80,0.88,
18.407,0.41,5.35,-2.49,-3.39,0.80,0.88,
18.447,0.41,5.35,-2.49,-4.15,1.67,0.49,
18.449,0.41,5.35,-2.49,-4.15,1.67,0.49,
18.449,0.46,4.91,-2.86,-4.15,1.67,0.49,
18.45,0.46,4.91,-2.86,-4.15,1.67,0.49,
18.481,0.46,4.91,-2.86,-3.28,1.41,0.27,
18.482,0.46,4.91,-2.86,-3.28,1.41,0.27,
18.483,0.50,3.23,-5.06,-3.28,1.41,0.27,
18.484,0.50,3.23,-5.06,-3.28,1.41,0.27,
18.519,0.50,3.23,-5.06,-2.89,1.03,0.17,
18.52,0.50,3.23,-5.06,-2.89,1.03,0.17,
18.52,0.33,2.65,-6.37,-2.89,1.03,0.17,
18.521,0.33,2.65,-6.37,-2.89,1.03,0.17,
18.557,0.33,2.65,-6.37,-2.04,0.58,0.09,
18.56,0.33,2.65,-6.37,-2.04,0.58,0.09,
18.561,0.32,2.38,-5.45,-2.04,0.58,0.09,
18.562,0.32,2.38,-5.45,-2.04,0.58,0.09,
18.595,0.32,2.38,-5.45,-1.19,0.46,0.12,
18.597,0.32,2.38,-5.45,-1.19,0.46,0.12,
18.597,0.24,2.15,-4.58,-1.19,0.46,0.12,
18.598,0.24,2.15,-4.58,-1.19,0.46,0.12,
18.638,0.24,2.15,-4.58,0.36,0.32,0.24,
18.641,0.24,2.15,-4.58,0.36,0.32,0.24,
18.642,-0.02,0.29,-1.54,0.36,0.32,0.24,
18.642,-0.02,0.29,-1.54,0.36,0.32,0.24,
18.67,-0.02,0.29,-1.54,2.24,0.23,0.34,
18.671,-0.02,0.29,-1.54,2.24,0.23,0.34,
18.671,-0.07,-0.31,1.14,2.24,0.23,0.34,
18.671,-0.07,-0.31,1.14,2.24,0.23,0.34,
18.708,-0.07,-0.31,1.14,3.02,0.18,0.37,
18.71,-0.07,-0.31,1.14,3.02,0.18,0.37,
18.71,-0.35,-2.23,1.95,3.02,0.18,0.37,
18.711,-0.35,-2.23,1.95,3.02,0.18,0.37,
18.746,-0.35,-2.23,1.95,2.74,0.24,0.38,
18.747,-0.35,-2.23,1.95,2.74,0.24,0.38,
18.747,-0.41,-2.80,2.80,2.74,0.24,0.38,
18.748,-0.41,-2.80,2.80,2.74,0.24,0.38,
18.784,-0.41,-2.80,2.80,2.26,0.50,0.40,
18.785,-0.41,-2.80,2.80,2.26,0.50,0.40,
18.786,-0.14,-2.97,3.11,2.26,0.50,0.40,
18.786,-0.14,-2.97,3.11,2.26,0.50,0.40,
18.822,-0.14,-2.97,3.11,1.59,0.85,0.18,
18.823,-0.14,-2.97,3.11,1.59,0.85,0.18,
18.824,0.06,-2.76,3.06,1.59,0.85,0.18,
18.824,0.06,-2.76,3.06,1.59,0.85,0.18,
18.86,0.06,-2.76,3.06,1.09,0.64,-0.08,
18.861,0.06,-2.76,3.06,1.09,0.64,-0.08,
18.862,0.28,-2.65,2.85,1.09,0.64,-0.08,
18.862,0.28,-2.65,2.85,1.09,0.64,-0.08,
18.898,0.28,-2.65,2.85,0.83,0.44,-0.30,
18.899,0.28,-2.65,2.85,0.83,0.44,-0.30,
18.899,0.68,-2.39,2.64,0.83,0.44,-0.30,
18.9,0.68,-2.39,2.64,0.83,0.44,-0.30,
18.936,0.68,-2.39,2.64,0.75,0.26,-0.53,
18.937,0.68,-2.39,2.64,0.75,0.26,-0.53,
18.938,1.06,-1.64,2.60,0.75,0.26,-0.53,
18.938,1.06,-1.64,2.60,0.75,0.26,-0.53,
18.974,1.06,-1.64,2.60,0.74,0.22,-0.64,
18.975,1.06,-1.64,2.60,0.74,0.22,-0.64,
18.975,1.10,0.19,2.59,0.74,0.22,-0.64,
18.975,1.10,0.19,2.59,0.74,0.22,-0.64,
19.013,1.10,0.19,2.59,0.64,0.22,-0.57,
19.014,1.10,0.19,2.59,0.64,0.22,-0.57,
19.015,0.90,0.61,2.16,0.64,0.22,-0.57,
19.015,0.90,0.61,2.16,0.64,0.22,-0.57,
19.054,0.90,0.61,2.16,0.43,0.15,-0.25,
19.056,0.90,0.61,2.16,0.43,0.15,-0.25,
19.057,0.52,1.17,1.59,0.43,0.15,-0.25,
19.058,0.52,1.17,1.59,0.43,0.15,-0.25,
19.088,0.52,1.17,1.59,0.19,0.08,0.21,
19.089,0.52,1.17,1.59,0.19,0.08,0.21,
19.09,-0.07,1.57,1.19,0.19,0.08,0.21,
19.09,-0.07,1.57,1.19,0.19,0.08,0.21,
19.137,-0.07,1.57,1.19,0.12,-0.06,0.56,
19.139,-0.07,1.57,1.19,0.12,-0.06,0.56,
19.14,-0.51,1.62,1.11,0.12,-0.06,0.56,
19.14,-0.51,1.62,1.11,0.12,-0.06,0.56,
19.166,-0.51,1.62,1.11,0.33,-0.21,0.85,
19.168,-0.51,1.62,1.11,0.33,-0.21,0.85,
19.168,-0.75,1.25,1.10,0.33,-0.21,0.85,
19.169,-0.75,1.25,1.10,0.33,-0.21,0.85,
19.202,-0.75,1.25,1.10,0.46,-0.21,0.70,
19.204,-0.75,1.25,1.10,0.46,-0.21,0.70,
19.204,-0.79,-0.51,1.34,0.46,-0.21,0.70,
19.205,-0.79,-0.51,1.34,0.46,-0.21,0.70,
19.24,-0.79,-0.51,1.34,0.82,-0.09,0.27,
19.242,-0.79,-0.51,1.34,0.82,-0.09,0.27,
19.243,-0.45,-0.86,1.69,0.82,-0.09,0.27,
19.244,-0.45,-0.86,1.69,0.82,-0.09,0.27,
19.278,-0.45,-0.86,1.69,1.44,0.16,-0.26,
19.279,-0.45,-0.86,1.69,1.44,0.16,-0.26,
19.279,0.11,-1.26,3.42,1.44,0.16,-0.26,
19.279,0.11,-1.26,3.42,1.44,0.16,-0.26,
19.316,0.11,-1.26,3.42,1.87,0.31,-0.53,
19.317,0.11,-1.26,3.42,1.87,0.31,-0.53,
19.318,0.16,-1.83,3.36,1.87,0.31,-0.53,
19.318,0.16,-1.83,3.36,1.87,0.31,-0.53,
19.361,0.16,-1.83,3.36,1.41,0.07,-0.21,
19.362,0.16,-1.83,3.36,1.41,0.07,-0.21,
19.363,-1.38,-2.08,2.68,1.41,0.07,-0.21,
19.363,-1.38,-2.08,2.68,1.41,0.07,-0.21,
19.392,-1.38,-2.08,2.68,0.10,-0.45,0.96,
19.392,-1.38,-2.08,2.68,0.10,-0.45,0.96,
19.393,-1.62,-2.15,0.81,0.10,-0.45,0.96,
19.393,-1.62,-2.15,0.81,0.10,-0.45,0.96,
19.43,-1.62,-2.15,0.81,-1.42,-0.44,1.16,
19.432,-1.62,-2.15,0.81,-1.42,-0.44,1.16,
19.433,-1.90,-2.27,-1.39,-1.42,-0.44,1.16,
19.435,-1.90,-2.27,-1.39,-1.42,-0.44,1.16,
19.477,-1.90,-2.27,-1.39,-2.07,-0.16,0.96,
19.478,-1.90,-2.27,-1.39,-2.07,-0.16,0.96,
19.478,-1.70,-2.17,-1.67,-2.07,-0.16,0.96,
19.479,-1.70,-2.17,-1.67,-2.07,-0.16,0.96,
19.505,-1.70,-2.17,-1.67,-1.45,-0.06,0.50,
19.506,-1.70,-2.17,-1.67,-1.45,-0.06,0.50,
19.506,-1.13,-2.23,-1.40,-1.45,-0.06,0.50,
19.507,-1.13,-2.23,-1.40,-1.45,-0.06,0.50,
19.545,-1.13,-2.23,-1.40,-0.81,-0.03,0.13,
19.546,-1.13,-2.23,-1.40,-0.81,-0.03,0.13,
19.548,-0.73,-2.47,-1.22,-0.81,-0.03,0.13,
19.549,-0.73,-2.47,-1.22,-0.81,-0.03,0.13,
19.581,-0.73,-2.47,-1.22,-0.20,-0.09,-0.19,
19.582,-0.73,-2.47,-1.22,-0.20,-0.09,-0.19,
19.583,-0.50,-2.40,-1.03,-0.20,-0.09,-0.19,
19.583,-0.50,-2.40,-1.03,-0.20,-0.09,-0.19,
19.62,-0.50,-2.40,-1.03,0.07,-0.60,-0.29,
19.622,-0.50,-2.40,-1.03,0.07,-0.60,-0.29,
19.622,-0.23,-1.92,-0.60,0.07,-0.60,-0.29,
19.623,-0.23,-1.92,-0.60,0.07,-0.60,-0.29,
19.66,-0.23,-1.92,-0.60,0.10,-1.12,-0.37,
19.66,-0.23,-1.92,-0.60,0.10,-1.12,-0.37,
19.661,0.31,-0.08,-0.62,0.10,-1.12,-0.37,
19.661,0.31,-0.08,-0.62,0.10,-1.12,-0.37,
19.695,0.31,-0.08,-0.62,-0.19,-1.44,-0.50,
19.696,0.31,-0.08,-0.62,-0.19,-1.44,-0.50,
19.697,0.64,1.95,-0.63,-0.19,-1.44,-0.50,
19.697,0.64,1.95,-0.63,-0.19,-1.44,-0.50,
19.734,0.64,1.95,-0.63,-0.38,-1.65,-0.56,
19.738,0.64,1.95,-0.63,-0.38,-1.65,-0.56,
19.739,0.73,3.60,-0.25,-0.38,-1.65,-0.56,
19.74,0.73,3.60,-0.25,-0.38,-1.65,-0.56,
19.772,0.73,3.60,-0.25,-0.32,-1.91,-0.44,
19.774,0.73,3.60,-0.25,-0.32,-1.91,-0.44,
19.776,0.61,4.10,-0.03,-0.32,-1.91,-0.44,
19.776,0.61,4.10,-0.03,-0.32,-1.91,-0.44,
19.81,0.61,4.10,-0.03,-0.30,-1.88,-0.03,
19.811,0.61,4.10,-0.03,-0.30,-1.88,-0.03,
19.812,0.30,5.56,0.14,-0.30,-1.88,-0.03,
19.812,0.30,5.56,0.14,-0.30,-1.88,-0.03,
19.854,0.30,5.56,0.14,-0.53,-1.41,0.47,
19.856,0.30,5.56,0.14,-0.53,-1.41,0.47,
19.857,0.20,5.79,0.06,-0.53,-1.41,0.47,
19.858,0.20,5.79,0.06,-0.53,-1.41,0.47,
19.885,0.20,5.79,0.06,-1.94,-0.00,0.70,
19.886,0.20,5.79,0.06,-1.94,-0.00,0.70,
19.887,0.21,5.93,-1.75,-1.94,-0.00,0.70,
19.887,0.21,5.93,-1.75,-1.94,-0.00,0.70,
19.924,0.21,5.93,-1.75,-3.99,1.31,0.81,
19.926,0.21,5.93,-1.75,-3.99,1.31,0.81,
19.927,0.39,5.73,-3.92,-3.99,1.31,0.81,
19.928,0.39,5.73,-3.92,-3.99,1.31,0.81,
19.961,0.39,5.73,-3.92,-4.96,1.85,0.44,
19.964,0.39,5.73,-3.92,-4.96,1.85,0.44,
19.964,0.52,2.66,-6.03,-4.96,1.85,0.44,
19.965,0.52,2.66,-6.03,-4.96,1.85,0.44,
20.0,0.52,2.66,-6.03,-3.10,1.45,0.08,
20.001,0.52,2.66,-6.03,-3.10,1.45,0.08,
20.002,0.69,2.09,-7.54,-3.10,1.45,0.08,
20.002,0.69,2.09,-7.54,-3.10,1.45,0.08,
20.037,0.69,2.09,-7.54,-1.81,0.97,-0.07,
20.038,0.69,2.09,-7.54,-1.81,0.97,-0.07,
20.039,0.87,1.74,-6.60,-1.81,0.97,-0.07,
20.04,0.87,1.74,-6.60,-1.81,0.97,-0.07,
20.075,0.87,1.74,-6.60,0.35,0.64,-0.09,
20.076,0.87,1.74,-6.60,0.35,0.64,-0.09,
20.077,0.81,-0.33,-2.28,0.35,0.64,-0.09,
20.077,0.81,-0.33,-2.28,0.35,0.64,-0.09,
20.125,0.81,-0.33,-2.28,2.36,0.60,0.08,
20.127,0.81,-0.33,-2.28,2.36,0.60,0.08,
20.127,0.65,-0.91,0.28,2.36,0.60,0.08,
20.128,0.65,-0.91,0.28,2.36,0.60,0.08,
20.16,0.65,-0.91,0.28,4.30,0.78,0.27,
20.161,0.65,-0.91,0.28,4.30,0.78,0.27,
20.162,0.50,-1.26,2.73,4.30,0.78,0.27,
20.162,0.50,-1.26,2.73,4.30,0.78,0.27,
20.191,0.50,-1.26,2.73,4.22,0.71,0.29,
20.192,0.50,-1.26,2.73,4.22,0.71,0.29,
20.192,0.29,-3.54,3.33,4.22,0.71,0.29,
20.192,0.29,-3.54,3.33,4.22,0.71,0.29,
20.228,0.29,-3.54,3.33,2.64,0.93,0.24,
20.23,0.29,-3.54,3.33,2.64,0.93,0.24,
20.231,0.33,-3.72,3.24,2.64,0.93,0.24,
20.232,0.33,-3.72,3.24,2.64,0.93,0.24,
20.277,0.33,-3.72,3.24,1.40,0.80,-0.02,
20.279,0.33,-3.72,3.24,1.40,0.80,-0.02,
20.279,0.65,-1.87,3.30,1.40,0.80,-0.02,
20.28,0.65,-1.87,3.30,1.40,0.80,-0.02,
20.303,0.65,-1.87,3.30,0.89,0.67,-0.24,
20.305,0.65,-1.87,3.30,0.89,0.67,-0.24,
20.307,0.71,-1.60,3.26,0.89,0.67,-0.24,
20.308,0.71,-1.60,3.26,0.89,0.67,-0.24,
20.341,0.71,-1.60,3.26,0.56,0.49,-0.33,
20.344,0.71,-1.60,3.26,0.56,0.49,-0.33,
20.345,0.67,-1.16,2.65,0.56,0.49,-0.33,
20.346,0.67,-1.16,2.65,0.56,0.49,-0.33,
20.379,0.67,-1.16,2.65,0.28,0.16,-0.31,
20.38,0.67,-1.16,2.65,0.28,0.16,-0.31,
20.38,0.60,0.73,2.14,0.28,0.16,-0.31,
20.381,0.60,0.73,2.14,0.28,0.16,-0.31,
20.416,0.60,0.73,2.14,0.06,0.11,-0.18,
20.417,0.60,0.73,2.14,0.06,0.11,-0.18,
20.418,0.27,1.22,1.53,0.06,0.11,-0.18,
20.418,0.27,1.22,1.53,0.06,0.11,-0.18,
20.46,0.27,1.22,1.53,-0.10,0.21,0.17,
20.462,0.27,1.22,1.53,-0.10,0.21,0.17,
20.463,-0.10,1.38,0.90,-0.10,0.21,0.17,
20.463,-0.10,1.38,0.90,-0.10,0.21,0.17,
20.493,-0.10,1.38,0.90,-0.12,0.34,0.38,
20.494,-0.10,1.38,0.90,-0.12,0.34,0.38,
20.494,-0.09,1.25,0.77,-0.12,0.34,0.38,
20.494,-0.09,1.25,0.77,-0.12,0.34,0.38,
20.531,-0.09,1.25,0.77,0.19,0.36,0.28,
20.533,-0.09,1.25,0.77,0.19,0.36,0.28,
20.534,-0.07,0.91,0.62,0.19,0.36,0.28,
20.536,-0.07,0.91,0.62,0.19,0.36,0.28,
20.576,-0.07,0.91,0.62,0.52,0.34,0.11,
20.577,-0.07,0.91,0.62,0.52,0.34,0.11,
20.577,-0.02,0.51,0.95,0.52,0.34,0.11,
20.578,-0.02,0.51,0.95,0.52,0.34,0.11,
20.606,-0.02,0.51,0.95,0.86,0.25,-0.07,
20.607,-0.02,0.51,0.95,0.86,0.25,-0.07,
20.607,0.14,0.29,1.47,0.86,0.25,-0.07,
20.608,0.14,0.29,1.47,0.86,0.25,-0.07,
20.651,0.14,0.29,1.47,1.10,0.22,-0.16,
20.652,0.14,0.29,1.47,1.10,0.22,-0.16,
20.653,0.07,0.09,1.95,1.10,0.22,-0.16,
20.653,0.07,0.09,1.95,1.10,0.22,-0.16,
20.683,0.07,0.09,1.95,1.17,0.32,-0.12,
20.684,0.07,0.09,1.95,1.17,0.32,-0.12,
20.685,-0.01,-0.04,2.42,1.17,0.32,-0.12,
20.685,-0.01,-0.04,2.42,1.17,0.32,-0.12,
20.721,-0.01,-0.04,2.42,1.58,0.43,-0.01,
20.723,-0.01,-0.04,2.42,1.58,0.43,-0.01,
20.725,-0.12,-0.38,3.64,1.58,0.43,-0.01,
20.726,-0.12,-0.38,3.64,1.58,0.43,-0.01,
20.759,-0.12,-0.38,3.64,1.51,0.45,0.16,
20.76,-0.12,-0.38,3.64,1.51,0.45,0.16,
20.761,-0.39,-2.11,3.05,1.51,0.45,0.16,
20.762,-0.39,-2.11,3.05,1.51,0.45,0.16,
20.796,-0.39,-2.11,3.05,0.52,0.45,0.29,
20.797,-0.39,-2.11,3.05,0.52,0.45,0.29,
20.797,-0.53,-2.31,2.25,0.52,0.45,0.29,
20.797,-0.53,-2.31,2.25,0.52,0.45,0.29,
20.836,-0.53,-2.31,2.25,-0.18,0.30,0.32,
20.838,-0.53,-2.31,2.25,-0.18,0.30,0.32,
20.84,-0.62,-2.81,0.30,-0.18,0.30,0.32,
20.841,-0.62,-2.81,0.30,-0.18,0.30,0.32,
20.874,-0.62,-2.81,0.30,-1.78,0.22,0.28,
20.876,-0.62,-2.81,0.30,-1.78,0.22,0.28,
20.876,-0.60,-3.17,-2.20,-1.78,0.22,0.28,
20.877,-0.60,-3.17,-2.20,-1.78,0.22,0.28,
20.911,-0.60,-3.17,-2.20,-2.34,0.46,0.18,
20.912,-0.60,-3.17,-2.20,-2.34,0.46,0.18,
20.913,-0.45,-3.28,-2.50,-2.34,0.46,0.18,
20.914,-0.45,-3.28,-2.50,-2.34,0.46,0.18,
20.96,-0.45,-3.28,-2.50,-1.62,0.51,0.13,
20.961,-0.45,-3.28,-2.50,-1.62,0.51,0.13,
20.962,-0.52,-3.19,-2.50,-1.62,0.51,0.13,
20.962,-0.52,-3.19,-2.50,-1.62,0.51,0.13,
20.988,-0.52,-3.19,-2.50,-0.79,0.36,0.22,
20.989,-0.52,-3.19,-2.50,-0.79,0.36,0.22,
20.989,-0.76,-2.82,-2.03,-0.79,0.36,0.22,
20.99,-0.76,-2.82,-2.03,-0.79,0.36,0.22,
21.024,-0.76,-2.82,-2.03,-0.28,0.00,0.29,
21.027,-0.76,-2.82,-2.03,-0.28,0.00,0.29,
21.028,-0.87,-2.24,-1.41,-0.28,0.00,0.29,
21.029,-0.87,-2.24,-1.41,-0.28,0.00,0.29,
21.063,-0.87,-2.24,-1.41,0.15,-0.83,0.20,
21.065,-0.87,-2.24,-1.41,0.15,-0.83,0.20,
21.066,-0.56,-0.68,-0.99,0.15,-0.83,0.20,
21.068,-0.56,-0.68,-0.99,0.15,-0.83,0.20,
21.101,-0.56,-0.68,-0.99,0.11,-1.57,-0.14,
21.102,-0.56,-0.68,-0.99,0.11,-1.57,-0.14,
21.103,0.03,1.11,-0.84,0.11,-1.57,-0.14,
21.104,0.03,1.11,-0.84,0.11,-1.57,-0.14,
21.158,0.03,1.11,-0.84,-0.09,-1.98,-0.61,
21.159,0.03,1.11,-0.84,-0.09,-1.98,-0.61,
21.16,0.53,2.84,-0.50,-0.09,-1.98,-0.61,
21.16,0.53,2.84,-0.50,-0.09,-1.98,-0.61,
21.182,0.53,2.84,-0.50,-0.02,-2.21,-0.93,
21.183,0.53,2.84,-0.50,-0.02,-2.21,-0.93,
21.183,0.59,3.34,0.06,-0.02,-2.21,-0.93,
21.183,0.59,3.34,0.06,-0.02,-2.21,-0.93,
21.215,0.59,3.34,0.06,0.22,-2.39,-0.86,
21.217,0.59,3.34,0.06,0.22,-2.39,-0.86,
21.218,0.35,5.01,0.42,0.22,-2.39,-0.86,
21.22,0.35,5.01,0.42,0.22,-2.39,-0.86,
21.252,0.35,5.01,0.42,0.29,-3.14,-0.35,
21.254,0.35,5.01,0.42,0.29,-3.14,-0.35,
21.256,0.02,5.35,0.49,0.29,-3.14,-0.35,
21.258,0.02,5.35,0.49,0.29,-3.14,-0.35,
21.29,0.02,5.35,0.49,-1.23,-1.48,0.40,
21.291,0.02,5.35,0.49,-1.23,-1.48,0.40,
21.291,-0.11,5.52,-1.30,-1.23,-1.48,0.40,
21.292,-0.11,5.52,-1.30,-1.23,-1.48,0.40,
21.328,-0.11,5.52,-1.30,-3.28,0.93,0.95,
21.329,-0.11,5.52,-1.30,-3.28,0.93,0.95,
21.33,0.00,5.44,-1.66,-3.28,0.93,0.95,
21.331,0.00,5.44,-1.66,-3.28,0.93,0.95,
21.375,0.00,5.44,-1.66,-4.18,1.70,0.96,
21.378,0.00,5.44,-1.66,-4.18,1.70,0.96,
21.379,0.32,3.48,-5.24,-4.18,1.70,0.96,
21.379,0.32,3.48,-5.24,-4.18,1.70,0.96,
21.404,0.32,3.48,-5.24,-4.29,1.86,0.80,
21.405,0.32,3.48,-5.24,-4.29,1.86,0.80,
21.405,0.56,1.89,-6.93,-4.29,1.86,0.80,
21.405,0.56,1.89,-6.93,-4.29,1.86,0.80,
21.443,0.56,1.89,-6.93,-2.75,0.98,0.34,
21.445,0.56,1.89,-6.93,-2.75,0.98,0.34,
21.446,0.48,1.73,-6.55,-2.75,0.98,0.34,
21.448,0.48,1.73,-6.55,-2.75,0.98,0.34,
21.492,0.48,1.73,-6.55,-1.33,0.64,0.25,
21.493,0.48,1.73,-6.55,-1.33,0.64,0.25,
21.493,0.36,1.63,-5.53,-1.33,0.64,0.25,
21.494,0.36,1.63,-5.53,-1.33,0.64,0.25,
21.522,0.36,1.63,-5.53,0.73,0.51,0.44,
21.523,0.36,1.63,-5.53,0.73,0.51,0.44,
21.523,-0.07,-0.71,-1.08,0.73,0.51,0.44,
21.524,-0.07,-0.71,-1.08,0.73,0.51,0.44,
21.557,-0.07,-0.71,-1.08,2.80,0.68,0.77,
21.558,-0.07,-0.71,-1.08,2.80,0.68,0.77,
21.559,-0.21,-0.82,0.19,2.80,0.68,0.77,
21.56,-0.21,-0.82,0.19,2.80,0.68,0.77,
21.594,-0.21,-0.82,0.19,2.85,0.78,0.77,
21.595,-0.21,-0.82,0.19,2.85,0.78,0.77,
21.595,-0.25,-1.25,2.00,2.85,0.78,0.77,
21.596,-0.25,-1.25,2.00,2.85,0.78,0.77,
21.632,-0.25,-1.25,2.00,2.88,1.11,0.77,
21.633,-0.25,-1.25,2.00,2.88,1.11,0.77,
21.634,-0.46,-3.05,2.32,2.88,1.11,0.77,
21.634,-0.46,-3.05,2.32,2.88,1.11,0.77,
21.67,-0.46,-3.05,2.32,2.02,1.54,0.69,
21.673,-0.46,-3.05,2.32,2.02,1.54,0.69,
21.674,-0.21,-2.86,2.23,2.02,1.54,0.69,
21.675,-0.21,-2.86,2.23,2.02,1.54,0.69,
21.708,-0.21,-2.86,2.23,1.08,1.41,0.35,
21.709,-0.21,-2.86,2.23,1.08,1.41,0.35,
21.709,0.00,-2.33,2.24,1.08,1.41,0.35,
21.709,0.00,-2.33,2.24,1.08,1.41,0.35,
21.746,0.00,-2.33,2.24,0.59,0.74,-0.02,
21.748,0.00,-2.33,2.24,0.59,0.74,-0.02,
21.749,0.31,-2.00,2.21,0.59,0.74,-0.02,
21.75,0.31,-2.00,2.21,0.59,0.74,-0.02,
21.784,0.31,-2.00,2.21,0.47,0.56,-0.25,
21.785,0.31,-2.00,2.21,0.47,0.56,-0.25,
21.786,0.92,-1.73,2.13,0.47,0.56,-0.25,
21.786,0.92,-1.73,2.13,0.47,0.56,-0.25,
21.822,0.92,-1.73,2.13,0.40,0.49,-0.70,
21.822,0.92,-1.73,2.13,0.40,0.49,-0.70,
21.823,1.30,0.53,2.06,0.40,0.49,-0.70,
21.823,1.30,0.53,2.06,0.40,0.49,-0.70,
21.86,1.30,0.53,2.06,0.44,0.36,-0.89,
21.862,1.30,0.53,2.06,0.44,0.36,-0.89,
21.863,1.29,0.84,2.04,0.44,0.36,-0.89,
21.864,1.29,0.84,2.04,0.44,0.36,-0.89,
21.897,1.29,0.84,2.04,0.51,0.37,-0.67,
21.899,1.29,0.84,2.04,0.51,0.37,-0.67,
21.899,1.20,1.09,1.60,0.51,0.37,-0.67,
21.9,1.20,1.09,1.60,0.51,0.37,-0.67,
21.935,1.20,1.09,1.60,0.35,0.30,-0.29,
21.936,1.20,1.09,1.60,0.35,0.30,-0.29,
21.936,0.78,1.37,1.24,0.35,0.30,-0.29,
21.937,0.78,1.37,1.24,0.35,0.30,-0.29,
21.973,0.78,1.37,1.24,0.25,0.22,0.08,
21.975,0.78,1.37,1.24,0.25,0.22,0.08,
21.975,0.21,1.40,1.14,0.25,0.22,0.08,
21.976,0.21,1.40,1.14,0.25,0.22,0.08,
22.012,0.21,1.40,1.14,0.27,0.26,0.65,
22.013,0.21,1.40,1.14,0.27,0.26,0.65,
22.013,-0.20,1.25,1.07,0.27,0.26,0.65,
22.013,-0.20,1.25,1.07,0.27,0.26,0.65,
22.05,-0.20,1.25,1.07,0.44,0.28,0.80,
22.051,-0.20,1.25,1.07,0.44,0.28,0.80,
22.051,-0.46,0.94,1.32,0.44,0.28,0.80,
22.052,-0.46,0.94,1.32,0.44,0.28,0.80,
22.088,-0.46,0.94,1.32,1.18,0.34,0.63,
22.089,-0.46,0.94,1.32,1.18,0.34,0.63,
22.089,-0.53,-0.73,2.81,1.18,0.34,0.63,
22.09,-0.53,-0.73,2.81,1.18,0.34,0.63,
22.138,-0.53,-0.73,2.81,1.80,0.37,0.38,
22.139,-0.53,-0.73,2.81,1.80,0.37,0.38,
22.139,-0.31,-0.97,3.18,1.80,0.37,0.38,
22.14,-0.31,-0.97,3.18,1.80,0.37,0.38,
22.167,-0.31,-0.97,3.18,1.74,0.48,0.00,
22.168,-0.31,-0.97,3.18,1.74,0.48,0.00,
22.168,-0.34,-2.50,3.55,1.74,0.48,0.00,
22.169,-0.34,-2.50,3.55,1.74,0.48,0.00,
22.201,-0.34,-2.50,3.55,0.78,0.37,0.05,
22.202,-0.34,-2.50,3.55,0.78,0.37,0.05,
22.203,-0.76,-4.46,1.87,0.78,0.37,0.05,
22.203,-0.76,-4.46,1.87,0.78,0.37,0.05,
22.24,-0.76,-4.46,1.87,-0.68,0.07,0.28,
22.241,-0.76,-4.46,1.87,-0.68,0.07,0.28,
22.241,-0.85,-4.67,-0.18,-0.68,0.07,0.28,
22.242,-0.85,-4.67,-0.18,-0.68,0.07,0.28,
22.279,-0.85,-4.67,-0.18,-1.75,0.21,0.36,
22.28,-0.85,-4.67,-0.18,-1.75,0.21,0.36,
22.281,-0.99,-4.85,-2.42,-1.75,0.21,0.36,
22.281,-0.99,-4.85,-2.42,-1.75,0.21,0.36,
22.317,-0.99,-4.85,-2.42,-2.04,0.55,0.46,
22.318,-0.99,-4.85,-2.42,-2.04,0.55,0.46,
22.318,-1.12,-4.72,-2.82,-2.04,0.55,0.46,
22.318,-1.12,-4.72,-2.82,-2.04,0.55,0.46,
22.353,-1.12,-4.72,-2.82,-1.51,0.69,0.50,
22.354,-1.12,-4.72,-2.82,-1.51,0.69,0.50,
22.355,-0.98,-3.01,-1.21,-1.51,0.69,0.50,
22.355,-0.98,-3.01,-1.21,-1.51,0.69,0.50,
22.391,-0.98,-3.01,-1.21,0.06,0.86,0.47,
22.392,-0.98,-3.01,-1.21,0.06,0.86,0.47,
22.392,-0.90,-1.37,0.27,0.06,0.86,0.47,
22.392,-0.90,-1.37,0.27,0.06,0.86,0.47,
22.429,-0.90,-1.37,0.27,0.98,0.88,0.39,
22.43,-0.90,-1.37,0.27,0.98,0.88,0.39,
22.43,-0.65,0.38,0.23,0.98,0.88,0.39,
22.431,-0.65,0.38,0.23,0.98,0.88,0.39,
22.468,-0.65,0.38,0.23,0.90,0.62,0.11,
22.469,-0.65,0.38,0.23,0.90,0.62,0.11,
22.47,-0.14,0.80,0.16,0.90,0.62,0.11,
22.471,-0.14,0.80,0.16,0.90,0.62,0.11,
22.506,-0.14,0.80,0.16,0.54,0.60,-0.32,
22.506,-0.14,0.80,0.16,0.54,0.60,-0.32,
22.507,0.36,1.33,-0.01,0.54,0.60,-0.32,
22.507,0.36,1.33,-0.01,0.54,0.60,-0.32,
22.544,0.36,1.33,-0.01,0.19,0.74,-0.53,
22.545,0.36,1.33,-0.01,0.19,0.74,-0.53,
22.546,0.44,1.75,-0.36,0.19,0.74,-0.53,
22.546,0.44,1.75,-0.36,0.19,0.74,-0.53,
22.585,0.44,1.75,-0.36,-0.25,0.16,-0.35,
22.586,0.44,1.75,-0.36,-0.25,0.16,-0.35,
22.587,0.09,2.35,-0.29,-0.25,0.16,-0.35,
22.589,0.09,2.35,-0.29,-0.25,0.16,-0.35,
22.619,0.09,2.35,-0.29,-0.40,-1.90,0.12,
22.62,0.09,2.35,-0.29,-0.40,-1.90,0.12,
22.62,-0.29,4.00,-0.39,-0.40,-1.90,0.12,
22.62,-0.29,4.00,-0.39,-0.40,-1.90,0.12,
22.657,-0.29,4.00,-0.39,-0.93,-5.43,0.35,
22.658,-0.29,4.00,-0.39,-0.93,-5.43,0.35,
22.658,-0.44,4.40,-0.74,-0.93,-5.43,0.35,
22.659,-0.44,4.40,-0.74,-0.93,-5.43,0.35,
22.695,-0.44,4.40,-0.74,-2.13,-4.35,0.42,
22.696,-0.44,4.40,-0.74,-2.13,-4.35,0.42,
22.696,-0.26,4.91,-2.33,-2.13,-4.35,0.42,
22.697,-0.26,4.91,-2.33,-2.13,-4.35,0.42,
22.733,-0.26,4.91,-2.33,-3.21,-1.67,0.45,
22.734,-0.26,4.91,-2.33,-3.21,-1.67,0.45,
22.734,0.21,5.16,-2.76,-3.21,-1.67,0.45,
22.734,0.21,5.16,-2.76,-3.21,-1.67,0.45,
22.771,0.21,5.16,-2.76,-4.13,1.07,0.21,
22.773,0.21,5.16,-2.76,-4.13,1.07,0.21,
22.774,0.65,5.10,-4.68,-4.13,1.07,0.21,
22.775,0.65,5.10,-4.68,-4.13,1.07,0.21,
22.81,0.65,5.10,-4.68,-3.86,1.53,-0.01,
22.812,0.65,5.10,-4.68,-3.86,1.53,-0.01,
22.812,0.67,2.32,-6.19,-3.86,1.53,-0.01,
22.812,0.67,2.32,-6.19,-3.86,1.53,-0.01,
22.847,0.67,2.32,-6.19,-1.97,0.97,-0.10,
22.849,0.67,2.32,-6.19,-1.97,0.97,-0.10,
22.85,0.82,1.88,-5.90,-1.97,0.97,-0.10,
22.851,0.82,1.88,-5.90,-1.97,0.97,-0.10,
22.885,0.82,1.88,-5.90,-0.78,0.74,0.10,
22.887,0.82,1.88,-5.90,-0.78,0.74,0.10,
22.888,0.57,1.51,-4.85,-0.78,0.74,0.10,
22.889,0.57,1.51,-4.85,-0.78,0.74,0.10,
22.923,0.57,1.51,-4.85,0.17,0.58,0.06,
22.924,0.57,1.51,-4.85,0.17,0.58,0.06,
22.924,0.20,-1.11,-2.24,0.17,0.58,0.06,
22.925,0.20,-1.11,-2.24,0.17,0.58,0.06,
22.968,0.20,-1.11,-2.24,2.55,0.65,0.25,
22.97,0.20,-1.11,-2.24,2.55,0.65,0.25,
22.97,0.03,-1.34,0.82,2.55,0.65,0.25,
22.971,0.03,-1.34,0.82,2.55,0.65,0.25,
22.999,0.03,-1.34,0.82,3.10,0.75,0.61,
22.999,0.03,-1.34,0.82,3.10,0.75,0.61,
23.0,-0.46,-1.42,1.66,3.10,0.75,0.61,
23.0,-0.46,-1.42,1.66,3.10,0.75,0.61,
23.036,-0.46,-1.42,1.66,2.28,0.68,0.49,
23.037,-0.46,-1.42,1.66,2.28,0.68,0.49,
23.038,-0.47,-2.02,2.23,2.28,0.68,0.49,
23.039,-0.47,-2.02,2.23,2.28,0.68,0.49,
23.075,-0.47,-2.02,2.23,1.49,1.21,0.40,
23.076,-0.47,-2.02,2.23,1.49,1.21,0.40,
23.077,-0.05,-2.42,2.30,1.49,1.21,0.40,
23.077,-0.05,-2.42,2.30,1.49,1.21,0.40,
23.125,-0.05,-2.42,2.30,1.05,1.32,0.11,
23.126,-0.05,-2.42,2.30,1.05,1.32,0.11,
23.126,0.43,-2.08,2.42,1.05,1.32,0.11,
23.127,0.43,-2.08,2.42,1.05,1.32,0.11,
23.151,0.43,-2.08,2.42,0.72,1.05,-0.48,
23.152,0.43,-2.08,2.42,0.72,1.05,-0.48,
23.153,0.77,-1.68,2.20,0.72,1.05,-0.48,
23.153,0.77,-1.68,2.20,0.72,1.05,-0.48,
23.194,0.77,-1.68,2.20,0.40,0.43,-0.72,
23.196,0.77,-1.68,2.20,0.40,0.43,-0.72,
23.196,0.89,-1.18,1.71,0.40,0.43,-0.72,
23.196,0.89,-1.18,1.71,0.40,0.43,-0.72,
23.227,0.89,-1.18,1.71,0.20,-0.20,-0.64,
23.228,0.89,-1.18,1.71,0.20,-0.20,-0.64,
23.228,0.82,0.73,1.47,0.20,-0.20,-0.64,
23.229,0.82,0.73,1.47,0.20,-0.20,-0.64,
23.266,0.82,0.73,1.47,0.15,-0.61,-0.48,
23.267,0.82,0.73,1.47,0.15,-0.61,-0.48,
23.267,0.55,0.98,1.36,0.15,-0.61,-0.48,
23.268,0.55,0.98,1.36,0.15,-0.61,-0.48,
23.303,0.55,0.98,1.36,0.28,-0.71,-0.23,
23.304,0.55,0.98,1.36,0.28,-0.71,-0.23,
23.304,0.24,1.02,1.16,0.28,-0.71,-0.23,
23.304,0.24,1.02,1.16,0.28,-0.71,-0.23,
23.341,0.24,1.02,1.16,0.42,-0.71,0.15,
23.342,0.24,1.02,1.16,0.42,-0.71,0.15,
23.342,-0.02,0.97,1.03,0.42,-0.71,0.15,
23.343,-0.02,0.97,1.03,0.42,-0.71,0.15,
23.384,-0.02,0.97,1.03,0.55,-0.49,0.39,
23.386,-0.02,0.97,1.03,0.55,-0.49,0.39,
23.387,-0.33,0.77,1.11,0.55,-0.49,0.39,
23.388,-0.33,0.77,1.11,0.55,-0.49,0.39,
23.416,-0.33,0.77,1.11,0.62,-0.27,0.49,
23.417,-0.33,0.77,1.11,0.62,-0.27,0.49,
23.417,-0.57,0.57,1.25,0.62,-0.27,0.49,
23.418,-0.57,0.57,1.25,0.62,-0.27,0.49,
23.455,-0.57,0.57,1.25,0.67,-0.25,0.43,
23.456,-0.57,0.57,1.25,0.67,-0.25,0.43,
23.457,-0.47,0.46,1.65,0.67,-0.25,0.43,
23.457,-0.47,0.46,1.65,0.67,-0.25,0.43,
23.493,-0.47,0.46,1.65,0.93,-0.03,0.18,
23.494,-0.47,0.46,1.65,0.93,-0.03,0.18,
23.494,-0.49,0.45,1.91,0.93,-0.03,0.18,
23.494,-0.49,0.45,1.91,0.93,-0.03,0.18,
23.531,-0.49,0.45,1.91,1.02,0.01,0.14,
23.532,-0.49,0.45,1.91,1.02,0.01,0.14,
23.533,-0.68,0.43,2.12,1.02,0.01,0.14,
23.533,-0.68,0.43,2.12,1.02,0.01,0.14,
23.569,-0.68,0.43,2.12,1.07,0.11,0.22,
23.57,-0.68,0.43,2.12,1.07,0.11,0.22,
23.571,-0.70,0.09,2.48,1.07,0.11,0.22,
23.572,-0.70,0.09,2.48,1.07,0.11,0.22,
23.606,-0.70,0.09,2.48,1.61,0.28,0.15,
23.608,-0.70,0.09,2.48,1.61,0.28,0.15,
23.608,-0.49,-0.43,4.09,1.61,0.28,0.15,
23.609,-0.49,-0.43,4.09,1.61,0.28,0.15,
23.644,-0.49,-0.43,4.09,2.00,0.26,0.06,
23.645,-0.49,-0.43,4.09,2.00,0.26,0.06,
23.646,-0.62,-2.01,3.68,2.00,0.26,0.06,
23.646,-0.62,-2.01,3.68,2.00,0.26,0.06,
23.683,-0.62,-2.01,3.68,1.06,-0.05,0.56,
23.685,-0.62,-2.01,3.68,1.06,-0.05,0.56,
23.686,-1.87,-2.56,2.99,1.06,-0.05,0.56,
23.687,-1.87,-2.56,2.99,1.06,-0.05,0.56,
23.721,-1.87,-2.56,2.99,-0.18,-0.13,0.97,
23.722,-1.87,-2.56,2.99,-0.18,-0.13,0.97,
23.723,-1.66,-2.69,0.81,-0.18,-0.13,0.97,
23.723,-1.66,-2.69,0.81,-0.18,-0.13,0.97,
23.765,-1.66,-2.69,0.81,-1.56,-0.08,0.69,
23.766,-1.66,-2.69,0.81,-1.56,-0.08,0.69,
23.767,-1.61,-2.58,-1.38,-1.56,-0.08,0.69,
23.767,-1.61,-2.58,-1.38,-1.56,-0.08,0.69,
23.796,-1.61,-2.58,-1.38,-1.96,0.01,0.40,
23.797,-1.61,-2.58,-1.38,-1.96,0.01,0.40,
23.797,-1.34,-2.20,-1.40,-1.96,0.01,0.40,
23.797,-1.34,-2.20,-1.40,-1.96,0.01,0.40,
23.834,-1.34,-2.20,-1.40,-1.44,0.25,0.21,
23.836,-1.34,-2.20,-1.40,-1.44,0.25,0.21,
23.837,-0.76,-0.59,-1.18,-1.44,0.25,0.21,
23.838,-0.76,-0.59,-1.18,-1.44,0.25,0.21,
23.872,-0.76,-0.59,-1.18,-0.57,0.50,0.03,
23.874,-0.76,-0.59,-1.18,-0.57,0.50,0.03,
23.875,-0.66,-0.27,-0.78,-0.57,0.50,0.03,
23.876,-0.66,-0.27,-0.78,-0.57,0.50,0.03,
23.91,-0.66,-0.27,-0.78,0.48,0.44,0.07,
23.911,-0.66,-0.27,-0.78,0.48,0.44,0.07,
23.912,-0.96,0.14,0.69,0.48,0.44,0.07,
23.912,-0.96,0.14,0.69,0.48,0.44,0.07,
23.949,-0.96,0.14,0.69,1.31,0.17,0.39,
23.95,-0.96,0.14,0.69,1.31,0.17,0.39,
23.95,-1.05,0.70,0.90,1.31,0.17,0.39,
23.951,-1.05,0.70,0.90,1.31,0.17,0.39,
23.986,-1.05,0.70,0.90,1.27,0.15,0.52,
23.988,-1.05,0.70,0.90,1.27,0.15,0.52,
23.989,-0.80,1.16,1.07,1.27,0.15,0.52,
23.99,-0.80,1.16,1.07,1.27,0.15,0.52,
24.024,-0.80,1.16,1.07,1.07,0.21,0.39,
24.025,-0.80,1.16,1.07,1.07,0.21,0.39,
24.026,-0.41,1.46,1.10,1.07,0.21,0.39,
24.026,-0.41,1.46,1.10,1.07,0.21,0.39,
24.067,-0.41,1.46,1.10,0.69,0.29,-0.01,
24.068,-0.41,1.46,1.10,0.69,0.29,-0.01,
24.068,0.02,1.65,0.85,0.69,0.29,-0.01,
24.069,0.02,1.65,0.85,0.69,0.29,-0.01,
24.1,0.02,1.65,0.85,0.25,0.32,-0.24,
24.101,0.02,1.65,0.85,0.25,0.32,-0.24,
24.101,0.19,1.80,0.56,0.25,0.32,-0.24,
24.101,0.19,1.80,0.56,0.25,0.32,-0.24,
24.15,0.19,1.80,0.56,-0.14,-0.03,-0.08,
24.151,0.19,1.80,0.56,-0.14,-0.03,-0.08,
24.152,0.01,2.02,0.31,-0.14,-0.03,-0.08,
24.152,0.01,2.02,0.31,-0.14,-0.03,-0.08,
24.186,0.01,2.02,0.31,-0.25,-0.20,0.33,
24.187,0.01,2.02,0.31,-0.25,-0.20,0.33,
24.188,-0.33,2.08,0.25,-0.25,-0.20,0.33,
24.188,-0.33,2.08,0.25,-0.25,-0.20,0.33,
24.214,-0.33,2.08,0.25,-0.27,-0.19,0.46,
24.215,-0.33,2.08,0.25,-0.27,-0.19,0.46,
24.215,-0.30,-0.89,-0.22,-0.27,-0.19,0.46,
24.215,-0.30,-0.89,-0.22,-0.27,-0.19,0.46,
24.252,-0.30,-0.89,-0.22,-0.51,0.18,-0.18,
24.254,-0.30,-0.89,-0.22,-0.51,0.18,-0.18,
24.254,0.15,-1.19,-0.39,-0.51,0.18,-0.18,
24.255,0.15,-1.19,-0.39,-0.51,0.18,-0.18,
24.29,0.15,-1.19,-0.39,-0.33,0.52,-0.55,
24.292,0.15,-1.19,-0.39,-0.33,0.52,-0.55,
24.293,0.51,-1.40,-0.53,-0.33,0.52,-0.55,
24.294,0.51,-1.40,-0.53,-0.33,0.52,-0.55,
24.328,0.51,-1.40,-0.53,-0.21,0.80,-0.65,
24.329,0.51,-1.40,-0.53,-0.21,0.80,-0.65,
24.329,0.74,-1.16,-0.87,-0.21,0.80,-0.65,
24.33,0.74,-1.16,-0.87,-0.21,0.80,-0.65,
24.367,0.74,-1.16,-0.87,-0.15,0.65,-0.47,
24.368,0.74,-1.16,-0.87,-0.15,0.65,-0.47,
24.369,0.67,0.67,-0.56,-0.15,0.65,-0.47,
24.369,0.67,0.67,-0.56,-0.15,0.65,-0.47,
24.404,0.67,0.67,-0.56,-0.03,0.20,-0.23,
24.405,0.67,0.67,-0.56,-0.03,0.20,-0.23,
24.406,0.70,0.93,-0.55,-0.03,0.20,-0.23,
24.406,0.70,0.93,-0.55,-0.03,0.20,-0.23,
24.442,0.70,0.93,-0.55,-0.20,-0.32,-0.20,
24.443,0.70,0.93,-0.55,-0.20,-0.32,-0.20,
24.444,0.90,0.58,-0.88,-0.20,-0.32,-0.20,
24.444,0.90,0.58,-0.88,-0.20,-0.32,-0.20,
24.487,0.90,0.58,-0.88,-0.52,0.03,-0.46,
24.488,0.90,0.58,-0.88,-0.52,0.03,-0.46,
24.488,1.10,-0.99,-1.19,-0.52,0.03,-0.46,
24.489,1.10,-0.99,-1.19,-0.52,0.03,-0.46,
24.518,1.10,-0.99,-1.19,-0.53,0.26,-0.61,
24.518,1.10,-0.99,-1.19,-0.53,0.26,-0.61,
24.519,1.13,-0.87,-0.90,-0.53,0.26,-0.61,
24.519,1.13,-0.87,-0.90,-0.53,0.26,-0.61,
24.556,1.13,-0.87,-0.90,-0.14,0.16,-0.40,
24.557,1.13,-0.87,-0.90,-0.14,0.16,-0.40,
24.558,0.69,-0.60,-0.36,-0.14,0.16,-0.40,
24.558,0.69,-0.60,-0.36,-0.14,0.16,-0.40,
24.594,0.69,-0.60,-0.36,0.38,0.02,-0.08,
24.596,0.69,-0.60,-0.36,0.38,0.02,-0.08,
24.596,0.20,-0.21,1.57,0.38,0.02,-0.08,
24.597,0.20,-0.21,1.57,0.38,0.02,-0.08,
24.633,0.20,-0.21,1.57,1.61,-0.11,0.37,
24.633,0.20,-0.21,1.57,1.61,-0.11,0.37,
24.634,-0.14,0.05,1.90,1.61,-0.11,0.37,
24.634,-0.14,0.05,1.90,1.61,-0.11,0.37,
24.67,-0.14,0.05,1.90,1.48,-0.44,0.62,
24.671,-0.14,0.05,1.90,1.48,-0.44,0.62,
24.672,-0.52,0.16,1.82,1.48,-0.44,0.62,
24.672,-0.52,0.16,1.82,1.48,-0.44,0.62,
24.709,-0.52,0.16,1.82,0.77,-0.51,0.73,
24.71,-0.52,0.16,1.82,0.77,-0.51,0.73,
24.71,-0.82,0.23,1.39,0.77,-0.51,0.73,
24.71,-0.82,0.23,1.39,0.77,-0.51,0.73,
24.745,-0.82,0.23,1.39,0.04,-0.52,0.69,
24.746,-0.82,0.23,1.39,0.04,-0.52,0.69,
24.747,-0.91,0.24,0.93,0.04,-0.52,0.69,
24.747,-0.91,0.24,0.93,0.04,-0.52,0.69,
24.784,-0.91,0.24,0.93,-0.29,-0.51,0.58,
24.785,-0.91,0.24,0.93,-0.29,-0.51,0.58,
24.786,-0.88,0.26,0.67,-0.29,-0.51,0.58,
24.786,-0.88,0.26,0.67,-0.29,-0.51,0.58,
24.821,-0.88,0.26,0.67,-0.42,-0.36,0.30,
24.822,-0.88,0.26,0.67,-0.42,-0.36,0.30,
24.823,-0.62,0.26,0.47,-0.42,-0.36,0.30,
24.823,-0.62,0.26,0.47,-0.42,-0.36,0.30,
24.859,-0.62,0.26,0.47,-0.34,-0.25,-0.02,
24.86,-0.62,0.26,0.47,-0.34,-0.25,-0.02,
24.861,-0.30,0.19,0.30,-0.34,-0.25,-0.02,
24.861,-0.30,0.19,0.30,-0.34,-0.25,-0.02,
24.897,-0.30,0.19,0.30,-0.19,-0.04,-0.24,
24.899,-0.30,0.19,0.30,-0.19,-0.04,-0.24,
24.899,-0.07,0.16,0.16,-0.19,-0.04,-0.24,
24.9,-0.07,0.16,0.16,-0.19,-0.04,-0.24,
24.936,-0.07,0.16,0.16,-0.12,-0.04,-0.24,
24.938,-0.07,0.16,0.16,-0.12,-0.04,-0.24,
24.938,-0.02,0.12,-0.03,-0.12,-0.04,-0.24,
24.938,-0.02,0.12,-0.03,-0.12,-0.04,-0.24,
24.974,-0.02,0.12,-0.03,-0.11,-0.03,-0.15,
24.974,-0.02,0.12,-0.03,-0.11,-0.03,-0.15,
24.975,-0.01,0.06,-0.19,-0.11,-0.03,-0.15,
24.975,-0.01,0.06,-0.19,-0.11,-0.03,-0.15,
25.012,-0.01,0.06,-0.19,-0.10,-0.01,-0.03,
25.012,-0.01,0.06,-0.19,-0.10,-0.01,-0.03,
25.013,0.03,0.04,-0.29,-0.10,-0.01,-0.03,
25.013,0.03,0.04,-0.29,-0.10,-0.01,-0.03,
25.049,0.03,0.04,-0.29,-0.09,-0.12,0.05,
25.05,0.03,0.04,-0.29,-0.09,-0.12,0.05,
25.051,0.05,0.06,-0.26,-0.09,-0.12,0.05,
25.051,0.05,0.06,-0.26,-0.09,-0.12,0.05,
25.087,0.05,0.06,-0.26,-0.06,-0.04,0.05,
25.089,0.05,0.06,-0.26,-0.06,-0.04,0.05,
25.089,0.07,0.12,-0.23,-0.06,-0.04,0.05,
25.09,0.07,0.12,-0.23,-0.06,-0.04,0.05,
25.138,0.07,0.12,-0.23,-0.05,0.01,0.04,
25.139,0.07,0.12,-0.23,-0.05,0.01,0.04,
25.14,0.06,0.13,-0.19,-0.05,0.01,0.04,
25.14,0.06,0.13,-0.19,-0.05,0.01,0.04,
25.166,0.06,0.13,-0.19,-0.02,0.01,0.02,
25.166,0.06,0.13,-0.19,-0.02,0.01,0.02,
25.167,0.04,0.14,-0.13,-0.02,0.01,0.02,
25.167,0.04,0.14,-0.13,-0.02,0.01,0.02,
25.201,0.04,0.14,-0.13,-0.01,0.00,0.01,
25.202,0.04,0.14,-0.13,-0.01,0.00,0.01,
25.202,0.02,0.14,-0.10,-0.01,0.00,0.01,
25.202,0.02,0.14,-0.10,-0.01,0.00,0.01,
25.24,0.02,0.14,-0.10,-0.00,0.00,0.00,
25.241,0.02,0.14,-0.10,-0.00,0.00,0.00,
25.241,0.01,0.15,-0.08,-0.00,0.00,0.00,
25.241,0.01,0.15,-0.08,-0.00,0.00,0.00,
25.282,0.01,0.15,-0.08,-0.00,0.00,-0.00,
25.283,0.01,0.15,-0.08,-0.00,0.00,-0.00,
25.284,-0.00,0.15,-0.06,-0.00,0.00,-0.00,
25.284,-0.00,0.15,-0.06,-0.00,0.00,-0.00,
25.316,-0.00,0.15,-0.06,-0.00,0.00,-0.00,
25.317,-0.00,0.15,-0.06,-0.00,0.00,-0.00,
25.317,0.00,0.15,-0.05,-0.00,0.00,-0.00,
25.318,0.00,0.15,-0.05,-0.00,0.00,-0.00,
25.354,0.00,0.15,-0.05,0.00,-0.00,0.00,
25.355,0.00,0.15,-0.05,0.00,-0.00,0.00,
25.356,0.01,0.15,-0.04,0.00,-0.00,0.00,
25.356,0.01,0.15,-0.04,0.00,-0.00,0.00,
25.391,0.01,0.15,-0.04,-0.00,0.00,-0.00,
25.392,0.01,0.15,-0.04,-0.00,0.00,-0.00,
25.393,0.01,0.15,-0.03,-0.00,0.00,-0.00,
25.393,0.01,0.15,-0.03,-0.00,0.00,-0.00,
25.43,0.01,0.15,-0.03,-0.00,-0.00,0.00,
25.431,0.01,0.15,-0.03,-0.00,-0.00,0.00,
25.431,0.02,0.15,-0.02,-0.00,-0.00,0.00,
25.432,0.02,0.15,-0.02,-0.00,-0.00,0.00,
25.467,0.02,0.15,-0.02,0.00,-0.00,-0.00,
25.467,0.02,0.15,-0.02,0.00,-0.00,-0.00,
25.468,0.02,0.15,-0.02,0.00,-0.00,-0.00,
25.468,0.02,0.15,-0.02,0.00,-0.00,-0.00,
25.506,0.02,0.15,-0.02,0.00,0.00,0.00,
25.507,0.02,0.15,-0.02,0.00,0.00,0.00,
25.507,0.16,0.14,0.16,0.00,0.00,0.00,
25.507,0.16,0.14,0.16,0.00,0.00,0.00,
25.544,0.16,0.14,0.16,0.00,-0.00,-0.00,
25.545,0.16,0.14,0.16,0.00,-0.00,-0.00,
25.546,0.16,0.20,0.15,0.00,-0.00,-0.00,
25.546,0.16,0.20,0.15,0.00,-0.00,-0.00,
25.581,0.16,0.20,0.15,0.00,-0.00,-0.00,
25.582,0.16,0.20,0.15,0.00,-0.00,-0.00,
25.583,0.07,0.25,0.21,0.00,-0.00,-0.00,
25.583,0.07,0.25,0.21,0.00,-0.00,-0.00,
25.619,0.07,0.25,0.21,0.21,0.30,0.02,
25.62,0.07,0.25,0.21,0.21,0.30,0.02,
25.621,-0.09,0.29,0.25,0.21,0.30,0.02,
25.621,-0.09,0.29,0.25,0.21,0.30,0.02,
25.658,-0.09,0.29,0.25,0.11,-0.00,0.16,
25.659,-0.09,0.29,0.25,0.11,-0.00,0.16,
25.659,-0.17,0.27,0.17,0.11,-0.00,0.16,
25.66,-0.17,0.27,0.17,0.11,-0.00,0.16,
25.699,-0.17,0.27,0.17,0.05,0.10,0.15,
25.7,-0.17,0.27,0.17,0.05,0.10,0.15,
25.701,-0.15,0.23,0.16,0.05,0.10,0.15,
25.702,-0.15,0.23,0.16,0.05,0.10,0.15,
25.733,-0.15,0.23,0.16,0.05,0.25,0.07,
25.734,-0.15,0.23,0.16,0.05,0.25,0.07,
25.734,-0.04,0.23,0.14,0.05,0.25,0.07,
25.734,-0.04,0.23,0.14,0.05,0.25,0.07,
25.771,-0.04,0.23,0.14,0.07,0.29,-0.11,
25.772,-0.04,0.23,0.14,0.07,0.29,-0.11,
25.772,0.14,0.23,0.15,0.07,0.29,-0.11,
25.773,0.14,0.23,0.15,0.07,0.29,-0.11,
25.808,0.14,0.23,0.15,0.09,0.44,-0.25,
25.809,0.14,0.23,0.15,0.09,0.44,-0.25,
25.81,0.20,0.22,0.10,0.09,0.44,-0.25,
25.81,0.20,0.22,0.10,0.09,0.44,-0.25,
25.846,0.20,0.22,0.10,0.05,0.44,-0.26,
25.847,0.20,0.22,0.10,0.05,0.44,-0.26,
25.847,0.25,0.14,0.01,0.05,0.44,-0.26,
25.848,0.25,0.14,0.01,0.05,0.44,-0.26,
25.885,0.25,0.14,0.01,-0.04,0.27,-0.18,
25.886,0.25,0.14,0.01,-0.04,0.27,-0.18,
25.887,0.18,0.18,-0.11,-0.04,0.27,-0.18,
25.887,0.18,0.18,-0.11,-0.04,0.27,-0.18,
25.923,0.18,0.18,-0.11,-0.11,0.09,-0.06,
25.924,0.18,0.18,-0.11,-0.11,0.09,-0.06,
25.924,0.05,0.19,-0.19,-0.11,0.09,-0.06,
25.925,0.05,0.19,-0.19,-0.11,0.09,-0.06,
25.961,0.05,0.19,-0.19,-0.12,-0.17,0.10,
25.962,0.05,0.19,-0.19,-0.12,-0.17,0.10,
25.963,0.01,0.21,-0.10,-0.12,-0.17,0.10,
25.963,0.01,0.21,-0.10,-0.12,-0.17,0.10,
25.999,0.01,0.21,-0.10,0.04,-0.18,0.14,
26.0,0.01,0.21,-0.10,0.04,-0.18,0.14,
26.0,-0.06,0.26,0.10,0.04,-0.18,0.14,
26.001,-0.06,0.26,0.10,0.04,-0.18,0.14,
26.036,-0.06,0.26,0.10,0.16,-0.16,0.14,
26.038,-0.06,0.26,0.10,0.16,-0.16,0.14,
26.038,-0.10,0.17,0.13,0.16,-0.16,0.14,
26.039,-0.10,0.17,0.13,0.16,-0.16,0.14,
26.08,-0.10,0.17,0.13,0.11,-0.30,0.12,
26.081,-0.10,0.17,0.13,0.11,-0.30,0.12,
26.081,-0.11,0.11,0.13,0.11,-0.30,0.12,
26.082,-0.11,0.11,0.13,0.11,-0.30,0.12,
26.125,-0.11,0.11,0.13,0.08,-0.31,0.10,
26.126,-0.11,0.11,0.13,0.08,-0.31,0.10,
26.127,-0.12,0.14,0.28,0.08,-0.31,0.10,
26.127,-0.12,0.14,0.28,0.08,-0.31,0.10,
26.151,-0.12,0.14,0.28,0.22,-0.27,0.10,
26.152,-0.12,0.14,0.28,0.22,-0.27,0.10,
26.153,-0.19,-0.00,0.45,0.22,-0.27,0.10,
26.153,-0.19,-0.00,0.45,0.22,-0.27,0.10,
26.189,-0.19,-0.00,0.45,0.39,0.18,-0.02,
26.19,-0.19,-0.00,0.45,0.39,0.18,-0.02,
26.19,-0.12,-0.33,0.63,0.39,0.18,-0.02,
26.191,-0.12,-0.33,0.63,0.39,0.18,-0.02,
26.227,-0.12,-0.33,0.63,0.43,0.63,-0.22,
26.228,-0.12,-0.33,0.63,0.43,0.63,-0.22,
26.228,0.05,-0.78,0.83,0.43,0.63,-0.22,
26.229,0.05,-0.78,0.83,0.43,0.63,-0.22,
26.265,0.05,-0.78,0.83,0.40,1.06,-0.38,
26.265,0.05,-0.78,0.83,0.40,1.06,-0.38,
26.266,0.08,-1.20,0.43,0.40,1.06,-0.38,
26.266,0.08,-1.20,0.43,0.40,1.06,-0.38,
26.303,0.08,-1.20,0.43,-0.06,1.03,-0.38,
26.303,0.08,-1.20,0.43,-0.06,1.03,-0.38,
26.304,0.10,-1.26,-0.00,-0.06,1.03,-0.38,
26.304,0.10,-1.26,-0.00,-0.06,1.03,-0.38,
26.341,0.10,-1.26,-0.00,-0.38,0.39,-0.17,
26.342,0.10,-1.26,-0.00,-0.38,0.39,-0.17,
26.342,0.04,-0.95,-0.21,-0.38,0.39,-0.17,
26.342,0.04,-0.95,-0.21,-0.38,0.39,-0.17,
26.381,0.04,-0.95,-0.21,-0.42,-0.00,0.05,
26.382,0.04,-0.95,-0.21,-0.42,-0.00,0.05,
26.385,-0.11,-0.50,-0.42,-0.42,-0.00,0.05,
26.386,-0.11,-0.50,-0.42,-0.42,-0.00,0.05,
26.416,-0.11,-0.50,-0.42,-0.27,0.03,0.18,
26.417,-0.11,-0.50,-0.42,-0.27,0.03,0.18,
26.417,-0.12,0.06,-0.29,-0.27,0.03,0.18,
26.417,-0.12,0.06,-0.29,-0.27,0.03,0.18,
26.455,-0.12,0.06,-0.29,-0.09,-0.19,0.19,
26.456,-0.12,0.06,-0.29,-0.09,-0.19,0.19,
26.456,0.16,0.45,-0.15,-0.09,-0.19,0.19,
26.457,0.16,0.45,-0.15,-0.09,-0.19,0.19,
26.498,0.16,0.45,-0.15,0.11,-0.41,-0.11,
26.499,0.16,0.45,-0.15,0.11,-0.41,-0.11,
26.499,0.52,0.65,-0.07,0.11,-0.41,-0.11,
26.503,0.52,0.65,-0.07,0.11,-0.41,-0.11,
26.531,0.52,0.65,-0.07,0.21,-0.35,-0.42,
26.532,0.52,0.65,-0.07,0.21,-0.35,-0.42,
26.532,0.80,1.04,-0.03,0.21,-0.35,-0.42,
26.532,0.80,1.04,-0.03,0.21,-0.35,-0.42,
26.568,0.80,1.04,-0.03,0.21,-0.26,-0.55,
26.569,0.80,1.04,-0.03,0.21,-0.26,-0.55,
26.569,0.92,0.90,0.02,0.21,-0.26,-0.55,
26.57,0.92,0.90,0.02,0.21,-0.26,-0.55,
26.607,0.92,0.90,0.02,0.11,-0.13,-0.52,
26.608,0.92,0.90,0.02,0.11,-0.13,-0.52,
26.608,0.96,0.68,-0.02,0.11,-0.13,-0.52,
26.608,0.96,0.68,-0.02,0.11,-0.13,-0.52,
26.644,0.96,0.68,-0.02,-0.00,-0.20,-0.47,
26.646,0.96,0.68,-0.02,-0.00,-0.20,-0.47,
26.646,1.29,0.61,-0.16,-0.00,-0.20,-0.47,
26.647,1.29,0.61,-0.16,-0.00,-0.20,-0.47,
26.682,1.29,0.61,-0.16,-0.18,-0.45,-0.76,
26.685,1.29,0.61,-0.16,-0.18,-0.45,-0.76,
26.686,1.83,0.50,-0.22,-0.18,-0.45,-0.76,
26.687,1.83,0.50,-0.22,-0.18,-0.45,-0.76,
26.72,1.83,0.50,-0.22,-0.20,-0.73,-1.06,
26.721,1.83,0.50,-0.22,-0.20,-0.73,-1.06,
26.721,2.28,0.31,-0.22,-0.20,-0.73,-1.06,
26.721,2.28,0.31,-0.22,-0.20,-0.73,-1.06,
26.758,2.28,0.31,-0.22,-0.16,-0.81,-1.08,
26.759,2.28,0.31,-0.22,-0.16,-0.81,-1.08,
26.76,2.36,-0.04,-0.32,-0.16,-0.81,-1.08,
26.76,2.36,-0.04,-0.32,-0.16,-0.81,-1.08,
26.797,2.36,-0.04,-0.32,-0.27,-0.10,-0.82,
26.798,2.36,-0.04,-0.32,-0.27,-0.10,-0.82,
26.799,2.08,-0.55,-0.45,-0.27,-0.10,-0.82,
26.803,2.08,-0.55,-0.45,-0.27,-0.10,-0.82,
26.834,2.08,-0.55,-0.45,-0.39,0.48,-0.51,
26.835,2.08,-0.55,-0.45,-0.39,0.48,-0.51,
26.835,1.72,-2.16,-0.49,-0.39,0.48,-0.51,
26.835,1.72,-2.16,-0.49,-0.39,0.48,-0.51,
26.877,1.72,-2.16,-0.49,-0.46,0.80,-0.17,
26.878,1.72,-2.16,-0.49,-0.46,0.80,-0.17,
26.878,1.61,-1.98,-0.55,-0.46,0.80,-0.17,
26.878,1.61,-1.98,-0.55,-0.46,0.80,-0.17,
26.91,1.61,-1.98,-0.55,-0.37,0.83,-0.35,
26.91,1.61,-1.98,-0.55,-0.37,0.83,-0.35,
26.911,1.84,-1.35,-0.49,-0.37,0.83,-0.35,
26.911,1.84,-1.35,-0.49,-0.37,0.83,-0.35,
26.948,1.84,-1.35,-0.49,-0.19,0.65,-0.66,
26.949,1.84,-1.35,-0.49,-0.19,0.65,-0.66,
26.95,1.81,-0.78,-0.31,-0.19,0.65,-0.66,
26.95,1.81,-0.78,-0.31,-0.19,0.65,-0.66,
26.986,1.81,-0.78,-0.31,-0.06,0.44,-0.75,
26.987,1.81,-0.78,-0.31,-0.06,0.44,-0.75,
26.987,1.68,-0.19,-0.30,-0.06,0.44,-0.75,
26.988,1.68,-0.19,-0.30,-0.06,0.44,-0.75,
27.024,1.68,-0.19,-0.30,-0.02,0.21,-0.68,
27.025,1.68,-0.19,-0.30,-0.02,0.21,-0.68,
27.026,1.32,0.12,-0.32,-0.02,0.21,-0.68,
27.026,1.32,0.12,-0.32,-0.02,0.21,-0.68,
27.062,1.32,0.12,-0.32,0.02,-0.12,-0.30,
27.063,1.32,0.12,-0.32,0.02,-0.12,-0.30,
27.064,0.74,0.08,-0.20,0.02,-0.12,-0.30,
27.065,0.74,0.08,-0.20,0.02,-0.12,-0.30,
27.1,0.74,0.08,-0.20,0.11,-0.05,0.07,
27.101,0.74,0.08,-0.20,0.11,-0.05,0.07,
27.101,0.40,-0.27,0.17,0.11,-0.05,0.07,
27.102,0.40,-0.27,0.17,0.11,-0.05,0.07,
27.15,0.40,-0.27,0.17,0.24,0.19,0.24,
27.151,0.40,-0.27,0.17,0.24,0.19,0.24,
27.152,0.20,-0.47,0.40,0.24,0.19,0.24,
27.152,0.20,-0.47,0.40,0.24,0.19,0.24,
27.18,0.20,-0.47,0.40,0.31,0.24,0.24,
27.181,0.20,-0.47,0.40,0.31,0.24,0.24,
27.181,0.06,-0.18,0.58,0.31,0.24,0.24,
27.182,0.06,-0.18,0.58,0.31,0.24,0.24,
27.218,0.06,-0.18,0.58,0.35,0.23,0.19,
27.219,0.06,-0.18,0.58,0.35,0.23,0.19,
27.219,-0.17,0.22,0.77,0.35,0.23,0.19,
27.219,-0.17,0.22,0.77,0.35,0.23,0.19,
27.252,-0.17,0.22,0.77,0.51,0.18,0.76,
27.253,-0.17,0.22,0.77,0.51,0.18,0.76,
27.253,-2.17,1.72,0.76,0.51,0.18,0.76,
27.254,-2.17,1.72,0.76,0.51,0.18,0.76,
27.29,-2.17,1.72,0.76,0.66,0.09,2.34,
27.292,-2.17,1.72,0.76,0.66,0.09,2.34,
27.293,-4.04,1.42,1.03,0.66,0.09,2.34,
27.293,-4.04,1.42,1.03,0.66,0.09,2.34,
27.328,-4.04,1.42,1.03,0.68,0.22,2.97,
27.329,-4.04,1.42,1.03,0.68,0.22,2.97,
27.329,-4.30,-0.26,1.48,0.68,0.22,2.97,
27.33,-4.30,-0.26,1.48,0.68,0.22,2.97,
27.366,-4.30,-0.26,1.48,0.61,0.28,2.26,
27.367,-4.30,-0.26,1.48,0.61,0.28,2.26,
27.367,-4.16,-0.25,1.50,0.61,0.28,2.26,
27.368,-4.16,-0.25,1.50,0.61,0.28,2.26,
27.404,-4.16,-0.25,1.50,0.47,0.34,1.13,
27.406,-4.16,-0.25,1.50,0.47,0.34,1.13,
27.407,-3.53,-0.53,1.40,0.47,0.34,1.13,
27.408,-3.53,-0.53,1.40,0.47,0.34,1.13,
27.449,-3.53,-0.53,1.40,-0.27,0.61,-0.74,
27.45,-3.53,-0.53,1.40,-0.27,0.61,-0.74,
27.451,-1.20,-0.53,-0.29,-0.27,0.61,-0.74,
27.453,-1.20,-0.53,-0.29,-0.27,0.61,-0.74,
27.486,-1.20,-0.53,-0.29,-0.56,0.70,-1.41,
27.487,-1.20,-0.53,-0.29,-0.56,0.70,-1.41,
27.488,-0.47,-0.62,-0.64,-0.56,0.70,-1.41,
27.488,-0.47,-0.62,-0.64,-0.56,0.70,-1.41,
27.524,-0.47,-0.62,-0.64,-0.73,0.92,-1.53,
27.525,-0.47,-0.62,-0.64,-0.73,0.92,-1.53,
27.526,0.17,-1.18,-0.55,-0.73,0.92,-1.53,
27.531,0.17,-1.18,-0.55,-0.73,0.92,-1.53,
27.555,0.17,-1.18,-0.55,0.10,1.09,-1.40,
27.556,0.17,-1.18,-0.55,0.10,1.09,-1.40,
27.556,1.17,-1.64,1.35,0.10,1.09,-1.40,
27.557,1.17,-1.64,1.35,0.10,1.09,-1.40,
27.595,1.17,-1.64,1.35,1.30,1.34,-0.96,
27.596,1.17,-1.64,1.35,1.30,1.34,-0.96,
27.596,2.03,-2.00,4.51,1.30,1.34,-0.96,
27.596,2.03,-2.00,4.51,1.30,1.34,-0.96,
27.631,2.03,-2.00,4.51,3.10,1.70,-1.12,
27.633,2.03,-2.00,4.51,3.10,1.70,-1.12,
27.634,2.81,-2.36,6.57,3.10,1.70,-1.12,
27.634,2.81,-2.36,6.57,3.10,1.70,-1.12,
27.669,2.81,-2.36,6.57,2.93,1.65,-1.45,
27.67,2.81,-2.36,6.57,2.93,1.65,-1.45,
27.67,3.12,-2.63,6.84,2.93,1.65,-1.45,
27.67,3.12,-2.63,6.84,2.93,1.65,-1.45,
27.708,3.12,-2.63,6.84,1.83,1.49,-1.30,
27.709,3.12,-2.63,6.84,1.83,1.49,-1.30,
27.71,2.62,-3.07,6.89,1.83,1.49,-1.30,
27.71,2.62,-3.07,6.89,1.83,1.49,-1.30,
27.746,2.62,-3.07,6.89,0.88,1.47,-0.65,
27.746,2.62,-3.07,6.89,0.88,1.47,-0.65,
27.747,0.68,-3.61,6.16,0.88,1.47,-0.65,
27.747,0.68,-3.61,6.16,0.88,1.47,-0.65,
27.784,0.68,-3.61,6.16,0.25,1.45,-0.03,
27.784,0.68,-3.61,6.16,0.25,1.45,-0.03,
27.785,0.11,-3.99,3.98,0.25,1.45,-0.03,
27.785,0.11,-3.99,3.98,0.25,1.45,-0.03,
27.825,0.11,-3.99,3.98,-0.62,1.21,0.31,
27.826,0.11,-3.99,3.98,-0.62,1.21,0.31,
27.826,-0.61,-3.92,3.28,-0.62,1.21,0.31,
27.826,-0.61,-3.92,3.28,-0.62,1.21,0.31,
27.859,-0.61,-3.92,3.28,-1.09,1.26,0.55,
27.86,-0.61,-3.92,3.28,-1.09,1.26,0.55,
27.86,-2.46,-2.31,-0.55,-1.09,1.26,0.55,
27.86,-2.46,-2.31,-0.55,-1.09,1.26,0.55,
27.897,-2.46,-2.31,-0.55,-1.42,1.06,1.06,
27.9,-2.46,-2.31,-0.55,-1.42,1.06,1.06,
27.901,-2.21,-0.21,-0.79,-1.42,1.06,1.06,
27.902,-2.21,-0.21,-0.79,-1.42,1.06,1.06,
27.935,-2.21,-0.21,-0.79,-0.34,0.98,0.35,
27.937,-2.21,-0.21,-0.79,-0.34,0.98,0.35,
27.937,-0.70,1.78,-0.91,-0.34,0.98,0.35,
27.938,-0.70,1.78,-0.91,-0.34,0.98,0.35,
27.973,-0.70,1.78,-0.91,0.57,1.17,-0.84,
27.974,-0.70,1.78,-0.91,0.57,1.17,-0.84,
27.974,-0.17,2.18,-0.82,0.57,1.17,-0.84,
27.975,-0.17,2.18,-0.82,0.57,1.17,-0.84,
28.011,-0.17,2.18,-0.82,2.19,0.72,-2.23,
28.012,-0.17,2.18,-0.82,2.19,0.72,-2.23,
28.012,1.90,4.06,1.00,2.19,0.72,-2.23,
28.012,1.90,4.06,1.00,2.19,0.72,-2.23,
28.049,1.90,4.06,1.00,3.59,0.26,-2.64,
28.05,1.90,4.06,1.00,3.59,0.26,-2.64,
28.05,1.95,4.31,1.21,3.59,0.26,-2.64,
28.051,1.95,4.31,1.21,3.59,0.26,-2.64,
28.088,1.95,4.31,1.21,2.93,0.56,-2.65,
28.089,1.95,4.31,1.21,2.93,0.56,-2.65,
28.089,1.63,4.52,1.63,2.93,0.56,-2.65,
28.09,1.63,4.52,1.63,2.93,0.56,-2.65,
28.138,1.63,4.52,1.63,2.33,0.86,-2.05,
28.139,1.63,4.52,1.63,2.33,0.86,-2.05,
28.139,1.26,4.76,1.83,2.33,0.86,-2.05,
28.139,1.26,4.76,1.83,2.33,0.86,-2.05,
28.165,1.26,4.76,1.83,1.91,1.01,-1.34,
28.166,1.26,4.76,1.83,1.91,1.01,-1.34,
28.167,1.21,5.10,1.93,1.91,1.01,-1.34,
28.167,1.21,5.10,1.93,1.91,1.01,-1.34,
28.201,1.21,5.10,1.93,2.16,0.93,-1.09,
28.202,1.21,5.10,1.93,2.16,0.93,-1.09,
28.203,1.24,6.60,1.95,2.16,0.93,-1.09,
28.203,1.24,6.60,1.95,2.16,0.93,-1.09,
28.24,1.24,6.60,1.95,2.53,0.62,-1.01,
28.24,1.24,6.60,1.95,2.53,0.62,-1.01,
28.241,1.35,6.55,1.57,2.53,0.62,-1.01,
28.241,1.35,6.55,1.57,2.53,0.62,-1.01,
28.277,1.35,6.55,1.57,2.11,0.24,-1.89,
28.278,1.35,6.55,1.57,2.11,0.24,-1.89,
