
time,ax,ay,az,wx,wy,wz,
0.001,0.64,0.53,0.22,0.35,-0.24,0.20,
0.002,0.64,0.53,0.22,0.35,-0.24,0.20,
0.003,0.63,0.40,0.65,0.35,-0.24,0.20,
0.003,0.63,0.40,0.65,0.35,-0.24,0.20,
0.013,0.63,0.40,0.65,0.34,-0.23,0.22,
0.014,0.63,0.40,0.65,0.34,-0.23,0.22,
0.015,0.61,0.28,0.82,0.34,-0.23,0.22,
0.015,0.61,0.28,0.82,0.34,-0.23,0.22,
0.015,0.61,0.28,0.82,0.25,-0.24,0.17,
0.016,0.61,0.28,0.82,0.25,-0.24,0.17,
0.016,0.59,0.20,0.67,0.25,-0.24,0.17,
0.017,0.59,0.20,0.67,0.25,-0.24,0.17,
0.032,0.59,0.20,0.67,0.10,-0.25,0.09,
0.033,0.59,0.20,0.67,0.10,-0.25,0.09,
0.033,0.51,0.17,0.41,0.10,-0.25,0.09,
0.033,0.51,0.17,0.41,0.10,-0.25,0.09,
0.034,0.51,0.17,0.41,-0.06,-0.25,0.03,
0.034,0.51,0.17,0.41,-0.06,-0.25,0.03,
0.035,0.40,0.14,0.17,-0.06,-0.25,0.03,
0.035,0.40,0.14,0.17,-0.06,-0.25,0.03,
0.046,0.40,0.14,0.17,-0.06,-0.25,0.03,
0.047,0.40,0.14,0.17,-0.06,-0.25,0.03,
0.047,0.40,0.14,0.17,-0.06,-0.25,0.03,
0.048,0.40,0.14,0.17,-0.06,-0.25,0.03,
0.05,0.40,0.14,0.17,-0.17,-0.22,0.00,
0.051,0.40,0.14,0.17,-0.17,-0.22,0.00,
0.051,0.24,0.01,0.04,-0.17,-0.22,0.00,
0.051,0.24,0.01,0.04,-0.17,-0.22,0.00,
0.06,0.24,0.01,0.04,-0.22,-0.17,-0.00,
0.061,0.24,0.01,0.04,-0.22,-0.17,-0.00,
0.061,0.20,-0.00,0.14,-0.22,-0.17,-0.00,
0.062,0.20,-0.00,0.14,-0.22,-0.17,-0.00,
0.068,0.20,-0.00,0.14,-0.23,-0.11,-0.00,
0.069,0.20,-0.00,0.14,-0.23,-0.11,-0.00,
0.069,0.21,-0.03,0.28,-0.23,-0.11,-0.00,
0.07,0.21,-0.03,0.28,-0.23,-0.11,-0.00,
0.078,0.21,-0.03,0.28,-0.23,-0.05,-0.01,
0.079,0.21,-0.03,0.28,-0.23,-0.05,-0.01,
0.079,0.25,-0.02,0.41,-0.23,-0.05,-0.01,
0.079,0.25,-0.02,0.41,-0.23,-0.05,-0.01,
0.089,0.25,-0.02,0.41,-0.24,0.01,-0.03,
0.09,0.25,-0.02,0.41,-0.24,0.01,-0.03,
0.091,0.34,-0.03,0.51,-0.24,0.01,-0.03,
0.091,0.34,-0.03,0.51,-0.24,0.01,-0.03,
0.097,0.34,-0.03,0.51,-0.26,0.04,-0.04,
0.098,0.34,-0.03,0.51,-0.26,0.04,-0.04,
0.099,0.41,-0.08,0.52,-0.26,0.04,-0.04,
0.1,0.41,-0.08,0.52,-0.26,0.04,-0.04,
0.106,0.41,-0.08,0.52,-0.28,0.05,-0.04,
0.107,0.41,-0.08,0.52,-0.28,0.05,-0.04,
0.108,0.41,-0.11,0.44,-0.28,0.05,-0.04,
0.108,0.41,-0.11,0.44,-0.28,0.05,-0.04,
0.116,0.41,-0.11,0.44,-0.29,0.04,-0.02,
0.117,0.41,-0.11,0.44,-0.29,0.04,-0.02,
0.118,0.39,-0.14,0.30,-0.29,0.04,-0.02,
0.118,0.39,-0.14,0.30,-0.29,0.04,-0.02,
0.132,0.39,-0.14,0.30,-0.29,-0.02,0.01,
0.134,0.39,-0.14,0.30,-0.29,-0.02,0.01,
0.135,0.29,-0.16,0.14,-0.29,-0.02,0.01,
0.136,0.29,-0.16,0.14,-0.29,-0.02,0.01,
0.143,0.29,-0.16,0.14,-0.27,-0.05,0.02,
0.144,0.29,-0.16,0.14,-0.27,-0.05,0.02,
0.145,0.19,-0.15,-0.04,-0.27,-0.05,0.02,
0.147,0.19,-0.15,-0.04,-0.27,-0.05,0.02,
0.148,0.19,-0.15,-0.04,-0.27,-0.05,0.02,
0.149,0.19,-0.15,-0.04,-0.27,-0.05,0.02,
0.149,0.19,-0.15,-0.04,-0.27,-0.05,0.02,
0.15,0.19,-0.15,-0.04,-0.27,-0.05,0.02,
0.154,0.19,-0.15,-0.04,-0.23,-0.06,0.02,
0.155,0.19,-0.15,-0.04,-0.23,-0.06,0.02,
0.155,0.12,-0.14,-0.20,-0.23,-0.06,0.02,
0.156,0.12,-0.14,-0.20,-0.23,-0.06,0.02,
0.164,0.12,-0.14,-0.20,-0.17,-0.05,0.03,
0.164,0.12,-0.14,-0.20,-0.17,-0.05,0.03,
0.165,0.13,-0.15,-0.15,-0.17,-0.05,0.03,
0.165,0.13,-0.15,-0.15,-0.17,-0.05,0.03,
0.173,0.13,-0.15,-0.15,-0.11,-0.03,0.05,
0.174,0.13,-0.15,-0.15,-0.11,-0.03,0.05,
0.175,0.17,-0.19,0.01,-0.11,-0.03,0.05,
0.175,0.17,-0.19,0.01,-0.11,-0.03,0.05,
0.184,0.17,-0.19,0.01,-0.05,0.00,0.07,
0.185,0.17,-0.19,0.01,-0.05,0.00,0.07,
0.186,0.20,-0.25,0.25,-0.05,0.00,0.07,
0.186,0.20,-0.25,0.25,-0.05,0.00,0.07,
0.193,0.20,-0.25,0.25,-0.02,0.02,0.09,
0.194,0.20,-0.25,0.25,-0.02,0.02,0.09,
0.195,0.22,-0.30,0.50,-0.02,0.02,0.09,
0.196,0.22,-0.30,0.50,-0.02,0.02,0.09,
0.202,0.22,-0.30,0.50,-0.02,0.03,0.09,
0.202,0.22,-0.30,0.50,-0.02,0.03,0.09,
0.203,0.18,-0.38,0.70,-0.02,0.03,0.09,
0.204,0.18,-0.38,0.70,-0.02,0.03,0.09,
0.211,0.18,-0.38,0.70,-0.08,0.01,0.06,
0.212,0.18,-0.38,0.70,-0.08,0.01,0.06,
0.213,0.14,-0.43,0.84,-0.08,0.01,0.06,
0.213,0.14,-0.43,0.84,-0.08,0.01,0.06,
0.231,0.14,-0.43,0.84,-0.17,-0.02,-0.01,
0.232,0.14,-0.43,0.84,-0.17,-0.02,-0.01,
0.232,0.13,-0.40,0.84,-0.17,-0.02,-0.01,
0.233,0.13,-0.40,0.84,-0.17,-0.02,-0.01,
0.24,0.13,-0.40,0.84,-0.17,-0.02,-0.01,
0.242,0.13,-0.40,0.84,-0.17,-0.02,-0.01,
0.243,0.13,-0.40,0.84,-0.17,-0.02,-0.01,
0.244,0.13,-0.40,0.84,-0.17,-0.02,-0.01,
0.245,0.13,-0.40,0.84,-0.28,-0.04,-0.09,
0.246,0.13,-0.40,0.84,-0.28,-0.04,-0.09,
0.247,0.07,-0.39,0.76,-0.28,-0.04,-0.09,
0.248,0.07,-0.39,0.76,-0.28,-0.04,-0.09,
0.252,0.07,-0.39,0.76,-0.36,-0.05,-0.14,
0.253,0.07,-0.39,0.76,-0.36,-0.05,-0.14,
0.254,0.04,-0.35,0.76,-0.36,-0.05,-0.14,
0.255,0.04,-0.35,0.76,-0.36,-0.05,-0.14,
0.259,0.04,-0.35,0.76,-0.41,-0.05,-0.18,
0.26,0.04,-0.35,0.76,-0.41,-0.05,-0.18,
0.261,0.07,-0.31,0.75,-0.41,-0.05,-0.18,
0.261,0.07,-0.31,0.75,-0.41,-0.05,-0.18,
0.269,0.07,-0.31,0.75,-0.42,-0.04,-0.20,
0.27,0.07,-0.31,0.75,-0.42,-0.04,-0.20,
0.27,0.11,-0.25,0.53,-0.42,-0.04,-0.20,
0.27,0.11,-0.25,0.53,-0.42,-0.04,-0.20,
0.278,0.11,-0.25,0.53,-0.40,-0.04,-0.22,
0.279,0.11,-0.25,0.53,-0.40,-0.04,-0.22,
0.28,0.17,-0.18,0.30,-0.40,-0.04,-0.22,
0.28,0.17,-0.18,0.30,-0.40,-0.04,-0.22,
0.288,0.17,-0.18,0.30,-0.35,-0.04,-0.21,
0.288,0.17,-0.18,0.30,-0.35,-0.04,-0.21,
0.289,0.21,-0.16,0.13,-0.35,-0.04,-0.21,
0.289,0.21,-0.16,0.13,-0.35,-0.04,-0.21,
0.297,0.21,-0.16,0.13,-0.26,-0.05,-0.16,
0.298,0.21,-0.16,0.13,-0.26,-0.05,-0.16,
0.299,0.16,-0.21,0.07,-0.26,-0.05,-0.16,
0.299,0.16,-0.21,0.07,-0.26,-0.05,-0.16,
0.307,0.16,-0.21,0.07,-0.16,-0.05,-0.08,
0.308,0.16,-0.21,0.07,-0.16,-0.05,-0.08,
0.308,0.12,-0.27,0.16,-0.16,-0.05,-0.08,
0.309,0.12,-0.27,0.16,-0.16,-0.05,-0.08,
0.316,0.12,-0.27,0.16,-0.07,-0.07,-0.02,
0.317,0.12,-0.27,0.16,-0.07,-0.07,-0.02,
0.317,0.10,-0.28,0.33,-0.07,-0.07,-0.02,
0.318,0.10,-0.28,0.33,-0.07,-0.07,-0.02,
0.332,0.10,-0.28,0.33,-0.01,-0.08,-0.00,
0.333,0.10,-0.28,0.33,-0.01,-0.08,-0.00,
0.334,0.08,-0.30,0.48,-0.01,-0.08,-0.00,
0.334,0.08,-0.30,0.48,-0.01,-0.08,-0.00,
0.336,0.08,-0.30,0.48,0.00,-0.09,-0.01,
0.336,0.08,-0.30,0.48,0.00,-0.09,-0.01,
0.337,0.05,-0.28,0.66,0.00,-0.09,-0.01,
0.337,0.05,-0.28,0.66,0.00,-0.09,-0.01,
0.344,0.05,-0.28,0.66,-0.02,-0.08,-0.02,
0.346,0.05,-0.28,0.66,-0.02,-0.08,-0.02,
0.347,0.04,-0.27,0.89,-0.02,-0.08,-0.02,
0.348,0.04,-0.27,0.89,-0.02,-0.08,-0.02,
0.368,0.04,-0.27,0.89,-0.07,-0.06,-0.03,
0.369,0.04,-0.27,0.89,-0.07,-0.06,-0.03,
0.369,-0.01,-0.31,1.04,-0.07,-0.06,-0.03,
0.37,-0.01,-0.31,1.04,-0.07,-0.06,-0.03,
0.371,-0.01,-0.31,1.04,-0.12,-0.03,-0.04,
0.371,-0.01,-0.31,1.04,-0.12,-0.03,-0.04,
0.372,-0.05,-0.36,1.10,-0.12,-0.03,-0.04,
0.372,-0.05,-0.36,1.10,-0.12,-0.03,-0.04,
0.374,-0.05,-0.36,1.10,-0.19,0.01,-0.05,
0.374,-0.05,-0.36,1.10,-0.19,0.01,-0.05,
0.375,-0.14,-0.46,1.07,-0.19,0.01,-0.05,
0.375,-0.14,-0.46,1.07,-0.19,0.01,-0.05,
0.383,-0.14,-0.46,1.07,-0.26,0.05,-0.05,
0.384,-0.14,-0.46,1.07,-0.26,0.05,-0.05,
0.384,-0.24,-0.55,1.02,-0.26,0.05,-0.05,
0.384,-0.24,-0.55,1.02,-0.26,0.05,-0.05,
0.393,-0.24,-0.55,1.02,-0.32,0.10,-0.06,
0.394,-0.24,-0.55,1.02,-0.32,0.10,-0.06,
0.395,-0.28,-0.58,0.97,-0.32,0.10,-0.06,
0.395,-0.28,-0.58,0.97,-0.32,0.10,-0.06,
0.401,-0.28,-0.58,0.97,-0.38,0.15,-0.07,
0.402,-0.28,-0.58,0.97,-0.38,0.15,-0.07,
0.402,-0.29,-0.57,0.90,-0.38,0.15,-0.07,
0.403,-0.29,-0.57,0.90,-0.38,0.15,-0.07,
0.412,-0.29,-0.57,0.90,-0.43,0.19,-0.09,
0.413,-0.29,-0.57,0.90,-0.43,0.19,-0.09,
0.414,-0.22,-0.52,0.86,-0.43,0.19,-0.09,
0.414,-0.22,-0.52,0.86,-0.43,0.19,-0.09,
0.43,-0.22,-0.52,0.86,-0.46,0.22,-0.11,
0.431,-0.22,-0.52,0.86,-0.46,0.22,-0.11,
0.432,-0.13,-0.44,0.76,-0.46,0.22,-0.11,
0.432,-0.13,-0.44,0.76,-0.46,0.22,-0.11,
0.433,-0.13,-0.44,0.76,-0.46,0.22,-0.11,
0.434,-0.13,-0.44,0.76,-0.46,0.22,-0.11,
0.434,-0.13,-0.44,0.76,-0.46,0.22,-0.11,
0.435,-0.13,-0.44,0.76,-0.46,0.22,-0.11,
0.44,-0.13,-0.44,0.76,-0.46,0.21,-0.14,
0.441,-0.13,-0.44,0.76,-0.46,0.21,-0.14,
0.442,0.02,-0.34,0.49,-0.46,0.21,-0.14,
0.443,0.02,-0.34,0.49,-0.46,0.21,-0.14,
0.449,0.02,-0.34,0.49,-0.43,0.18,-0.16,
0.45,0.02,-0.34,0.49,-0.43,0.18,-0.16,
0.45,0.03,-0.32,0.34,-0.43,0.18,-0.16,
0.451,0.03,-0.32,0.34,-0.43,0.18,-0.16,
0.459,0.03,-0.32,0.34,-0.37,0.12,-0.16,
0.46,0.03,-0.32,0.34,-0.37,0.12,-0.16,
0.461,0.01,-0.30,0.20,-0.37,0.12,-0.16,
0.461,0.01,-0.30,0.20,-0.37,0.12,-0.16,
0.468,0.01,-0.30,0.20,-0.28,0.04,-0.15,
0.469,0.01,-0.30,0.20,-0.28,0.04,-0.15,
0.469,-0.01,-0.27,0.09,-0.28,0.04,-0.15,
0.47,-0.01,-0.27,0.09,-0.28,0.04,-0.15,
0.478,-0.01,-0.27,0.09,-0.18,-0.02,-0.13,
0.48,-0.01,-0.27,0.09,-0.18,-0.02,-0.13,
0.48,-0.01,-0.22,-0.02,-0.18,-0.02,-0.13,
0.481,-0.01,-0.22,-0.02,-0.18,-0.02,-0.13,
0.487,-0.01,-0.22,-0.02,-0.08,-0.07,-0.10,
0.488,-0.01,-0.22,-0.02,-0.08,-0.07,-0.10,
0.489,-0.00,-0.18,-0.11,-0.08,-0.07,-0.10,
0.489,-0.00,-0.18,-0.11,-0.08,-0.07,-0.10,
0.497,-0.00,-0.18,-0.11,0.00,-0.10,-0.07,
0.498,-0.00,-0.18,-0.11,0.00,-0.10,-0.07,
0.498,0.02,-0.16,-0.14,0.00,-0.10,-0.07,
0.499,0.02,-0.16,-0.14,0.00,-0.10,-0.07,
0.506,0.02,-0.16,-0.14,0.08,-0.11,-0.02,
0.507,0.02,-0.16,-0.14,0.08,-0.11,-0.02,
0.508,0.03,-0.12,-0.16,0.08,-0.11,-0.02,
0.508,0.03,-0.12,-0.16,0.08,-0.11,-0.02,
0.516,0.03,-0.12,-0.16,0.15,-0.11,0.03,
0.517,0.03,-0.12,-0.16,0.15,-0.11,0.03,
0.517,0.02,-0.07,-0.11,0.15,-0.11,0.03,
0.518,0.02,-0.07,-0.11,0.15,-0.11,0.03,
0.526,0.02,-0.07,-0.11,0.20,-0.10,0.07,
0.527,0.02,-0.07,-0.11,0.20,-0.10,0.07,
0.528,0.05,-0.03,-0.03,0.20,-0.10,0.07,
0.529,0.05,-0.03,-0.03,0.20,-0.10,0.07,
0.535,0.05,-0.03,-0.03,0.24,-0.10,0.10,
0.536,0.05,-0.03,-0.03,0.24,-0.10,0.10,
0.536,0.07,0.01,0.06,0.24,-0.10,0.10,
0.537,0.07,0.01,0.06,0.24,-0.10,0.10,
0.545,0.07,0.01,0.06,0.25,-0.10,0.09,
0.546,0.07,0.01,0.06,0.25,-0.10,0.09,
0.547,0.10,0.03,0.16,0.25,-0.10,0.09,
0.547,0.10,0.03,0.16,0.25,-0.10,0.09,
0.554,0.10,0.03,0.16,0.25,-0.10,0.08,
0.555,0.10,0.03,0.16,0.25,-0.10,0.08,
0.555,0.16,0.01,0.24,0.25,-0.10,0.08,
0.556,0.16,0.01,0.24,0.25,-0.10,0.08,
0.564,0.16,0.01,0.24,0.23,-0.10,0.07,
0.565,0.16,0.01,0.24,0.23,-0.10,0.07,
0.565,0.21,0.01,0.30,0.23,-0.10,0.07,
0.565,0.21,0.01,0.30,0.23,-0.10,0.07,
0.573,0.21,0.01,0.30,0.20,-0.10,0.08,
0.574,0.21,0.01,0.30,0.20,-0.10,0.08,
0.574,0.26,0.01,0.34,0.20,-0.10,0.08,
0.575,0.26,0.01,0.34,0.20,-0.10,0.08,
0.583,0.26,0.01,0.34,0.16,-0.11,0.09,
0.583,0.26,0.01,0.34,0.16,-0.11,0.09,
0.584,0.27,-0.01,0.37,0.16,-0.11,0.09,
0.585,0.27,-0.01,0.37,0.16,-0.11,0.09,
0.592,0.27,-0.01,0.37,0.10,-0.14,0.06,
0.592,0.27,-0.01,0.37,0.10,-0.14,0.06,
0.593,0.27,-0.03,0.38,0.10,-0.14,0.06,
0.594,0.27,-0.03,0.38,0.10,-0.14,0.06,
0.602,0.27,-0.03,0.38,0.05,-0.17,0.01,
0.603,0.27,-0.03,0.38,0.05,-0.17,0.01,
0.603,0.23,-0.04,0.38,0.05,-0.17,0.01,
0.604,0.23,-0.04,0.38,0.05,-0.17,0.01,
0.611,0.23,-0.04,0.38,-0.01,-0.21,-0.06,
0.613,0.23,-0.04,0.38,-0.01,-0.21,-0.06,
0.614,0.19,-0.05,0.31,-0.01,-0.21,-0.06,
0.615,0.19,-0.05,0.31,-0.01,-0.21,-0.06,
0.624,0.19,-0.05,0.31,-0.01,-0.21,-0.06,
0.625,0.19,-0.05,0.31,-0.01,-0.21,-0.06,
0.626,0.19,-0.05,0.31,-0.01,-0.21,-0.06,
0.626,0.19,-0.05,0.31,-0.01,-0.21,-0.06,
0.63,0.19,-0.05,0.31,-0.06,-0.24,-0.13,
0.631,0.19,-0.05,0.31,-0.06,-0.24,-0.13,
0.631,0.13,-0.07,0.14,-0.06,-0.24,-0.13,
0.632,0.13,-0.07,0.14,-0.06,-0.24,-0.13,
0.64,0.13,-0.07,0.14,-0.10,-0.24,-0.18,
0.641,0.13,-0.07,0.14,-0.10,-0.24,-0.18,
0.641,0.14,-0.04,0.05,-0.10,-0.24,-0.18,
0.642,0.14,-0.04,0.05,-0.10,-0.24,-0.18,
0.649,0.14,-0.04,0.05,-0.12,-0.22,-0.20,
0.65,0.14,-0.04,0.05,-0.12,-0.22,-0.20,
0.651,0.16,-0.02,0.02,-0.12,-0.22,-0.20,
0.651,0.16,-0.02,0.02,-0.12,-0.22,-0.20,
0.659,0.16,-0.02,0.02,-0.11,-0.19,-0.19,
0.661,0.16,-0.02,0.02,-0.11,-0.19,-0.19,
0.661,0.20,0.03,0.03,-0.11,-0.19,-0.19,
0.662,0.20,0.03,0.03,-0.11,-0.19,-0.19,
0.668,0.20,0.03,0.03,-0.09,-0.15,-0.16,
0.669,0.20,0.03,0.03,-0.09,-0.15,-0.16,
0.669,0.27,0.06,0.12,-0.09,-0.15,-0.16,
0.67,0.27,0.06,0.12,-0.09,-0.15,-0.16,
0.678,0.27,0.06,0.12,-0.07,-0.13,-0.13,
0.679,0.27,0.06,0.12,-0.07,-0.13,-0.13,
0.68,0.33,0.06,0.28,-0.07,-0.13,-0.13,
0.68,0.33,0.06,0.28,-0.07,-0.13,-0.13,
0.688,0.33,0.06,0.28,-0.05,-0.13,-0.11,
0.689,0.33,0.06,0.28,-0.05,-0.13,-0.11,
0.69,0.40,0.06,0.50,-0.05,-0.13,-0.11,
0.69,0.40,0.06,0.50,-0.05,-0.13,-0.11,
0.697,0.40,0.06,0.50,-0.04,-0.14,-0.10,
0.698,0.40,0.06,0.50,-0.04,-0.14,-0.10,
0.698,0.44,0.01,0.70,-0.04,-0.14,-0.10,
0.699,0.44,0.01,0.70,-0.04,-0.14,-0.10,
0.706,0.44,0.01,0.70,-0.06,-0.16,-0.10,
0.709,0.44,0.01,0.70,-0.06,-0.16,-0.10,
0.71,0.46,-0.01,0.82,-0.06,-0.16,-0.10,
0.711,0.46,-0.01,0.82,-0.06,-0.16,-0.10,
0.715,0.46,-0.01,0.82,-0.10,-0.19,-0.12,
0.716,0.46,-0.01,0.82,-0.10,-0.19,-0.12,
0.717,0.45,-0.07,0.84,-0.10,-0.19,-0.12,
0.717,0.45,-0.07,0.84,-0.10,-0.19,-0.12,
0.727,0.45,-0.07,0.84,-0.16,-0.22,-0.14,
0.728,0.45,-0.07,0.84,-0.16,-0.22,-0.14,
0.728,0.42,-0.10,0.76,-0.16,-0.22,-0.14,
0.729,0.42,-0.10,0.76,-0.16,-0.22,-0.14,
0.734,0.42,-0.10,0.76,-0.23,-0.23,-0.16,
0.735,0.42,-0.10,0.76,-0.23,-0.23,-0.16,
0.735,0.36,-0.11,0.62,-0.23,-0.23,-0.16,
0.735,0.36,-0.11,0.62,-0.23,-0.23,-0.16,
0.744,0.36,-0.11,0.62,-0.28,-0.24,-0.19,
0.745,0.36,-0.11,0.62,-0.28,-0.24,-0.19,
0.745,0.31,-0.12,0.47,-0.28,-0.24,-0.19,
0.745,0.31,-0.12,0.47,-0.28,-0.24,-0.19,
0.753,0.31,-0.12,0.47,-0.30,-0.23,-0.19,
0.754,0.31,-0.12,0.47,-0.30,-0.23,-0.19,
0.754,0.28,-0.11,0.29,-0.30,-0.23,-0.19,
0.755,0.28,-0.11,0.29,-0.30,-0.23,-0.19,
0.763,0.28,-0.11,0.29,-0.30,-0.20,-0.18,
0.764,0.28,-0.11,0.29,-0.30,-0.20,-0.18,
0.764,0.26,-0.12,0.11,-0.30,-0.20,-0.18,
0.764,0.26,-0.12,0.11,-0.30,-0.20,-0.18,
0.772,0.26,-0.12,0.11,-0.26,-0.17,-0.16,
0.774,0.26,-0.12,0.11,-0.26,-0.17,-0.16,
0.775,0.26,-0.17,-0.07,-0.26,-0.17,-0.16,
0.775,0.26,-0.17,-0.07,-0.26,-0.17,-0.16,
0.783,0.26,-0.17,-0.07,-0.21,-0.14,-0.12,
0.784,0.26,-0.17,-0.07,-0.21,-0.14,-0.12,
0.784,0.27,-0.22,-0.21,-0.21,-0.14,-0.12,
0.785,0.27,-0.22,-0.21,-0.21,-0.14,-0.12,
0.792,0.27,-0.22,-0.21,-0.15,-0.12,-0.10,
0.794,0.27,-0.22,-0.21,-0.15,-0.12,-0.10,
0.795,0.33,-0.26,-0.35,-0.15,-0.12,-0.10,
0.796,0.33,-0.26,-0.35,-0.15,-0.12,-0.10,
0.801,0.33,-0.26,-0.35,-0.10,-0.12,-0.09,
0.801,0.33,-0.26,-0.35,-0.10,-0.12,-0.09,
0.802,0.48,-0.23,-0.46,-0.10,-0.12,-0.09,
0.802,0.48,-0.23,-0.46,-0.10,-0.12,-0.09,
0.811,0.48,-0.23,-0.46,-0.06,-0.15,-0.10,
0.812,0.48,-0.23,-0.46,-0.06,-0.15,-0.10,
0.812,0.71,-0.14,-0.56,-0.06,-0.15,-0.10,
0.813,0.71,-0.14,-0.56,-0.06,-0.15,-0.10,
0.822,0.71,-0.14,-0.56,-0.06,-0.15,-0.10,
0.823,0.71,-0.14,-0.56,-0.06,-0.15,-0.10,
0.823,0.71,-0.14,-0.56,-0.06,-0.15,-0.10,
0.824,0.71,-0.14,-0.56,-0.06,-0.15,-0.10,
0.829,0.71,-0.14,-0.56,-0.02,-0.21,-0.12,
0.83,0.71,-0.14,-0.56,-0.02,-0.21,-0.12,
0.831,1.19,-0.03,-0.75,-0.02,-0.21,-0.12,
0.831,1.19,-0.03,-0.75,-0.02,-0.21,-0.12,
0.839,1.19,-0.03,-0.75,0.02,-0.33,-0.15,
0.84,1.19,-0.03,-0.75,0.02,-0.33,-0.15,
0.841,1.32,-0.09,-0.93,0.02,-0.33,-0.15,
0.841,1.32,-0.09,-0.93,0.02,-0.33,-0.15,
0.849,1.32,-0.09,-0.93,0.06,-0.51,-0.17,
0.85,1.32,-0.09,-0.93,0.06,-0.51,-0.17,
0.851,1.38,-0.16,-1.23,0.06,-0.51,-0.17,
0.851,1.38,-0.16,-1.23,0.06,-0.51,-0.17,
0.858,1.38,-0.16,-1.23,0.11,-0.74,-0.19,
0.86,1.38,-0.16,-1.23,0.11,-0.74,-0.19,
0.861,1.39,-0.24,-1.65,0.11,-0.74,-0.19,
0.862,1.39,-0.24,-1.65,0.11,-0.74,-0.19,
0.868,1.39,-0.24,-1.65,0.16,-0.98,-0.22,
0.869,1.39,-0.24,-1.65,0.16,-0.98,-0.22,
0.869,1.31,-0.38,-1.99,0.16,-0.98,-0.22,
0.87,1.31,-0.38,-1.99,0.16,-0.98,-0.22,
0.877,1.31,-0.38,-1.99,0.20,-1.19,-0.25,
0.879,1.31,-0.38,-1.99,0.20,-1.19,-0.25,
0.879,1.20,-0.56,-2.09,0.20,-1.19,-0.25,
0.879,1.20,-0.56,-2.09,0.20,-1.19,-0.25,
0.887,1.20,-0.56,-2.09,0.21,-1.34,-0.19,
0.888,1.20,-0.56,-2.09,0.21,-1.34,-0.19,
0.888,1.11,-0.83,-1.86,0.21,-1.34,-0.19,
0.889,1.11,-0.83,-1.86,0.21,-1.34,-0.19,
0.896,1.11,-0.83,-1.86,0.18,-1.44,-0.17,
0.897,1.11,-0.83,-1.86,0.18,-1.44,-0.17,
0.897,1.08,-1.16,-1.40,0.18,-1.44,-0.17,
0.898,1.08,-1.16,-1.40,0.18,-1.44,-0.17,
0.906,1.08,-1.16,-1.40,0.08,-1.46,-0.26,
0.907,1.08,-1.16,-1.40,0.08,-1.46,-0.26,
0.907,1.14,-1.47,-1.01,0.08,-1.46,-0.26,
0.908,1.14,-1.47,-1.01,0.08,-1.46,-0.26,
0.915,1.14,-1.47,-1.01,-0.12,-1.40,-0.32,
0.916,1.14,-1.47,-1.01,-0.12,-1.40,-0.32,
0.917,1.33,-1.80,-0.90,-0.12,-1.40,-0.32,
0.918,1.33,-1.80,-0.90,-0.12,-1.40,-0.32,
0.928,1.33,-1.80,-0.90,-0.43,-1.31,-0.38,
0.93,1.33,-1.80,-0.90,-0.43,-1.31,-0.38,
0.932,1.68,-2.26,-1.19,-0.43,-1.31,-0.38,
0.932,1.68,-2.26,-1.19,-0.43,-1.31,-0.38,
0.934,1.68,-2.26,-1.19,-0.82,-1.25,-0.46,
0.935,1.68,-2.26,-1.19,-0.82,-1.25,-0.46,
0.935,2.00,-2.74,-3.11,-0.82,-1.25,-0.46,
0.935,2.00,-2.74,-3.11,-0.82,-1.25,-0.46,
0.944,2.00,-2.74,-3.11,-1.24,-1.31,-0.60,
0.945,2.00,-2.74,-3.11,-1.24,-1.31,-0.60,
0.945,2.16,-3.11,-3.55,-1.24,-1.31,-0.60,
0.946,2.16,-3.11,-3.55,-1.24,-1.31,-0.60,
0.953,2.16,-3.11,-3.55,-1.65,-1.54,-0.79,
0.954,2.16,-3.11,-3.55,-1.65,-1.54,-0.79,
0.954,2.03,-3.22,-5.30,-1.65,-1.54,-0.79,
0.954,2.03,-3.22,-5.30,-1.65,-1.54,-0.79,
0.964,2.03,-3.22,-5.30,-1.99,-1.93,-0.97,
0.965,2.03,-3.22,-5.30,-1.99,-1.93,-0.97,
0.965,1.45,-2.96,-5.83,-1.99,-1.93,-0.97,
0.966,1.45,-2.96,-5.83,-1.99,-1.93,-0.97,
0.972,1.45,-2.96,-5.83,-1.80,-2.42,-0.91,
0.974,1.45,-2.96,-5.83,-1.80,-2.42,-0.91,
0.974,-0.01,-2.43,-6.15,-1.80,-2.42,-0.91,
0.975,-0.01,-2.43,-6.15,-1.80,-2.42,-0.91,
0.982,-0.01,-2.43,-6.15,-1.50,-2.82,-0.61,
0.983,-0.01,-2.43,-6.15,-1.50,-2.82,-0.61,
0.984,-0.22,-1.86,-5.88,-1.50,-2.82,-0.61,
0.984,-0.22,-1.86,-5.88,-1.50,-2.82,-0.61,
0.992,-0.22,-1.86,-5.88,-1.38,-2.93,-0.48,
0.993,-0.22,-1.86,-5.88,-1.38,-2.93,-0.48,
0.993,-0.08,-1.41,-4.12,-1.38,-2.93,-0.48,
0.994,-0.08,-1.41,-4.12,-1.38,-2.93,-0.48,
1.001,-0.08,-1.41,-4.12,-0.86,-2.61,-0.37,
1.002,-0.08,-1.41,-4.12,-0.86,-2.61,-0.37,
1.002,1.85,-1.19,-1.39,-0.86,-2.61,-0.37,
1.003,1.85,-1.19,-1.39,-0.86,-2.61,-0.37,
1.011,1.85,-1.19,-1.39,-0.86,-2.61,-0.37,
1.012,1.85,-1.19,-1.39,-0.86,-2.61,-0.37,
1.012,1.85,-1.19,-1.39,-0.86,-2.61,-0.37,
1.013,1.85,-1.19,-1.39,-0.86,-2.61,-0.37,
1.023,1.85,-1.19,-1.39,-0.10,-1.91,-0.05,
1.024,1.85,-1.19,-1.39,-0.10,-1.91,-0.05,
1.024,4.01,-1.60,-0.34,-0.10,-1.91,-0.05,
1.025,4.01,-1.60,-0.34,-0.10,-1.91,-0.05,
1.029,4.01,-1.60,-0.34,0.43,-1.25,0.28,
1.03,4.01,-1.60,-0.34,0.43,-1.25,0.28,
1.03,4.09,-2.16,-0.07,0.43,-1.25,0.28,
1.031,4.09,-2.16,-0.07,0.43,-1.25,0.28,
1.039,4.09,-2.16,-0.07,0.40,-1.02,0.44,
1.04,4.09,-2.16,-0.07,0.40,-1.02,0.44,
1.041,3.65,-3.67,-0.28,0.40,-1.02,0.44,
1.041,3.65,-3.67,-0.28,0.40,-1.02,0.44,
1.049,3.65,-3.67,-0.28,-0.10,-1.17,0.45,
1.049,3.65,-3.67,-0.28,-0.10,-1.17,0.45,
1.05,1.77,-4.14,-0.35,-0.10,-1.17,0.45,
1.051,1.77,-4.14,-0.35,-0.10,-1.17,0.45,
1.058,1.77,-4.14,-0.35,-0.79,-1.33,0.48,
1.059,1.77,-4.14,-0.35,-0.79,-1.33,0.48,
1.059,0.08,-4.71,-0.44,-0.79,-1.33,0.48,
1.06,0.08,-4.71,-0.44,-0.79,-1.33,0.48,
1.067,0.08,-4.71,-0.44,-1.44,-1.12,0.65,
1.068,0.08,-4.71,-0.44,-1.44,-1.12,0.65,
1.069,-0.58,-5.21,-0.69,-1.44,-1.12,0.65,
1.069,-0.58,-5.21,-0.69,-1.44,-1.12,0.65,
1.077,-0.58,-5.21,-0.69,-1.97,-0.49,0.98,
1.078,-0.58,-5.21,-0.69,-1.97,-0.49,0.98,
1.079,-1.15,-5.54,-1.14,-1.97,-0.49,0.98,
1.079,-1.15,-5.54,-1.14,-1.97,-0.49,0.98,
1.088,-1.15,-5.54,-1.14,-2.36,0.38,1.38,
1.09,-1.15,-5.54,-1.14,-2.36,0.38,1.38,
1.091,-1.58,-5.65,-1.77,-2.36,0.38,1.38,
1.092,-1.58,-5.65,-1.77,-2.36,0.38,1.38,
1.097,-1.58,-5.65,-1.77,-2.67,1.25,1.76,
1.097,-1.58,-5.65,-1.77,-2.67,1.25,1.76,
1.098,-2.05,-5.57,-3.34,-2.67,1.25,1.76,
1.098,-2.05,-5.57,-3.34,-2.67,1.25,1.76,
1.106,-2.05,-5.57,-3.34,-2.92,1.93,2.07,
1.107,-2.05,-5.57,-3.34,-2.92,1.93,2.07,
1.108,-2.66,-5.38,-3.85,-2.92,1.93,2.07,
1.109,-2.66,-5.38,-3.85,-2.92,1.93,2.07,
1.115,-2.66,-5.38,-3.85,-3.09,2.41,2.30,
1.116,-2.66,-5.38,-3.85,-3.09,2.41,2.30,
1.116,-3.33,-5.23,-4.51,-3.09,2.41,2.30,
1.117,-3.33,-5.23,-4.51,-3.09,2.41,2.30,
1.124,-3.33,-5.23,-4.51,-3.18,2.77,2.48,
1.125,-3.33,-5.23,-4.51,-3.18,2.77,2.48,
1.125,-3.76,-5.24,-5.12,-3.18,2.77,2.48,
1.126,-3.76,-5.24,-5.12,-3.18,2.77,2.48,
1.134,-3.76,-5.24,-5.12,-3.22,3.10,2.37,
1.135,-3.76,-5.24,-5.12,-3.22,3.10,2.37,
1.135,-3.74,-5.46,-5.51,-3.22,3.10,2.37,
1.135,-3.74,-5.46,-5.51,-3.22,3.10,2.37,
1.143,-3.74,-5.46,-5.51,-3.26,3.44,1.95,
1.145,-3.74,-5.46,-5.51,-3.26,3.44,1.95,
1.145,-1.98,-5.84,-5.45,-3.26,3.44,1.95,
1.145,-1.98,-5.84,-5.45,-3.26,3.44,1.95,
1.153,-1.98,-5.84,-5.45,-3.36,3.66,1.94,
1.154,-1.98,-5.84,-5.45,-3.36,3.66,1.94,
1.155,-1.53,-6.21,-4.98,-3.36,3.66,1.94,
1.155,-1.53,-6.21,-4.98,-3.36,3.66,1.94,
1.163,-1.53,-6.21,-4.98,-3.58,3.45,1.92,
1.163,-1.53,-6.21,-4.98,-3.58,3.45,1.92,
1.164,0.25,-6.48,-3.34,-3.58,3.45,1.92,
1.165,0.25,-6.48,-3.34,-3.58,3.45,1.92,
1.172,0.25,-6.48,-3.34,-3.87,2.57,1.91,
1.173,0.25,-6.48,-3.34,-3.87,2.57,1.91,
1.174,2.13,-6.55,-1.54,-3.87,2.57,1.91,
1.175,2.13,-6.55,-1.54,-3.87,2.57,1.91,
1.183,2.13,-6.55,-1.54,-3.98,1.00,2.27,
1.184,2.13,-6.55,-1.54,-3.98,1.00,2.27,
1.185,2.53,-6.46,-1.28,-3.98,1.00,2.27,
1.185,2.53,-6.46,-1.28,-3.98,1.00,2.27,
1.191,2.53,-6.46,-1.28,-3.70,-0.90,2.33,
1.193,2.53,-6.46,-1.28,-3.70,-0.90,2.33,
1.194,4.33,-6.31,-0.89,-3.70,-0.90,2.33,
1.195,4.33,-6.31,-0.89,-3.70,-0.90,2.33,
1.201,4.33,-6.31,-0.89,-3.03,-2.67,2.16,
1.201,4.33,-6.31,-0.89,-3.03,-2.67,2.16,
1.202,6.01,-6.12,-0.40,-3.03,-2.67,2.16,
1.202,6.01,-6.12,-0.40,-3.03,-2.67,2.16,
1.21,6.01,-6.12,-0.40,-3.03,-2.67,2.16,
1.211,6.01,-6.12,-0.40,-3.03,-2.67,2.16,
1.211,6.01,-6.12,-0.40,-3.03,-2.67,2.16,
1.212,6.01,-6.12,-0.40,-3.03,-2.67,2.16,
1.222,6.01,-6.12,-0.40,-2.18,-4.10,1.87,
1.222,6.01,-6.12,-0.40,-2.18,-4.10,1.87,
1.223,9.02,-5.78,1.58,-2.18,-4.10,1.87,
1.223,9.02,-5.78,1.58,-2.18,-4.10,1.87,
1.229,9.02,-5.78,1.58,-1.29,-5.21,1.56,
1.23,9.02,-5.78,1.58,-1.29,-5.21,1.56,
1.23,10.62,-5.34,2.11,-1.29,-5.21,1.56,
1.231,10.62,-5.34,2.11,-1.29,-5.21,1.56,
1.239,10.62,-5.34,2.11,-0.39,-6.05,1.22,
1.24,10.62,-5.34,2.11,-0.39,-6.05,1.22,
1.24,12.60,-4.76,2.54,-0.39,-6.05,1.22,
1.241,12.60,-4.76,2.54,-0.39,-6.05,1.22,
1.248,12.60,-4.76,2.54,0.51,-6.59,0.92,
1.249,12.60,-4.76,2.54,0.51,-6.59,0.92,
1.25,13.01,-4.19,2.60,0.51,-6.59,0.92,
1.251,13.01,-4.19,2.60,0.51,-6.59,0.92,
1.258,13.01,-4.19,2.60,1.33,-6.81,0.71,
1.26,13.01,-4.19,2.60,1.33,-6.81,0.71,
1.261,14.42,-3.75,2.32,1.33,-6.81,0.71,
1.262,14.42,-3.75,2.32,1.33,-6.81,0.71,
1.267,14.42,-3.75,2.32,2.06,-6.78,0.64,
1.268,14.42,-3.75,2.32,2.06,-6.78,0.64,
1.269,14.57,-3.48,1.70,2.06,-6.78,0.64,
1.269,14.57,-3.48,1.70,2.06,-6.78,0.64,
1.277,14.57,-3.48,1.70,2.67,-6.59,0.68,
1.278,14.57,-3.48,1.70,2.67,-6.59,0.68,
1.279,14.55,-3.28,-0.04,2.67,-6.59,0.68,
1.279,14.55,-3.28,-0.04,2.67,-6.59,0.68,
1.287,14.55,-3.28,-0.04,3.14,-6.32,0.79,
1.288,14.55,-3.28,-0.04,3.14,-6.32,0.79,
1.288,14.30,-2.99,-1.70,3.14,-6.32,0.79,
1.289,14.30,-2.99,-1.70,3.14,-6.32,0.79,
1.296,14.30,-2.99,-1.70,3.48,-6.05,0.95,
1.297,14.30,-2.99,-1.70,3.48,-6.05,0.95,
1.298,13.90,-2.61,-2.15,3.48,-6.05,0.95,
1.298,13.90,-2.61,-2.15,3.48,-6.05,0.95,
1.308,13.90,-2.61,-2.15,3.70,-5.84,1.11,
1.309,13.90,-2.61,-2.15,3.70,-5.84,1.11,
1.311,13.44,-2.19,-3.96,3.70,-5.84,1.11,
1.312,13.44,-2.19,-3.96,3.70,-5.84,1.11,
1.315,13.44,-2.19,-3.96,3.85,-5.68,1.25,
1.316,13.44,-2.19,-3.96,3.85,-5.68,1.25,
1.316,13.02,-1.86,-5.46,3.85,-5.68,1.25,
1.317,13.02,-1.86,-5.46,3.85,-5.68,1.25,
1.325,13.02,-1.86,-5.46,3.97,-5.57,1.37,
1.326,13.02,-1.86,-5.46,3.97,-5.57,1.37,
1.327,12.63,-1.69,-6.99,3.97,-5.57,1.37,
1.327,12.63,-1.69,-6.99,3.97,-5.57,1.37,
1.334,12.63,-1.69,-6.99,4.07,-5.52,1.45,
1.335,12.63,-1.69,-6.99,4.07,-5.52,1.45,
1.335,12.15,-1.71,-8.76,4.07,-5.52,1.45,
1.336,12.15,-1.71,-8.76,4.07,-5.52,1.45,
1.343,12.15,-1.71,-8.76,4.16,-5.58,1.51,
1.344,12.15,-1.71,-8.76,4.16,-5.58,1.51,
1.345,11.51,-2.00,-8.89,4.16,-5.58,1.51,
1.346,11.51,-2.00,-8.89,4.16,-5.58,1.51,
1.365,11.51,-2.00,-8.89,4.22,-5.73,1.54,
1.367,11.51,-2.00,-8.89,4.22,-5.73,1.54,
1.367,10.72,-3.56,-8.88,4.22,-5.73,1.54,
1.368,10.72,-3.56,-8.88,4.22,-5.73,1.54,
1.369,10.72,-3.56,-8.88,4.22,-5.73,1.54,
1.369,10.72,-3.56,-8.88,4.22,-5.73,1.54,
1.37,10.72,-3.56,-8.88,4.22,-5.73,1.54,
1.37,10.72,-3.56,-8.88,4.22,-5.73,1.54,
1.373,10.72,-3.56,-8.88,4.05,-5.90,1.70,
1.374,10.72,-3.56,-8.88,4.05,-5.90,1.70,
1.375,9.20,-3.83,-7.90,4.05,-5.90,1.70,
1.375,9.20,-3.83,-7.90,4.05,-5.90,1.70,
1.382,9.20,-3.83,-7.90,3.76,-5.73,1.88,
1.382,9.20,-3.83,-7.90,3.76,-5.73,1.88,
1.383,8.58,-3.77,-7.21,3.76,-5.73,1.88,
1.384,8.58,-3.77,-7.21,3.76,-5.73,1.88,
1.391,8.58,-3.77,-7.21,3.41,-5.40,2.09,
1.393,8.58,-3.77,-7.21,3.41,-5.40,2.09,
1.393,8.16,-3.47,-6.69,3.41,-5.40,2.09,
1.394,8.16,-3.47,-6.69,3.41,-5.40,2.09,
1.401,8.16,-3.47,-6.69,3.41,-5.40,2.09,
1.402,8.16,-3.47,-6.69,3.41,-5.40,2.09,
1.402,8.16,-3.47,-6.69,3.41,-5.40,2.09,
1.403,8.16,-3.47,-6.69,3.41,-5.40,2.09,
1.41,8.16,-3.47,-6.69,3.10,-4.96,2.23,
1.411,8.16,-3.47,-6.69,3.10,-4.96,2.23,
1.411,7.96,-2.64,-6.54,3.10,-4.96,2.23,
1.412,7.96,-2.64,-6.54,3.10,-4.96,2.23,
1.424,7.96,-2.64,-6.54,2.88,-4.47,2.26,
1.425,7.96,-2.64,-6.54,2.88,-4.47,2.26,
1.426,7.69,-2.18,-6.50,2.88,-4.47,2.26,
1.426,7.69,-2.18,-6.50,2.88,-4.47,2.26,
1.429,7.69,-2.18,-6.50,2.80,-4.01,2.17,
1.43,7.69,-2.18,-6.50,2.80,-4.01,2.17,
1.43,7.20,-1.79,-6.54,2.80,-4.01,2.17,
1.43,7.20,-1.79,-6.54,2.80,-4.01,2.17,
1.439,7.20,-1.79,-6.54,2.84,-3.62,1.98,
1.44,7.20,-1.79,-6.54,2.84,-3.62,1.98,
1.44,6.42,-1.49,-6.80,2.84,-3.62,1.98,
1.441,6.42,-1.49,-6.80,2.84,-3.62,1.98,
1.448,6.42,-1.49,-6.80,2.96,-3.33,1.72,
1.449,6.42,-1.49,-6.80,2.96,-3.33,1.72,
1.449,4.51,-1.27,-7.06,2.96,-3.33,1.72,
1.45,4.51,-1.27,-7.06,2.96,-3.33,1.72,
1.457,4.51,-1.27,-7.06,3.07,-3.13,1.45,
1.458,4.51,-1.27,-7.06,3.07,-3.13,1.45,
1.459,3.77,-1.14,-7.17,3.07,-3.13,1.45,
1.46,3.77,-1.14,-7.17,3.07,-3.13,1.45,
1.467,3.77,-1.14,-7.17,3.11,-3.01,1.21,
1.468,3.77,-1.14,-7.17,3.11,-3.01,1.21,
1.469,1.90,-1.04,-7.02,3.11,-3.01,1.21,
1.469,1.90,-1.04,-7.02,3.11,-3.01,1.21,
1.477,1.90,-1.04,-7.02,3.06,-2.94,1.04,
1.478,1.90,-1.04,-7.02,3.06,-2.94,1.04,
1.479,1.52,-0.94,-6.45,3.06,-2.94,1.04,
1.479,1.52,-0.94,-6.45,3.06,-2.94,1.04,
1.486,1.52,-0.94,-6.45,2.94,-2.88,0.94,
1.488,1.52,-0.94,-6.45,2.94,-2.88,0.94,
1.488,1.02,-0.80,-5.77,2.94,-2.88,0.94,
1.489,1.02,-0.80,-5.77,2.94,-2.88,0.94,
1.495,1.02,-0.80,-5.77,2.76,-2.77,0.90,
1.496,1.02,-0.80,-5.77,2.76,-2.77,0.90,
1.497,0.52,-0.63,-5.10,2.76,-2.77,0.90,
1.497,0.52,-0.63,-5.10,2.76,-2.77,0.90,
1.505,0.52,-0.63,-5.10,2.57,-2.58,0.87,
1.506,0.52,-0.63,-5.10,2.57,-2.58,0.87,
1.506,0.00,-0.52,-4.72,2.57,-2.58,0.87,
1.507,0.00,-0.52,-4.72,2.57,-2.58,0.87,
1.515,0.00,-0.52,-4.72,2.38,-2.31,0.83,
1.516,0.00,-0.52,-4.72,2.38,-2.31,0.83,
1.516,-0.50,-0.52,-4.53,2.38,-2.31,0.83,
1.517,-0.50,-0.52,-4.53,2.38,-2.31,0.83,
1.524,-0.50,-0.52,-4.53,2.19,-1.98,0.78,
1.527,-0.50,-0.52,-4.53,2.19,-1.98,0.78,
1.528,-0.75,-0.59,-4.34,2.19,-1.98,0.78,
1.529,-0.75,-0.59,-4.34,2.19,-1.98,0.78,
1.533,-0.75,-0.59,-4.34,1.99,-1.65,0.74,
1.534,-0.75,-0.59,-4.34,1.99,-1.65,0.74,
1.534,-0.74,-0.74,-4.08,1.99,-1.65,0.74,
1.535,-0.74,-0.74,-4.08,1.99,-1.65,0.74,
1.543,-0.74,-0.74,-4.08,1.80,-1.36,0.71,
1.544,-0.74,-0.74,-4.08,1.80,-1.36,0.71,
1.544,-0.54,-0.94,-3.60,1.80,-1.36,0.71,
1.545,-0.54,-0.94,-3.60,1.80,-1.36,0.71,
1.552,-0.54,-0.94,-3.60,1.60,-1.12,0.69,
1.553,-0.54,-0.94,-3.60,1.60,-1.12,0.69,
1.553,-0.28,-1.20,-3.01,1.60,-1.12,0.69,
1.553,-0.28,-1.20,-3.01,1.60,-1.12,0.69,
1.562,-0.28,-1.20,-3.01,1.42,-0.90,0.70,
1.563,-0.28,-1.20,-3.01,1.42,-0.90,0.70,
1.563,-0.16,-1.57,-2.49,1.42,-0.90,0.70,
1.563,-0.16,-1.57,-2.49,1.42,-0.90,0.70,
1.572,-0.16,-1.57,-2.49,1.27,-0.67,0.72,
1.573,-0.16,-1.57,-2.49,1.27,-0.67,0.72,
1.573,-0.26,-1.99,-2.18,1.27,-0.67,0.72,
1.574,-0.26,-1.99,-2.18,1.27,-0.67,0.72,
1.581,-0.26,-1.99,-2.18,1.14,-0.40,0.78,
1.583,-0.26,-1.99,-2.18,1.14,-0.40,0.78,
1.584,-0.65,-2.43,-2.14,1.14,-0.40,0.78,
1.585,-0.65,-2.43,-2.14,1.14,-0.40,0.78,
1.593,-0.65,-2.43,-2.14,1.01,-0.15,0.89,
1.594,-0.65,-2.43,-2.14,1.01,-0.15,0.89,
1.596,-0.95,-2.91,-3.64,1.01,-0.15,0.89,
1.597,-0.95,-2.91,-3.64,1.01,-0.15,0.89,
1.6,-0.95,-2.91,-3.64,1.01,-0.15,0.89,
1.601,-0.95,-2.91,-3.64,1.01,-0.15,0.89,
1.601,-0.95,-2.91,-3.64,1.01,-0.15,0.89,
1.601,-0.95,-2.91,-3.64,1.01,-0.15,0.89,
1.609,-0.95,-2.91,-3.64,0.87,0.00,1.07,
1.61,-0.95,-2.91,-3.64,0.87,0.00,1.07,
1.611,-1.33,-3.81,-3.33,0.87,0.00,1.07,
1.612,-1.33,-3.81,-3.33,0.87,0.00,1.07,
1.621,-1.33,-3.81,-3.33,0.66,-0.04,1.34,
1.622,-1.33,-3.81,-3.33,0.66,-0.04,1.34,
1.622,-1.37,-3.94,-2.76,0.66,-0.04,1.34,
1.623,-1.37,-3.94,-2.76,0.66,-0.04,1.34,
1.628,-1.37,-3.94,-2.76,0.39,-0.24,1.68,
1.629,-1.37,-3.94,-2.76,0.39,-0.24,1.68,
1.629,-1.48,-3.80,-1.94,0.39,-0.24,1.68,
1.63,-1.48,-3.80,-1.94,0.39,-0.24,1.68,
1.638,-1.48,-3.80,-1.94,0.11,-0.44,2.04,
1.64,-1.48,-3.80,-1.94,0.11,-0.44,2.04,
1.641,-1.75,-3.48,-1.42,0.11,-0.44,2.04,
1.642,-1.75,-3.48,-1.42,0.11,-0.44,2.04,
1.648,-1.75,-3.48,-1.42,-0.09,-0.47,2.30,
1.649,-1.75,-3.48,-1.42,-0.09,-0.47,2.30,
1.65,-1.83,-3.26,-1.38,-0.09,-0.47,2.30,
1.651,-1.83,-3.26,-1.38,-0.09,-0.47,2.30,
1.659,-1.83,-3.26,-1.38,-0.16,-0.34,2.41,
1.661,-1.83,-3.26,-1.38,-0.16,-0.34,2.41,
1.662,-1.73,-3.26,-1.39,-0.16,-0.34,2.41,
1.664,-1.73,-3.26,-1.39,-0.16,-0.34,2.41,
1.667,-1.73,-3.26,-1.39,-0.14,-0.18,2.37,
1.669,-1.73,-3.26,-1.39,-0.14,-0.18,2.37,
1.67,-1.57,-3.51,-1.16,-0.14,-0.18,2.37,
1.67,-1.57,-3.51,-1.16,-0.14,-0.18,2.37,
1.676,-1.57,-3.51,-1.16,-0.08,-0.05,2.23,
1.677,-1.57,-3.51,-1.16,-0.08,-0.05,2.23,
1.677,-1.42,-3.76,-0.73,-0.08,-0.05,2.23,
1.678,-1.42,-3.76,-0.73,-0.08,-0.05,2.23,
1.685,-1.42,-3.76,-0.73,-0.01,0.03,2.07,
1.686,-1.42,-3.76,-0.73,-0.01,0.03,2.07,
1.686,-1.42,-4.02,-0.28,-0.01,0.03,2.07,
1.687,-1.42,-4.02,-0.28,-0.01,0.03,2.07,
1.695,-1.42,-4.02,-0.28,0.04,0.11,1.93,
1.696,-1.42,-4.02,-0.28,0.04,0.11,1.93,
1.696,-1.64,-4.15,-0.07,0.04,0.11,1.93,
1.696,-1.64,-4.15,-0.07,0.04,0.11,1.93,
1.704,-1.64,-4.15,-0.07,0.09,0.23,1.83,
1.705,-1.64,-4.15,-0.07,0.09,0.23,1.83,
1.706,-1.95,-4.10,-0.11,0.09,0.23,1.83,
1.706,-1.95,-4.10,-0.11,0.09,0.23,1.83,
1.714,-1.95,-4.10,-0.11,0.12,0.39,1.78,
1.715,-1.95,-4.10,-0.11,0.12,0.39,1.78,
1.716,-2.30,-3.97,-0.28,0.12,0.39,1.78,
1.717,-2.30,-3.97,-0.28,0.12,0.39,1.78,
1.726,-2.30,-3.97,-0.28,0.10,0.53,1.77,
1.727,-2.30,-3.97,-0.28,0.10,0.53,1.77,
1.727,-2.74,-3.81,-0.44,0.10,0.53,1.77,
1.728,-2.74,-3.81,-0.44,0.10,0.53,1.77,
1.733,-2.74,-3.81,-0.44,0.02,0.62,1.77,
1.734,-4.60,-3.68,-0.45,0.02,0.62,1.77,
1.735,-4.60,-3.68,-0.45,0.02,0.62,1.77,
1.735,-4.60,-3.68,-0.45,0.02,0.62,1.77,
1.735,-4.60,-3.68,-0.45,0.02,0.62,1.77,
1.736,-4.60,-3.68,-0.45,0.02,0.62,1.77,
1.742,-4.60,-3.68,-0.45,-0.14,0.67,1.81,
1.743,-5.16,-3.69,-0.36,-0.14,0.67,1.81,
1.743,-5.16,-3.69,-0.36,-0.14,0.67,1.81,
1.744,-5.16,-3.69,-0.36,-0.14,0.67,1.81,
1.747,-5.16,-3.69,-0.36,-0.14,0.67,1.81,
1.748,-5.16,-3.69,-0.36,-0.14,0.67,1.81,
1.748,-5.16,-3.69,-0.36,-0.14,0.67,1.81,
1.749,-5.16,-3.69,-0.36,-0.14,0.67,1.81,
1.757,-5.16,-3.69,-0.36,-0.36,0.71,1.95,
1.758,-5.16,-3.69,-0.36,-0.36,0.71,1.95,
1.759,-7.03,-3.95,-0.09,-0.36,0.71,1.95,
1.759,-7.03,-3.95,-0.09,-0.36,0.71,1.95,
1.766,-7.03,-3.95,-0.09,-0.66,0.81,2.25,
1.767,-7.03,-3.95,-0.09,-0.66,0.81,2.25,
1.767,-7.38,-3.95,0.03,-0.66,0.81,2.25,
1.768,-7.38,-3.95,0.03,-0.66,0.81,2.25,
1.776,-7.38,-3.95,0.03,-1.01,1.05,2.77,
1.777,-7.38,-3.95,0.03,-1.01,1.05,2.77,
1.778,-7.36,-3.76,0.03,-1.01,1.05,2.77,
1.779,-7.36,-3.76,0.03,-1.01,1.05,2.77,
1.786,-7.36,-3.76,0.03,-1.38,1.43,3.42,
1.787,-7.36,-3.76,0.03,-1.38,1.43,3.42,
1.787,-6.91,-3.34,0.09,-1.38,1.43,3.42,
1.788,-6.91,-3.34,0.09,-1.38,1.43,3.42,
1.795,-6.91,-3.34,0.09,-1.69,1.86,4.03,
1.796,-6.91,-3.34,0.09,-1.69,1.86,4.03,
1.797,-4.79,-2.65,0.24,-1.69,1.86,4.03,
1.797,-4.79,-2.65,0.24,-1.69,1.86,4.03,
1.805,-4.79,-2.65,0.24,-1.79,2.13,4.33,
1.807,-4.79,-2.65,0.24,-1.79,2.13,4.33,
1.808,-2.60,-0.96,0.41,-1.79,2.13,4.33,
1.809,-2.60,-0.96,0.41,-1.79,2.13,4.33,
1.814,-2.60,-0.96,0.41,-1.56,1.97,4.03,
1.815,-2.60,-0.96,0.41,-1.56,1.97,4.03,
1.816,-0.41,-0.33,0.65,-1.56,1.97,4.03,
1.816,-0.41,-0.33,0.65,-1.56,1.97,4.03,
1.824,-0.41,-0.33,0.65,-1.11,1.25,2.96,
1.824,-0.41,-0.33,0.65,-1.11,1.25,2.96,
1.825,1.72,0.41,0.84,-1.11,1.25,2.96,
1.825,1.72,0.41,0.84,-1.11,1.25,2.96,
1.833,1.72,0.41,0.84,-0.30,0.16,1.21,
1.835,1.72,0.41,0.84,-0.30,0.16,1.21,
1.836,2.06,1.01,0.94,-0.30,0.16,1.21,
1.837,2.06,1.01,0.94,-0.30,0.16,1.21,
1.849,2.06,1.01,0.94,0.24,-0.44,-0.83,
1.85,2.06,1.01,0.94,0.24,-0.44,-0.83,
1.851,2.15,1.38,0.90,0.24,-0.44,-0.83,
1.851,2.15,1.38,0.90,0.24,-0.44,-0.83,
1.856,2.15,1.38,0.90,0.17,-0.45,-2.66,
1.857,2.15,1.38,0.90,0.17,-0.45,-2.66,
1.857,1.92,1.52,0.64,0.17,-0.45,-2.66,
1.857,1.92,1.52,0.64,0.17,-0.45,-2.66,
1.862,1.92,1.52,0.64,0.49,-0.60,-3.95,
1.862,1.92,1.52,0.64,0.49,-0.60,-3.95,
1.863,0.32,1.45,0.11,0.49,-0.60,-3.95,
1.863,0.32,1.45,0.11,0.49,-0.60,-3.95,
1.871,0.32,1.45,0.11,0.99,-0.80,-4.60,
1.872,0.32,1.45,0.11,0.99,-0.80,-4.60,
1.872,0.07,1.33,-1.35,0.99,-0.80,-4.60,
1.873,0.07,1.33,-1.35,0.99,-0.80,-4.60,
1.881,0.07,1.33,-1.35,1.14,-0.92,-4.69,
1.882,0.07,1.33,-1.35,1.14,-0.92,-4.69,
1.886,-0.44,1.25,-1.49,1.14,-0.92,-4.69,
1.887,-0.44,1.25,-1.49,1.14,-0.92,-4.69,
1.891,-0.44,1.25,-1.49,1.14,-0.92,-4.69,
1.892,-0.44,1.25,-1.49,1.14,-0.92,-4.69,
1.893,-0.44,1.25,-1.49,1.14,-0.92,-4.69,
1.893,-0.44,1.25,-1.49,1.14,-0.92,-4.69,
1.9,-0.44,1.25,-1.49,1.05,-1.12,-4.38,
1.9,-0.44,1.25,-1.49,1.05,-1.12,-4.38,
1.901,-2.23,0.70,0.50,1.05,-1.12,-4.38,
1.901,-2.23,0.70,0.50,1.05,-1.12,-4.38,
1.909,-2.23,0.70,0.50,0.82,-1.33,-3.79,
1.91,-2.23,0.70,0.50,0.82,-1.33,-3.79,
1.911,-2.51,0.30,0.58,0.82,-1.33,-3.79,
1.912,-2.51,0.30,0.58,0.82,-1.33,-3.79,
1.927,-2.51,0.30,0.58,0.56,-1.35,-2.99,
1.929,-2.51,0.30,0.58,0.56,-1.35,-2.99,
1.93,-2.66,-1.48,0.73,0.56,-1.35,-2.99,
1.931,-2.66,-1.48,0.73,0.56,-1.35,-2.99,
1.932,-2.66,-1.48,0.73,0.31,-1.05,-2.00,
1.932,-2.66,-1.48,0.73,0.31,-1.05,-2.00,
1.933,-2.71,-1.78,0.73,0.31,-1.05,-2.00,
1.934,-2.71,-1.78,0.73,0.31,-1.05,-2.00,
1.941,-2.71,-1.78,0.73,0.05,-0.53,-0.82,
1.943,-2.71,-1.78,0.73,0.05,-0.53,-0.82,
1.944,-2.90,-3.43,0.57,0.05,-0.53,-0.82,
1.945,-2.90,-3.43,0.57,0.05,-0.53,-0.82,
1.948,-2.90,-3.43,0.57,-0.24,0.04,0.45,
1.95,-2.90,-3.43,0.57,-0.24,0.04,0.45,
1.951,-2.95,-3.60,0.86,-0.24,0.04,0.45,
1.952,-2.95,-3.60,0.86,-0.24,0.04,0.45,
1.957,-2.95,-3.60,0.86,-0.57,0.57,1.68,
1.959,-2.95,-3.60,0.86,-0.57,0.57,1.68,
1.96,-2.66,-3.77,1.26,-0.57,0.57,1.68,
1.961,-2.66,-3.77,1.26,-0.57,0.57,1.68,
1.967,-2.66,-3.77,1.26,-0.86,1.03,2.72,
1.968,-2.66,-3.77,1.26,-0.86,1.03,2.72,
1.969,-2.10,-3.99,1.57,-0.86,1.03,2.72,
1.97,-2.10,-3.99,1.57,-0.86,1.03,2.72,
1.976,-2.10,-3.99,1.57,-1.02,1.43,3.44,
1.978,-2.10,-3.99,1.57,-1.02,1.43,3.44,
1.979,-0.51,-4.43,1.62,-1.02,1.43,3.44,
1.979,-0.51,-4.43,1.62,-1.02,1.43,3.44,
1.985,-0.51,-4.43,1.62,-1.00,1.68,3.77,
1.986,-0.51,-4.43,1.62,-1.00,1.68,3.77,
1.986,-0.30,-6.29,1.33,-1.00,1.68,3.77,
1.987,-0.30,-6.29,1.33,-1.00,1.68,3.77,
1.995,-0.30,-6.29,1.33,-0.87,1.76,3.75,
1.996,-0.30,-6.29,1.33,-0.87,1.76,3.75,
1.996,-0.50,-8.56,0.98,-0.87,1.76,3.75,
1.996,-0.50,-8.56,0.98,-0.87,1.76,3.75,
2.004,-0.50,-8.56,0.98,-0.78,1.73,3.59,
2.006,-0.50,-8.56,0.98,-0.78,1.73,3.59,
2.007,-0.99,-10.55,0.61,-0.78,1.73,3.59,
2.007,-0.99,-10.55,0.61,-0.78,1.73,3.59,
2.014,-0.99,-10.55,0.61,-0.83,1.67,3.51,
2.015,-0.99,-10.55,0.61,-0.83,1.67,3.51,
2.016,-1.39,-10.75,0.25,-0.83,1.67,3.51,
2.017,-1.39,-10.75,0.25,-0.83,1.67,3.51,
2.024,-1.39,-10.75,0.25,-1.04,1.65,3.59,
2.025,-1.39,-10.75,0.25,-1.04,1.65,3.59,
2.026,-1.75,-8.56,-0.21,-1.04,1.65,3.59,
2.027,-1.75,-8.56,-0.21,-1.04,1.65,3.59,
2.033,-1.75,-8.56,-0.21,-1.30,1.66,3.71,
2.033,-1.75,-8.56,-0.21,-1.30,1.66,3.71,
2.033,-1.81,-5.75,-0.62,-1.30,1.66,3.71,
2.034,-1.81,-5.75,-0.62,-1.30,1.66,3.71,
2.042,-1.81,-5.75,-0.62,-1.48,1.59,3.68,
2.044,-1.81,-5.75,-0.62,-1.48,1.59,3.68,
2.045,-1.70,-2.62,-0.91,-1.48,1.59,3.68,
2.045,-1.70,-2.62,-0.91,-1.48,1.59,3.68,
2.052,-1.70,-2.62,-0.91,-1.54,1.38,3.41,
2.054,-1.70,-2.62,-0.91,-1.54,1.38,3.41,
2.056,-1.54,-0.85,-0.96,-1.54,1.38,3.41,
2.057,-1.54,-0.85,-0.96,-1.54,1.38,3.41,
2.061,-1.54,-0.85,-0.96,-1.48,0.99,2.87,
2.062,-1.54,-0.85,-0.96,-1.48,0.99,2.87,
2.062,-1.19,-0.75,-0.59,-1.48,0.99,2.87,
2.062,-1.19,-0.75,-0.59,-1.48,0.99,2.87,
2.071,-1.19,-0.75,-0.59,-1.29,0.47,2.15,
2.072,-1.19,-0.75,-0.59,-1.29,0.47,2.15,
2.072,-1.03,-0.78,1.11,-1.29,0.47,2.15,
2.073,-1.03,-0.78,1.11,-1.29,0.47,2.15,
2.08,-1.03,-0.78,1.11,-1.29,0.47,2.15,
2.082,-1.03,-0.78,1.11,-1.29,0.47,2.15,
2.082,-1.03,-0.78,1.11,-1.29,0.47,2.15,
2.083,-1.03,-0.78,1.11,-1.29,0.47,2.15,
2.095,-1.03,-0.78,1.11,-0.99,-0.06,1.35,
2.096,-1.03,-0.78,1.11,-0.99,-0.06,1.35,
2.097,-1.27,-1.24,1.28,-0.99,-0.06,1.35,
2.098,-1.27,-1.24,1.28,-0.99,-0.06,1.35,
2.1,-1.27,-1.24,1.28,-0.56,-0.42,0.63,
2.101,-1.27,-1.24,1.28,-0.56,-0.42,0.63,
2.102,-1.58,-1.57,1.00,-0.56,-0.42,0.63,
2.103,-1.58,-1.57,1.00,-0.56,-0.42,0.63,
2.109,-1.58,-1.57,1.00,-0.08,-0.53,0.10,
2.111,-1.58,-1.57,1.00,-0.08,-0.53,0.10,
2.111,-1.94,-1.85,0.39,-0.08,-0.53,0.10,
2.112,-1.94,-1.85,0.39,-0.08,-0.53,0.10,
2.124,-1.94,-1.85,0.39,0.34,-0.47,-0.18,
2.124,-1.94,-1.85,0.39,0.34,-0.47,-0.18,
2.128,-1.99,-1.91,-1.05,0.34,-0.47,-0.18,
2.129,-1.99,-1.91,-1.05,0.34,-0.47,-0.18,
2.13,-1.99,-1.91,-1.05,0.54,-0.39,-0.23,
2.132,-1.99,-1.91,-1.05,0.54,-0.39,-0.23,
2.133,-1.99,-1.85,-1.11,0.54,-0.39,-0.23,
2.134,-1.99,-1.85,-1.11,0.54,-0.39,-0.23,
2.138,-1.99,-1.85,-1.11,0.50,-0.41,-0.13,
2.139,-1.99,-1.85,-1.11,0.50,-0.41,-0.13,
2.139,-1.89,-1.57,-1.03,0.50,-0.41,-0.13,
2.14,-1.89,-1.57,-1.03,0.50,-0.41,-0.13,
2.147,-1.89,-1.57,-1.03,0.39,-0.54,0.02,
2.148,-1.89,-1.57,-1.03,0.39,-0.54,0.02,
2.148,-1.71,-1.22,-0.89,0.39,-0.54,0.02,
2.148,-1.71,-1.22,-0.89,0.39,-0.54,0.02,
2.156,-1.71,-1.22,-0.89,0.38,-0.72,0.15,
2.158,-1.71,-1.22,-0.89,0.38,-0.72,0.15,
2.159,-1.80,-1.00,-0.70,0.38,-0.72,0.15,
2.16,-1.80,-1.00,-0.70,0.38,-0.72,0.15,
2.166,-1.80,-1.00,-0.70,0.30,-0.85,0.21,
2.167,-1.80,-1.00,-0.70,0.30,-0.85,0.21,
2.168,-1.86,-0.88,-0.60,0.30,-0.85,0.21,
2.168,-1.86,-0.88,-0.60,0.30,-0.85,0.21,
2.175,-1.86,-0.88,-0.60,0.16,-0.89,0.22,
2.176,-1.86,-0.88,-0.60,0.16,-0.89,0.22,
2.176,-1.93,-0.91,-0.62,0.16,-0.89,0.22,
2.177,-1.93,-0.91,-0.62,0.16,-0.89,0.22,
2.185,-1.93,-0.91,-0.62,0.09,-0.83,0.21,
2.186,-1.93,-0.91,-0.62,0.09,-0.83,0.21,
2.186,-1.91,-0.87,-0.73,0.09,-0.83,0.21,
2.187,-1.91,-0.87,-0.73,0.09,-0.83,0.21,
2.195,-1.91,-0.87,-0.73,0.04,-0.70,0.23,
2.196,-1.91,-0.87,-0.73,0.04,-0.70,0.23,
2.196,-2.17,-0.55,-1.14,0.04,-0.70,0.23,
2.196,-2.17,-0.55,-1.14,0.04,-0.70,0.23,
2.204,-2.17,-0.55,-1.14,-0.03,-0.55,0.27,
2.205,-2.17,-0.55,-1.14,-0.03,-0.55,0.27,
2.205,-3.73,2.69,-2.73,-0.03,-0.55,0.27,
2.205,-3.73,2.69,-2.73,-0.03,-0.55,0.27,
2.214,-3.73,2.69,-2.73,-0.13,-0.43,0.33,
2.214,-3.73,2.69,-2.73,-0.13,-0.43,0.33,
2.215,-4.07,5.16,-0.47,-0.13,-0.43,0.33,
2.215,-4.07,5.16,-0.47,-0.13,-0.43,0.33,
2.223,-4.07,5.16,-0.47,-0.21,-0.38,0.34,
2.224,-4.07,5.16,-0.47,-0.21,-0.38,0.34,
2.225,-5.75,7.67,1.21,-0.21,-0.38,0.34,
2.226,-5.75,7.67,1.21,-0.21,-0.38,0.34,
2.232,-5.75,7.67,1.21,-0.16,-0.33,0.25,
2.233,-5.75,7.67,1.21,-0.16,-0.33,0.25,
2.234,-5.68,8.07,3.36,-0.16,-0.33,0.25,
2.234,-5.68,8.07,3.36,-0.16,-0.33,0.25,
2.242,-5.68,8.07,3.36,0.22,-0.07,0.05,
2.243,-5.68,8.07,3.36,0.22,-0.07,0.05,
2.243,-5.35,6.69,3.86,0.22,-0.07,0.05,
2.244,-5.35,6.69,3.86,0.22,-0.07,0.05,
2.252,-5.35,6.69,3.86,1.16,-0.07,-0.22,
2.253,-5.35,6.69,3.86,1.16,-0.07,-0.22,
2.253,-5.20,4.49,2.29,1.16,-0.07,-0.22,
2.254,-5.20,4.49,2.29,1.16,-0.07,-0.22,
2.261,-5.20,4.49,2.29,2.61,0.52,-0.37,
2.262,-5.20,4.49,2.29,2.61,0.52,-0.37,
2.262,-5.08,1.60,0.61,2.61,0.52,-0.37,
2.262,-5.08,1.60,0.61,2.61,0.52,-0.37,
2.271,-5.08,1.60,0.61,3.85,1.87,-0.13,
2.272,-5.08,1.60,0.61,3.85,1.87,-0.13,
2.272,-5.03,1.13,0.25,3.85,1.87,-0.13,
2.272,-5.03,1.13,0.25,3.85,1.87,-0.13,
2.28,-5.03,1.13,0.25,3.85,1.87,-0.13,
2.281,-5.03,1.13,0.25,3.85,1.87,-0.13,
2.281,-5.03,1.13,0.25,3.85,1.87,-0.13,
2.281,-5.03,1.13,0.25,3.85,1.87,-0.13,
2.289,-5.03,1.13,0.25,3.94,2.51,0.68,
2.29,-5.03,1.13,0.25,3.94,2.51,0.68,
2.291,-4.61,-0.97,-0.52,3.94,2.51,0.68,
2.291,-4.61,-0.97,-0.52,3.94,2.51,0.68,
2.299,-4.61,-0.97,-0.52,2.73,2.45,1.78,
2.3,-4.61,-0.97,-0.52,2.73,2.45,1.78,
2.3,-4.59,-2.59,-0.63,2.73,2.45,1.78,
2.3,-4.59,-2.59,-0.63,2.73,2.45,1.78,
2.309,-4.59,-2.59,-0.63,0.96,2.02,2.74,
2.309,-4.59,-2.59,-0.63,0.96,2.02,2.74,
2.31,-4.59,-2.97,-0.81,0.96,2.02,2.74,
2.31,-4.59,-2.97,-0.81,0.96,2.02,2.74,
2.318,-4.59,-2.97,-0.81,-0.65,1.47,3.35,
2.319,-4.59,-2.97,-0.81,-0.65,1.47,3.35,
2.319,-4.73,-3.36,-0.84,-0.65,1.47,3.35,
2.32,-4.73,-3.36,-0.84,-0.65,1.47,3.35,
2.327,-4.73,-3.36,-0.84,-1.75,0.93,3.63,
2.328,-4.73,-3.36,-0.84,-1.75,0.93,3.63,
2.328,-4.87,-3.30,-0.65,-1.75,0.93,3.63,
2.329,-4.87,-3.30,-0.65,-1.75,0.93,3.63,
2.338,-4.87,-3.30,-0.65,-2.32,0.43,3.66,
2.339,-4.87,-3.30,-0.65,-2.32,0.43,3.66,
2.339,-4.80,-2.91,-0.33,-2.32,0.43,3.66,
2.339,-4.80,-2.91,-0.33,-2.32,0.43,3.66,
2.347,-4.80,-2.91,-0.33,-2.14,0.00,3.54,
2.347,-4.80,-2.91,-0.33,-2.14,0.00,3.54,
2.348,-4.70,-2.41,-0.17,-2.14,0.00,3.54,
2.348,-4.70,-2.41,-0.17,-2.14,0.00,3.54,
2.369,-4.70,-2.41,-0.17,-1.76,-0.37,3.32,
2.37,-4.70,-2.41,-0.17,-1.76,-0.37,3.32,
2.374,-4.77,-0.60,-0.25,-1.76,-0.37,3.32,
2.374,-4.77,-0.60,-0.25,-1.76,-0.37,3.32,
2.374,-4.77,-0.60,-0.25,-1.76,-0.37,3.32,
2.375,-4.77,-0.60,-0.25,-1.76,-0.37,3.32,
2.375,-4.77,-0.60,-0.25,-1.76,-0.37,3.32,
2.375,-4.77,-0.60,-0.25,-1.76,-0.37,3.32,
2.375,-4.77,-0.60,-0.25,-1.38,-1.08,2.71,
2.376,-4.77,-0.60,-0.25,-1.38,-1.08,2.71,
2.376,-4.83,0.51,-0.73,-1.38,-1.08,2.71,
2.376,-4.83,0.51,-0.73,-1.38,-1.08,2.71,
2.385,-4.83,0.51,-0.73,-1.19,-1.47,2.42,
2.386,-4.83,0.51,-0.73,-1.19,-1.47,2.42,
2.386,-4.86,2.32,-0.74,-1.19,-1.47,2.42,
2.386,-4.86,2.32,-0.74,-1.19,-1.47,2.42,
2.394,-4.86,2.32,-0.74,-1.07,-1.83,2.16,
2.395,-4.86,2.32,-0.74,-1.07,-1.83,2.16,
2.395,-4.67,2.47,-0.60,-1.07,-1.83,2.16,
2.396,-4.67,2.47,-0.60,-1.07,-1.83,2.16,
2.404,-4.67,2.47,-0.60,-1.00,-2.11,1.95,
2.405,-4.67,2.47,-0.60,-1.00,-2.11,1.95,
2.405,-4.36,2.68,-0.39,-1.00,-2.11,1.95,
2.405,-4.36,2.68,-0.39,-1.00,-2.11,1.95,
2.413,-4.36,2.68,-0.39,-0.92,-2.34,1.74,
2.414,-4.36,2.68,-0.39,-0.92,-2.34,1.74,
2.415,-3.81,3.08,-0.12,-0.92,-2.34,1.74,
2.416,-3.81,3.08,-0.12,-0.92,-2.34,1.74,
2.423,-3.81,3.08,-0.12,-0.80,-2.57,1.51,
2.424,-3.81,3.08,-0.12,-0.80,-2.57,1.51,
2.425,-3.39,3.02,0.18,-0.80,-2.57,1.51,
2.425,-3.39,3.02,0.18,-0.80,-2.57,1.51,
2.432,-3.39,3.02,0.18,-0.60,-2.83,1.23,
2.433,-3.39,3.02,0.18,-0.60,-2.83,1.23,
2.434,-6.40,-5.24,1.89,-0.60,-2.83,1.23,
2.434,-6.40,-5.24,1.89,-0.60,-2.83,1.23,
2.442,-6.40,-5.24,1.89,-0.28,-2.95,1.06,
2.443,-6.40,-5.24,1.89,-0.28,-2.95,1.06,
2.443,-8.66,-13.82,3.33,-0.28,-2.95,1.06,
2.443,-8.66,-13.82,3.33,-0.28,-2.95,1.06,
2.455,-8.66,-13.82,3.33,0.22,-2.68,1.35,
2.456,-8.66,-13.82,3.33,0.22,-2.68,1.35,
2.457,-8.33,-18.27,3.21,0.22,-2.68,1.35,
2.457,-8.33,-18.27,3.21,0.22,-2.68,1.35,
2.461,-8.33,-18.27,3.21,0.76,-2.11,2.06,
2.462,-8.33,-18.27,3.21,0.76,-2.11,2.06,
2.462,-3.52,-18.31,1.55,0.76,-2.11,2.06,
2.462,-3.52,-18.31,1.55,0.76,-2.11,2.06,
2.471,-3.52,-18.31,1.55,0.76,-2.11,2.06,
2.473,-3.52,-18.31,1.55,0.76,-2.11,2.06,
2.474,-3.52,-18.31,1.55,0.76,-2.11,2.06,
2.475,-3.52,-18.31,1.55,0.76,-2.11,2.06,
2.48,-3.52,-18.31,1.55,1.05,-1.78,2.57,
2.48,-3.52,-18.31,1.55,1.05,-1.78,2.57,
2.48,2.12,-4.18,0.83,1.05,-1.78,2.57,
2.481,2.12,-4.18,0.83,1.05,-1.78,2.57,
2.489,2.12,-4.18,0.83,0.98,-2.01,2.43,
2.49,2.12,-4.18,0.83,0.98,-2.01,2.43,
2.49,0.20,-2.26,1.11,0.98,-2.01,2.43,
2.491,0.20,-2.26,1.11,0.98,-2.01,2.43,
2.499,0.20,-2.26,1.11,0.74,-2.61,1.73,
2.499,0.20,-2.26,1.11,0.74,-2.61,1.73,
2.499,-3.60,-1.87,2.99,0.74,-2.61,1.73,
2.5,-3.60,-1.87,2.99,0.74,-2.61,1.73,
2.508,-3.60,-1.87,2.99,0.58,-3.14,0.87,
2.509,-3.60,-1.87,2.99,0.58,-3.14,0.87,
2.509,-4.08,-1.81,3.09,0.58,-3.14,0.87,
2.51,-4.08,-1.81,3.09,0.58,-3.14,0.87,
2.518,-4.08,-1.81,3.09,0.63,-3.30,0.23,
2.518,-4.08,-1.81,3.09,0.63,-3.30,0.23,
2.518,-4.21,-1.73,1.46,0.63,-3.30,0.23,
2.519,-4.21,-1.73,1.46,0.63,-3.30,0.23,
2.527,-4.21,-1.73,1.46,0.81,-3.05,0.05,
2.528,-4.21,-1.73,1.46,0.81,-3.05,0.05,
2.528,-4.37,-1.38,-0.09,0.81,-3.05,0.05,
2.528,-4.37,-1.38,-0.09,0.81,-3.05,0.05,
2.537,-4.37,-1.38,-0.09,0.92,-2.57,0.23,
2.538,-4.37,-1.38,-0.09,0.92,-2.57,0.23,
2.538,-4.59,-0.77,-0.47,0.92,-2.57,0.23,
2.539,-4.59,-0.77,-0.47,0.92,-2.57,0.23,
2.546,-4.59,-0.77,-0.47,0.78,-2.12,0.54,
2.547,-4.59,-0.77,-0.47,0.78,-2.12,0.54,
2.547,-4.55,0.78,-0.74,0.78,-2.12,0.54,
2.547,-4.55,0.78,-0.74,0.78,-2.12,0.54,
2.556,-4.55,0.78,-0.74,0.39,-1.75,0.85,
2.557,-4.55,0.78,-0.74,0.39,-1.75,0.85,
2.557,-4.24,1.15,-0.54,0.39,-1.75,0.85,
2.558,-4.24,1.15,-0.54,0.39,-1.75,0.85,
2.565,-4.24,1.15,-0.54,-0.06,-1.45,1.13,
2.566,-4.24,1.15,-0.54,-0.06,-1.45,1.13,
2.566,-3.74,1.60,1.47,-0.06,-1.45,1.13,
2.566,-3.74,1.60,1.47,-0.06,-1.45,1.13,
2.575,-3.74,1.60,1.47,-0.39,-1.17,1.35,
2.576,-3.74,1.60,1.47,-0.39,-1.17,1.35,
2.576,-3.24,1.97,2.01,-0.39,-1.17,1.35,
2.576,-3.24,1.97,2.01,-0.39,-1.17,1.35,
2.585,-3.24,1.97,2.01,-0.43,-0.89,1.48,
2.585,-3.24,1.97,2.01,-0.43,-0.89,1.48,
2.585,-2.90,1.91,3.38,-0.43,-0.89,1.48,
2.586,-2.90,1.91,3.38,-0.43,-0.89,1.48,
2.594,-2.90,1.91,3.38,-0.12,-0.59,1.48,
2.595,-2.90,1.91,3.38,-0.12,-0.59,1.48,
2.598,-2.74,1.52,3.20,-0.12,-0.59,1.48,
2.599,-2.74,1.52,3.20,-0.12,-0.59,1.48,
2.605,-2.74,1.52,3.20,0.48,-0.27,1.36,
2.605,-2.74,1.52,3.20,0.48,-0.27,1.36,
2.606,-2.66,-0.16,1.59,0.48,-0.27,1.36,
2.607,-2.66,-0.16,1.59,0.48,-0.27,1.36,
2.613,-2.66,-0.16,1.59,1.10,0.02,1.17,
2.613,-2.66,-0.16,1.59,1.10,0.02,1.17,
2.614,-2.50,-0.39,1.16,1.10,0.02,1.17,
2.614,-2.50,-0.39,1.16,1.10,0.02,1.17,
2.624,-2.50,-0.39,1.16,1.42,0.18,0.96,
2.624,-2.50,-0.39,1.16,1.42,0.18,0.96,
2.625,-2.27,-0.53,0.57,1.42,0.18,0.96,
2.625,-2.27,-0.53,0.57,1.42,0.18,0.96,
2.632,-2.27,-0.53,0.57,1.30,0.18,0.79,
2.632,-2.27,-0.53,0.57,1.30,0.18,0.79,
2.633,-1.99,-0.55,0.13,1.30,0.18,0.79,
2.633,-1.99,-0.55,0.13,1.30,0.18,0.79,
2.651,-1.99,-0.55,0.13,0.31,-0.13,0.55,
2.652,-1.99,-0.55,0.13,0.31,-0.13,0.55,
2.653,-1.99,-0.55,0.13,0.31,-0.13,0.55,
2.653,-1.99,-0.55,0.13,0.31,-0.13,0.55,
2.653,-1.65,-0.42,-0.09,0.31,-0.13,0.55,
2.654,-1.65,-0.42,-0.09,0.31,-0.13,0.55,
2.654,-1.65,-0.42,-0.09,0.31,-0.13,0.55,
2.654,-1.65,-0.42,-0.09,0.31,-0.13,0.55,
2.662,-1.65,-0.42,-0.09,-0.18,-0.30,0.46,
2.662,-1.65,-0.42,-0.09,-0.18,-0.30,0.46,
2.663,-1.55,-0.10,0.02,-0.18,-0.30,0.46,
2.663,-1.55,-0.10,0.02,-0.18,-0.30,0.46,
2.671,-1.55,-0.10,0.02,-0.18,-0.30,0.46,
2.674,-1.55,-0.10,0.02,-0.18,-0.30,0.46,
2.675,-1.55,-0.10,0.02,-0.18,-0.30,0.46,
2.676,-1.55,-0.10,0.02,-0.18,-0.30,0.46,
2.68,-1.55,-0.10,0.02,-0.57,-0.44,0.38,
2.681,-1.55,-0.10,0.02,-0.57,-0.44,0.38,
2.681,-1.41,0.16,0.57,-0.57,-0.44,0.38,
2.681,-1.41,0.16,0.57,-0.57,-0.44,0.38,
2.69,-1.41,0.16,0.57,-0.79,-0.52,0.30,
2.691,-1.41,0.16,0.57,-0.79,-0.52,0.30,
2.692,-1.38,0.32,0.92,-0.79,-0.52,0.30,
2.692,-1.38,0.32,0.92,-0.79,-0.52,0.30,
2.699,-1.38,0.32,0.92,-0.82,-0.51,0.25,
2.699,-1.38,0.32,0.92,-0.82,-0.51,0.25,
2.7,-1.37,0.43,1.19,-0.82,-0.51,0.25,
2.7,-1.37,0.43,1.19,-0.82,-0.51,0.25,
2.716,-1.37,0.43,1.19,-0.39,-0.28,0.18,
2.716,-1.37,0.43,1.19,-0.39,-0.28,0.18,
2.716,-1.29,0.53,1.31,-0.39,-0.28,0.18,
2.717,-1.29,0.53,1.31,-0.39,-0.28,0.18,
2.721,-1.29,0.53,1.31,-0.39,-0.28,0.18,
2.722,-1.29,0.53,1.31,-0.39,-0.28,0.18,
2.723,-1.29,0.53,1.31,-0.39,-0.28,0.18,
2.723,-1.29,0.53,1.31,-0.39,-0.28,0.18,
2.727,-1.29,0.53,1.31,-0.07,-0.12,0.17,
2.728,-1.29,0.53,1.31,-0.07,-0.12,0.17,
2.728,-1.16,0.51,1.23,-0.07,-0.12,0.17,
2.729,-1.16,0.51,1.23,-0.07,-0.12,0.17,
2.737,-1.16,0.51,1.23,0.22,0.02,0.16,
2.738,-1.16,0.51,1.23,0.22,0.02,0.16,
2.739,-1.06,0.40,1.06,0.22,0.02,0.16,
2.739,-1.06,0.40,1.06,0.22,0.02,0.16,
2.746,-1.06,0.40,1.06,0.43,0.12,0.15,
2.747,-1.06,0.40,1.06,0.43,0.12,0.15,
2.747,-0.98,0.35,0.94,0.43,0.12,0.15,
2.747,-0.98,0.35,0.94,0.43,0.12,0.15,
2.756,-0.98,0.35,0.94,0.53,0.17,0.14,
2.758,-0.98,0.35,0.94,0.53,0.17,0.14,
2.759,-0.96,0.34,0.91,0.53,0.17,0.14,
2.76,-0.96,0.34,0.91,0.53,0.17,0.14,
2.765,-0.96,0.34,0.91,0.56,0.17,0.11,
2.766,-0.96,0.34,0.91,0.56,0.17,0.11,
2.767,-1.00,0.35,0.92,0.56,0.17,0.11,
2.768,-1.00,0.35,0.92,0.56,0.17,0.11,
2.777,-1.00,0.35,0.92,0.53,0.14,0.10,
2.779,-1.00,0.35,0.92,0.53,0.14,0.10,
2.78,-1.02,0.41,1.04,0.53,0.14,0.10,
2.781,-1.02,0.41,1.04,0.53,0.14,0.10,
2.785,-1.02,0.41,1.04,0.50,0.12,0.10,
2.786,-1.02,0.41,1.04,0.50,0.12,0.10,
2.786,-1.09,0.40,1.15,0.50,0.12,0.10,
2.787,-1.09,0.40,1.15,0.50,0.12,0.10,
2.794,-1.09,0.40,1.15,0.48,0.12,0.12,
2.795,-1.09,0.40,1.15,0.48,0.12,0.12,
2.795,-1.13,0.34,1.24,0.48,0.12,0.12,
2.795,-1.13,0.34,1.24,0.48,0.12,0.12,
2.805,-1.13,0.34,1.24,0.50,0.17,0.16,
2.806,-1.13,0.34,1.24,0.50,0.17,0.16,
2.807,-1.13,0.31,1.27,0.50,0.17,0.16,
2.807,-1.13,0.31,1.27,0.50,0.17,0.16,
2.814,-1.13,0.31,1.27,0.56,0.23,0.21,
2.814,-1.13,0.31,1.27,0.56,0.23,0.21,
2.815,-1.09,0.32,1.26,0.56,0.23,0.21,
2.815,-1.09,0.32,1.26,0.56,0.23,0.21,
2.825,-1.09,0.32,1.26,0.61,0.29,0.26,
2.826,-1.09,0.32,1.26,0.61,0.29,0.26,
2.826,-1.01,0.33,1.17,0.61,0.29,0.26,
2.826,-1.01,0.33,1.17,0.61,0.29,0.26,
2.833,-1.01,0.33,1.17,0.65,0.33,0.30,
2.834,-1.01,0.33,1.17,0.65,0.33,0.30,
2.837,-0.91,0.35,1.04,0.65,0.33,0.30,
2.837,-0.91,0.35,1.04,0.65,0.33,0.30,
2.851,-0.91,0.35,1.04,0.66,0.36,0.32,
2.851,-0.91,0.35,1.04,0.66,0.36,0.32,
2.852,-0.78,0.34,0.93,0.66,0.36,0.32,
2.852,-0.78,0.34,0.93,0.66,0.36,0.32,
2.852,-0.78,0.34,0.93,0.64,0.36,0.33,
2.853,-0.78,0.34,0.93,0.64,0.36,0.33,
2.853,-0.67,0.33,0.82,0.64,0.36,0.33,
2.853,-0.67,0.33,0.82,0.64,0.36,0.33,
2.861,-0.67,0.33,0.82,0.57,0.32,0.31,
2.861,-0.67,0.33,0.82,0.57,0.32,0.31,
2.861,-0.57,0.35,0.72,0.57,0.32,0.31,
2.862,-0.57,0.35,0.72,0.57,0.32,0.31,
2.872,-0.57,0.35,0.72,0.57,0.32,0.31,
2.874,-0.57,0.35,0.72,0.57,0.32,0.31,
2.875,-0.57,0.35,0.72,0.57,0.32,0.31,
2.876,-0.57,0.35,0.72,0.57,0.32,0.31,
2.881,-0.57,0.35,0.72,0.39,0.16,0.24,
2.882,-0.57,0.35,0.72,0.39,0.16,0.24,
2.883,-0.46,0.34,0.62,0.39,0.16,0.24,
2.884,-0.46,0.34,0.62,0.39,0.16,0.24,
2.889,-0.46,0.34,0.62,0.39,0.16,0.24,
2.89,-0.46,0.34,0.62,0.39,0.16,0.24,
2.891,-0.46,0.34,0.62,0.39,0.16,0.24,
2.892,-0.46,0.34,0.62,0.39,0.16,0.24,
2.899,-0.46,0.34,0.62,0.30,0.06,0.20,
2.9,-0.46,0.34,0.62,0.30,0.06,0.20,
2.901,-0.56,0.31,0.70,0.30,0.06,0.20,
2.902,-0.56,0.31,0.70,0.30,0.06,0.20,
2.91,-0.56,0.31,0.70,0.22,-0.04,0.18,
2.913,-0.56,0.31,0.70,0.22,-0.04,0.18,
2.913,-0.62,0.33,0.70,0.22,-0.04,0.18,
2.913,-0.62,0.33,0.70,0.22,-0.04,0.18,
2.918,-0.62,0.33,0.70,0.18,-0.12,0.17,
2.919,-0.62,0.33,0.70,0.18,-0.12,0.17,
2.919,-0.67,0.38,0.63,0.18,-0.12,0.17,
2.919,-0.67,0.38,0.63,0.18,-0.12,0.17,
2.927,-0.67,0.38,0.63,0.16,-0.16,0.19,
2.927,-0.67,0.38,0.63,0.16,-0.16,0.19,
2.928,-0.69,0.41,0.50,0.16,-0.16,0.19,
2.928,-0.69,0.41,0.50,0.16,-0.16,0.19,
2.937,-0.69,0.41,0.50,0.15,-0.16,0.23,
2.938,-0.69,0.41,0.50,0.15,-0.16,0.23,
2.939,-0.69,0.37,0.32,0.15,-0.16,0.23,
2.939,-0.69,0.37,0.32,0.15,-0.16,0.23,
2.947,-0.69,0.37,0.32,0.14,-0.13,0.27,
2.947,-0.69,0.37,0.32,0.14,-0.13,0.27,
2.948,-0.66,0.29,0.07,0.14,-0.13,0.27,
2.948,-0.66,0.29,0.07,0.14,-0.13,0.27,
2.956,-0.66,0.29,0.07,0.10,-0.11,0.31,
2.957,-0.66,0.29,0.07,0.10,-0.11,0.31,
2.957,-0.62,0.18,-0.17,0.10,-0.11,0.31,
2.958,-0.62,0.18,-0.17,0.10,-0.11,0.31,
2.965,-0.62,0.18,-0.17,0.01,-0.11,0.33,
2.965,-0.62,0.18,-0.17,0.01,-0.11,0.33,
2.966,-0.56,0.08,-0.36,0.01,-0.11,0.33,
2.966,-0.56,0.08,-0.36,0.01,-0.11,0.33,
2.974,-0.56,0.08,-0.36,-0.12,-0.13,0.34,
2.975,-0.56,0.08,-0.36,-0.12,-0.13,0.34,
2.976,-0.51,0.03,-0.49,-0.12,-0.13,0.34,
2.976,-0.51,0.03,-0.49,-0.12,-0.13,0.34,
2.984,-0.51,0.03,-0.49,-0.28,-0.17,0.32,
2.985,-0.51,0.03,-0.49,-0.28,-0.17,0.32,
2.985,-0.45,0.04,-0.53,-0.28,-0.17,0.32,
2.985,-0.45,0.04,-0.53,-0.28,-0.17,0.32,
2.993,-0.45,0.04,-0.53,-0.44,-0.22,0.29,
2.994,-0.45,0.04,-0.53,-0.44,-0.22,0.29,
2.994,-0.38,0.04,-0.53,-0.44,-0.22,0.29,
2.995,-0.38,0.04,-0.53,-0.44,-0.22,0.29,
3.004,-0.38,0.04,-0.53,-0.57,-0.27,0.25,
3.005,-0.38,0.04,-0.53,-0.57,-0.27,0.25,
3.005,-0.27,0.00,-0.52,-0.57,-0.27,0.25,
3.005,-0.27,0.00,-0.52,-0.57,-0.27,0.25,
3.013,-0.27,0.00,-0.52,-0.65,-0.31,0.20,
3.013,-0.27,0.00,-0.52,-0.65,-0.31,0.20,
3.013,-0.17,-0.06,-0.30,-0.65,-0.31,0.20,
3.014,-0.17,-0.06,-0.30,-0.65,-0.31,0.20,
3.023,-0.17,-0.06,-0.30,-0.67,-0.34,0.14,
3.023,-0.17,-0.06,-0.30,-0.67,-0.34,0.14,
3.024,-0.17,-0.12,0.15,-0.67,-0.34,0.14,
3.024,-0.17,-0.12,0.15,-0.67,-0.34,0.14,
3.032,-0.17,-0.12,0.15,-0.62,-0.35,0.07,
3.033,-0.17,-0.12,0.15,-0.62,-0.35,0.07,
3.033,-0.18,-0.24,0.42,-0.62,-0.35,0.07,
3.033,-0.18,-0.24,0.42,-0.62,-0.35,0.07,
3.041,-0.18,-0.24,0.42,-0.48,-0.33,-0.01,
3.042,-0.18,-0.24,0.42,-0.48,-0.33,-0.01,
3.042,-0.07,-0.32,0.18,-0.48,-0.33,-0.01,
3.042,-0.07,-0.32,0.18,-0.48,-0.33,-0.01,
3.057,-0.07,-0.32,0.18,-0.29,-0.27,-0.08,
3.058,-0.07,-0.32,0.18,-0.29,-0.27,-0.08,
3.058,0.12,-0.37,-1.98,-0.29,-0.27,-0.08,
3.058,0.12,-0.37,-1.98,-0.29,-0.27,-0.08,
3.06,0.12,-0.37,-1.98,-0.29,-0.27,-0.08,
3.061,0.12,-0.37,-1.98,-0.29,-0.27,-0.08,
3.061,0.12,-0.37,-1.98,-0.29,-0.27,-0.08,
3.061,0.12,-0.37,-1.98,-0.29,-0.27,-0.08,
3.078,0.12,-0.37,-1.98,-0.29,-0.27,-0.21,
3.079,0.12,-0.37,-1.98,-0.29,-0.27,-0.21,
3.082,0.79,-0.34,-2.74,-0.29,-0.27,-0.21,
3.083,0.79,-0.34,-2.74,-0.29,-0.27,-0.21,
3.088,0.79,-0.34,-2.74,-0.72,-0.46,-0.29,
3.094,0.79,-0.34,-2.74,-0.72,-0.46,-0.29,
3.095,0.99,-0.19,-2.47,-0.72,-0.46,-0.29,
3.096,0.99,-0.19,-2.47,-0.72,-0.46,-0.29,
3.096,0.99,-0.19,-2.47,-0.72,-0.46,-0.29,
3.097,0.99,-0.19,-2.47,-0.72,-0.46,-0.29,
3.097,0.99,-0.19,-2.47,-0.72,-0.46,-0.29,
3.098,0.99,-0.19,-2.47,-0.72,-0.46,-0.29,
3.099,0.99,-0.19,-2.47,-1.29,-0.78,-0.42,
3.099,0.99,-0.19,-2.47,-1.29,-0.78,-0.42,
3.1,0.92,0.06,-0.49,-1.29,-0.78,-0.42,
3.1,0.92,0.06,-0.49,-1.29,-0.78,-0.42,
3.108,0.92,0.06,-0.49,-1.67,-1.06,-0.56,
3.109,0.92,0.06,-0.49,-1.67,-1.06,-0.56,
3.109,0.69,0.14,-0.09,-1.67,-1.06,-0.56,
3.11,0.69,0.14,-0.09,-1.67,-1.06,-0.56,
3.118,0.69,0.14,-0.09,-1.63,-1.17,-0.66,
3.118,0.69,0.14,-0.09,-1.63,-1.17,-0.66,
3.119,0.38,0.13,0.08,-1.63,-1.17,-0.66,
3.119,0.38,0.13,0.08,-1.63,-1.17,-0.66,
3.128,0.38,0.13,0.08,-1.22,-1.06,-0.69,
3.129,0.38,0.13,0.08,-1.22,-1.06,-0.69,
3.129,0.11,0.09,0.06,-1.22,-1.06,-0.69,
3.129,0.11,0.09,0.06,-1.22,-1.06,-0.69,
3.14,0.11,0.09,0.06,-0.62,-0.80,-0.63,
3.14,0.11,0.09,0.06,-0.62,-0.80,-0.63,
3.141,-0.09,0.04,-0.14,-0.62,-0.80,-0.63,
3.141,-0.09,0.04,-0.14,-0.62,-0.80,-0.63,
3.145,-0.09,0.04,-0.14,-0.08,-0.49,-0.48,
3.146,-0.09,0.04,-0.14,-0.08,-0.49,-0.48,
3.146,-0.15,-0.01,-0.40,-0.08,-0.49,-0.48,
3.147,-0.15,-0.01,-0.40,-0.08,-0.49,-0.48,
3.155,-0.15,-0.01,-0.40,0.28,-0.23,-0.28,
3.159,-0.15,-0.01,-0.40,0.28,-0.23,-0.28,
3.16,-0.07,-0.04,-0.62,0.28,-0.23,-0.28,
3.16,-0.07,-0.04,-0.62,0.28,-0.23,-0.28,
3.164,-0.07,-0.04,-0.62,0.46,-0.06,-0.08,
3.165,-0.07,-0.04,-0.62,0.46,-0.06,-0.08,
3.165,0.02,-0.05,-0.72,0.46,-0.06,-0.08,
3.166,0.02,-0.05,-0.72,0.46,-0.06,-0.08,
3.177,0.02,-0.05,-0.72,0.48,0.04,0.08,
3.177,0.02,-0.05,-0.72,0.48,0.04,0.08,
3.178,0.08,-0.02,-0.70,0.48,0.04,0.08,
3.178,0.08,-0.02,-0.70,0.48,0.04,0.08,
3.188,0.08,-0.02,-0.70,0.40,0.07,0.18,
3.189,0.08,-0.02,-0.70,0.40,0.07,0.18,
3.19,0.08,-0.00,-0.60,0.40,0.07,0.18,
3.19,0.08,-0.00,-0.60,0.40,0.07,0.18,
3.199,0.08,-0.00,-0.60,0.30,0.06,0.24,
3.199,0.08,-0.00,-0.60,0.30,0.06,0.24,
3.2,-0.01,0.02,-0.39,0.30,0.06,0.24,
3.2,-0.01,0.02,-0.39,0.30,0.06,0.24,
3.206,-0.01,0.02,-0.39,0.22,0.04,0.26,
3.207,-0.01,0.02,-0.39,0.22,0.04,0.26,
3.207,-0.04,0.03,-0.19,0.22,0.04,0.26,
3.207,-0.04,0.03,-0.19,0.22,0.04,0.26,
3.213,-0.04,0.03,-0.19,0.19,0.03,0.26,
3.214,-0.04,0.03,-0.19,0.19,0.03,0.26,
3.214,-0.04,0.02,-0.04,0.19,0.03,0.26,
3.214,-0.04,0.02,-0.04,0.19,0.03,0.26,
3.229,-0.04,0.02,-0.04,0.22,0.04,0.27,
3.23,-0.04,0.02,-0.04,0.22,0.04,0.27,
3.231,0.05,0.06,0.09,0.22,0.04,0.27,
3.231,0.05,0.06,0.09,0.22,0.04,0.27,
3.232,0.05,0.06,0.09,0.29,0.08,0.27,
3.232,0.05,0.06,0.09,0.29,0.08,0.27,
3.232,0.05,0.10,0.22,0.29,0.08,0.27,
3.232,0.05,0.10,0.22,0.29,0.08,0.27,
3.241,0.05,0.10,0.22,0.40,0.13,0.26,
3.242,0.05,0.10,0.22,0.40,0.13,0.26,
3.242,0.00,0.17,0.37,0.40,0.13,0.26,
3.242,0.00,0.17,0.37,0.40,0.13,0.26,
3.251,0.00,0.17,0.37,0.40,0.13,0.26,
3.251,0.00,0.17,0.37,0.40,0.13,0.26,
3.252,0.00,0.17,0.37,0.40,0.13,0.26,
3.252,0.00,0.17,0.37,0.40,0.13,0.26,
3.26,0.00,0.17,0.37,0.50,0.19,0.23,
3.26,0.00,0.17,0.37,0.50,0.19,0.23,
3.261,-0.16,0.25,0.46,0.50,0.19,0.23,
3.262,-0.16,0.25,0.46,0.50,0.19,0.23,
3.272,-0.16,0.25,0.46,0.61,0.27,0.19,
3.273,-0.16,0.25,0.46,0.61,0.27,0.19,
3.275,-0.10,0.21,0.24,0.61,0.27,0.19,
3.276,-0.10,0.21,0.24,0.61,0.27,0.19,
3.287,-0.10,0.21,0.24,0.69,0.35,0.17,
3.289,-0.10,0.21,0.24,0.69,0.35,0.17,
3.291,0.03,0.16,-0.05,0.69,0.35,0.17,
3.293,0.03,0.16,-0.05,0.69,0.35,0.17,
3.294,0.03,0.16,-0.05,0.66,0.45,0.14,
3.295,0.03,0.16,-0.05,0.66,0.45,0.14,
3.297,0.15,0.11,-0.24,0.66,0.45,0.14,
3.298,0.15,0.11,-0.24,0.66,0.45,0.14,
3.299,0.15,0.11,-0.24,0.66,0.45,0.14,
3.299,0.15,0.11,-0.24,0.66,0.45,0.14,
3.3,0.15,0.11,-0.24,0.66,0.45,0.14,
3.3,0.15,0.11,-0.24,0.66,0.45,0.14,
3.308,0.15,0.11,-0.24,0.52,0.40,0.11,
3.309,0.15,0.11,-0.24,0.52,0.40,0.11,
3.315,0.23,0.06,-0.13,0.52,0.40,0.11,
3.315,0.23,0.06,-0.13,0.52,0.40,0.11,
3.318,0.23,0.06,-0.13,0.34,0.31,0.06,
3.319,0.23,0.06,-0.13,0.34,0.31,0.06,
3.319,0.17,0.01,0.05,0.34,0.31,0.06,
3.319,0.17,0.01,0.05,0.34,0.31,0.06,
3.327,0.17,0.01,0.05,0.19,0.21,0.01,
3.327,0.17,0.01,0.05,0.19,0.21,0.01,
3.328,0.11,-0.01,0.22,0.19,0.21,0.01,
3.328,0.11,-0.01,0.22,0.19,0.21,0.01,
3.341,0.11,-0.01,0.22,0.11,0.14,-0.03,
3.342,0.11,-0.01,0.22,0.11,0.14,-0.03,
3.342,0.04,0.00,0.31,0.11,0.14,-0.03,
3.342,0.04,0.00,0.31,0.11,0.14,-0.03,
3.346,0.04,0.00,0.31,0.10,0.10,-0.05,
3.347,0.04,0.00,0.31,0.10,0.10,-0.05,
3.347,-0.02,-0.02,0.34,0.10,0.10,-0.05,
3.347,-0.02,-0.02,0.34,0.10,0.10,-0.05,
3.367,-0.02,-0.02,0.34,0.14,0.09,-0.06,
3.368,-0.02,-0.02,0.34,0.14,0.09,-0.06,
3.369,0.00,-0.01,0.25,0.14,0.09,-0.06,
3.369,0.00,-0.01,0.25,0.14,0.09,-0.06,
3.369,0.00,-0.01,0.25,0.14,0.09,-0.06,
3.37,0.00,-0.01,0.25,0.14,0.09,-0.06,
3.37,0.00,-0.01,0.25,0.14,0.09,-0.06,
3.37,0.00,-0.01,0.25,0.14,0.09,-0.06,
3.374,0.00,-0.01,0.25,0.20,0.12,-0.05,
3.375,0.00,-0.01,0.25,0.20,0.12,-0.05,
3.376,0.21,-0.11,-0.22,0.20,0.12,-0.05,
3.377,0.21,-0.11,-0.22,0.20,0.12,-0.05,
3.389,0.21,-0.11,-0.22,0.15,0.11,-0.05,
3.391,0.21,-0.11,-0.22,0.15,0.11,-0.05,
3.392,0.40,-0.19,-0.51,0.15,0.11,-0.05,
3.393,0.40,-0.19,-0.51,0.15,0.11,-0.05,
3.394,0.40,-0.19,-0.51,0.03,0.05,-0.08,
3.396,0.40,-0.19,-0.51,0.03,0.05,-0.08,
3.397,0.56,-0.29,-0.76,0.03,0.05,-0.08,
3.398,0.56,-0.29,-0.76,0.03,0.05,-0.08,
3.404,0.56,-0.29,-0.76,-0.15,-0.05,-0.12,
3.405,0.56,-0.29,-0.76,-0.15,-0.05,-0.12,
3.407,0.66,-0.34,-0.94,-0.15,-0.05,-0.12,
3.408,0.66,-0.34,-0.94,-0.15,-0.05,-0.12,
3.412,0.66,-0.34,-0.94,-0.35,-0.17,-0.19,
3.414,0.66,-0.34,-0.94,-0.35,-0.17,-0.19,
3.415,0.73,-0.32,-0.97,-0.35,-0.17,-0.19,
3.416,0.73,-0.32,-0.97,-0.35,-0.17,-0.19,
3.421,0.73,-0.32,-0.97,-0.56,-0.32,-0.27,
3.423,0.73,-0.32,-0.97,-0.56,-0.32,-0.27,
3.424,0.76,-0.24,-0.89,-0.56,-0.32,-0.27,
3.426,0.76,-0.24,-0.89,-0.56,-0.32,-0.27,
3.431,0.76,-0.24,-0.89,-0.73,-0.46,-0.34,
3.432,0.76,-0.24,-0.89,-0.73,-0.46,-0.34,
3.433,0.77,-0.12,-0.73,-0.73,-0.46,-0.34,
3.434,0.77,-0.12,-0.73,-0.73,-0.46,-0.34,
3.448,0.77,-0.12,-0.73,-0.84,-0.57,-0.40,
3.449,0.77,-0.12,-0.73,-0.84,-0.57,-0.40,
3.451,0.78,-0.00,-0.58,-0.84,-0.57,-0.40,
3.452,0.78,-0.00,-0.58,-0.84,-0.57,-0.40,
3.453,0.78,-0.00,-0.58,-0.87,-0.63,-0.44,
3.454,0.78,-0.00,-0.58,-0.87,-0.63,-0.44,
3.456,0.78,0.06,-0.44,-0.87,-0.63,-0.44,
3.457,0.78,0.06,-0.44,-0.87,-0.63,-0.44,
3.461,0.78,0.06,-0.44,-0.87,-0.63,-0.44,
3.462,0.78,0.06,-0.44,-0.87,-0.63,-0.44,
3.462,0.78,0.06,-0.44,-0.87,-0.63,-0.44,
3.462,0.78,0.06,-0.44,-0.87,-0.63,-0.44,
3.476,0.78,0.06,-0.44,-0.81,-0.65,-0.45,
3.477,0.78,0.06,-0.44,-0.81,-0.65,-0.45,
3.477,0.77,0.08,-0.36,-0.81,-0.65,-0.45,
3.478,0.77,0.08,-0.36,-0.81,-0.65,-0.45,
3.491,0.77,0.08,-0.36,-0.55,-0.58,-0.43,
3.491,0.77,0.08,-0.36,-0.55,-0.58,-0.43,
3.492,0.77,0.06,-0.39,-0.55,-0.58,-0.43,
3.492,0.77,0.06,-0.39,-0.55,-0.58,-0.43,
3.492,0.77,0.06,-0.39,-0.41,-0.54,-0.40,
3.493,0.77,0.06,-0.39,-0.41,-0.54,-0.40,
3.493,0.74,0.06,-0.45,-0.41,-0.54,-0.40,
3.493,0.74,0.06,-0.45,-0.41,-0.54,-0.40,
3.498,0.74,0.06,-0.45,-0.41,-0.54,-0.40,
3.498,0.74,0.06,-0.45,-0.41,-0.54,-0.40,
3.499,0.74,0.06,-0.45,-0.41,-0.54,-0.40,
3.499,0.74,0.06,-0.45,-0.41,-0.54,-0.40,
3.507,0.74,0.06,-0.45,-0.30,-0.50,-0.37,
3.509,0.74,0.06,-0.45,-0.30,-0.50,-0.37,
3.51,0.60,0.08,-0.40,-0.30,-0.50,-0.37,
3.511,0.60,0.08,-0.40,-0.30,-0.50,-0.37,
3.517,0.60,0.08,-0.40,-0.21,-0.47,-0.32,
3.518,0.60,0.08,-0.40,-0.21,-0.47,-0.32,
3.519,0.46,0.10,-0.34,-0.21,-0.47,-0.32,
3.519,0.46,0.10,-0.34,-0.21,-0.47,-0.32,
3.532,0.46,0.10,-0.34,-0.09,-0.34,-0.19,
3.532,0.46,0.10,-0.34,-0.09,-0.34,-0.19,
3.532,0.33,0.13,-0.25,-0.09,-0.34,-0.19,
3.533,0.33,0.13,-0.25,-0.09,-0.34,-0.19,
3.535,0.33,0.13,-0.25,-0.09,-0.34,-0.19,
3.536,0.33,0.13,-0.25,-0.09,-0.34,-0.19,
3.536,0.33,0.13,-0.25,-0.09,-0.34,-0.19,
3.536,0.33,0.13,-0.25,-0.09,-0.34,-0.19,
3.545,0.33,0.13,-0.25,-0.03,-0.24,-0.10,
3.545,0.33,0.13,-0.25,-0.03,-0.24,-0.10,
3.549,0.19,0.19,-0.09,-0.03,-0.24,-0.10,
3.549,0.19,0.19,-0.09,-0.03,-0.24,-0.10,
3.556,0.19,0.19,-0.09,0.04,-0.13,-0.00,
3.557,0.19,0.19,-0.09,0.04,-0.13,-0.00,
3.557,0.14,0.20,0.08,0.04,-0.13,-0.00,
3.557,0.14,0.20,0.08,0.04,-0.13,-0.00,
3.564,0.14,0.20,0.08,0.12,-0.02,0.08,
3.564,0.14,0.20,0.08,0.12,-0.02,0.08,
3.565,0.10,0.18,0.25,0.12,-0.02,0.08,
3.565,0.10,0.18,0.25,0.12,-0.02,0.08,
3.575,0.10,0.18,0.25,0.21,0.10,0.15,
3.576,0.10,0.18,0.25,0.21,0.10,0.15,
3.576,0.05,0.14,0.40,0.21,0.10,0.15,
3.576,0.05,0.14,0.40,0.21,0.10,0.15,
3.583,0.05,0.14,0.40,0.33,0.23,0.21,
3.584,0.05,0.14,0.40,0.33,0.23,0.21,
3.584,0.05,0.11,0.43,0.33,0.23,0.21,
3.585,0.05,0.11,0.43,0.33,0.23,0.21,
3.593,0.05,0.11,0.43,0.45,0.34,0.24,
3.594,0.05,0.11,0.43,0.45,0.34,0.24,
3.595,0.11,0.11,0.37,0.45,0.34,0.24,
3.595,0.11,0.11,0.37,0.45,0.34,0.24,
3.607,0.11,0.11,0.37,0.55,0.41,0.25,
3.608,0.11,0.11,0.37,0.55,0.41,0.25,
3.608,0.16,0.18,0.27,0.55,0.41,0.25,
3.609,0.16,0.18,0.27,0.55,0.41,0.25,
3.614,0.16,0.18,0.27,0.60,0.42,0.25,
3.614,0.16,0.18,0.27,0.60,0.42,0.25,
3.615,0.14,0.25,0.21,0.60,0.42,0.25,
3.615,0.14,0.25,0.21,0.60,0.42,0.25,
3.623,0.14,0.25,0.21,0.60,0.39,0.23,
3.623,0.14,0.25,0.21,0.60,0.39,0.23,
3.623,0.05,0.29,0.28,0.60,0.39,0.23,
3.624,0.05,0.29,0.28,0.60,0.39,0.23,
3.631,0.05,0.29,0.28,0.56,0.35,0.20,
3.631,0.05,0.29,0.28,0.56,0.35,0.20,
3.632,-0.10,0.29,0.43,0.56,0.35,0.20,
3.632,-0.10,0.29,0.43,0.56,0.35,0.20,
3.642,-0.10,0.29,0.43,0.56,0.35,0.20,
3.642,-0.10,0.29,0.43,0.56,0.35,0.20,
3.643,-0.10,0.29,0.43,0.56,0.35,0.20,
3.643,-0.10,0.29,0.43,0.56,0.35,0.20,
3.65,-0.10,0.29,0.43,0.51,0.32,0.17,
3.651,-0.10,0.29,0.43,0.51,0.32,0.17,
3.652,-0.21,0.18,0.67,0.51,0.32,0.17,
3.652,-0.21,0.18,0.67,0.51,0.32,0.17,
3.659,-0.21,0.18,0.67,0.48,0.32,0.17,
3.66,-0.21,0.18,0.67,0.48,0.32,0.17,
3.66,-0.11,0.13,0.57,0.48,0.32,0.17,
3.66,-0.11,0.13,0.57,0.48,0.32,0.17,
3.669,-0.11,0.13,0.57,0.47,0.34,0.18,
3.67,-0.11,0.13,0.57,0.47,0.34,0.18,
3.67,0.08,0.07,0.28,0.47,0.34,0.18,
3.671,0.08,0.07,0.28,0.47,0.34,0.18,
3.679,0.08,0.07,0.28,0.46,0.34,0.18,
3.68,0.08,0.07,0.28,0.46,0.34,0.18,
3.68,0.33,0.03,-0.12,0.46,0.34,0.18,
3.68,0.33,0.03,-0.12,0.46,0.34,0.18,
3.689,0.33,0.03,-0.12,0.40,0.30,0.16,
3.69,0.33,0.03,-0.12,0.40,0.30,0.16,
3.69,0.54,-0.00,-0.46,0.40,0.30,0.16,
3.69,0.54,-0.00,-0.46,0.40,0.30,0.16,
3.697,0.54,-0.00,-0.46,0.25,0.18,0.09,
3.697,0.54,-0.00,-0.46,0.25,0.18,0.09,
3.698,0.69,-0.02,-0.64,0.25,0.18,0.09,
3.698,0.69,-0.02,-0.64,0.25,0.18,0.09,
3.707,0.69,-0.02,-0.64,0.02,0.01,-0.02,
3.708,0.69,-0.02,-0.64,0.02,0.01,-0.02,
3.709,0.73,0.00,-0.59,0.02,0.01,-0.02,
3.709,0.73,0.00,-0.59,0.02,0.01,-0.02,
3.718,0.73,0.00,-0.59,-0.25,-0.19,-0.15,
3.719,0.73,0.00,-0.59,-0.25,-0.19,-0.15,
3.719,0.66,0.01,-0.39,-0.25,-0.19,-0.15,
3.719,0.66,0.01,-0.39,-0.25,-0.19,-0.15,
3.726,0.66,0.01,-0.39,-0.48,-0.35,-0.27,
3.726,0.66,0.01,-0.39,-0.48,-0.35,-0.27,
3.726,0.54,0.02,-0.17,-0.48,-0.35,-0.27,
3.727,0.54,0.02,-0.17,-0.48,-0.35,-0.27,
3.742,0.54,0.02,-0.17,-0.61,-0.44,-0.37,
3.744,0.54,0.02,-0.17,-0.61,-0.44,-0.37,
3.745,0.40,0.02,-0.03,-0.61,-0.44,-0.37,
3.746,0.40,0.02,-0.03,-0.61,-0.44,-0.37,
3.747,0.40,0.02,-0.03,-0.63,-0.45,-0.41,
3.748,0.40,0.02,-0.03,-0.63,-0.45,-0.41,
3.749,0.29,0.03,-0.02,-0.63,-0.45,-0.41,
3.75,0.29,0.03,-0.02,-0.63,-0.45,-0.41,
3.755,0.29,0.03,-0.02,-0.56,-0.39,-0.41,
3.757,0.29,0.03,-0.02,-0.56,-0.39,-0.41,
3.757,0.24,0.03,-0.08,-0.56,-0.39,-0.41,
3.759,0.24,0.03,-0.08,-0.56,-0.39,-0.41,
3.764,0.24,0.03,-0.08,-0.45,-0.30,-0.36,
3.765,0.24,0.03,-0.08,-0.45,-0.30,-0.36,
3.766,0.25,0.04,-0.18,-0.45,-0.30,-0.36,
3.767,0.25,0.04,-0.18,-0.45,-0.30,-0.36,
3.774,0.25,0.04,-0.18,-0.34,-0.20,-0.29,
3.774,0.25,0.04,-0.18,-0.34,-0.20,-0.29,
3.775,0.30,0.03,-0.26,-0.34,-0.20,-0.29,
3.775,0.30,0.03,-0.26,-0.34,-0.20,-0.29,
3.784,0.30,0.03,-0.26,-0.28,-0.13,-0.22,
3.785,0.30,0.03,-0.26,-0.28,-0.13,-0.22,
3.788,0.36,0.04,-0.31,-0.28,-0.13,-0.22,
3.788,0.36,0.04,-0.31,-0.28,-0.13,-0.22,
3.794,0.36,0.04,-0.31,-0.26,-0.11,-0.16,
3.794,0.36,0.04,-0.31,-0.26,-0.11,-0.16,
3.795,0.37,0.06,-0.33,-0.26,-0.11,-0.16,
3.795,0.37,0.06,-0.33,-0.26,-0.11,-0.16,
3.805,0.37,0.06,-0.33,-0.26,-0.12,-0.13,
3.808,0.37,0.06,-0.33,-0.26,-0.12,-0.13,
3.809,0.33,0.10,-0.30,-0.26,-0.12,-0.13,
3.81,0.33,0.10,-0.30,-0.26,-0.12,-0.13,
3.811,0.33,0.10,-0.30,-0.28,-0.14,-0.12,
3.812,0.33,0.10,-0.30,-0.28,-0.14,-0.12,
3.812,0.25,0.16,-0.23,-0.28,-0.14,-0.12,
3.812,0.25,0.16,-0.23,-0.28,-0.14,-0.12,
3.821,0.25,0.16,-0.23,-0.28,-0.15,-0.11,
3.823,0.25,0.16,-0.23,-0.28,-0.15,-0.11,
3.823,0.14,0.19,-0.16,-0.28,-0.15,-0.11,
3.824,0.14,0.19,-0.16,-0.28,-0.15,-0.11,
3.83,0.14,0.19,-0.16,-0.28,-0.15,-0.11,
3.831,0.14,0.19,-0.16,-0.28,-0.15,-0.11,
3.832,0.14,0.19,-0.16,-0.28,-0.15,-0.11,
3.833,0.14,0.19,-0.16,-0.28,-0.15,-0.11,
3.844,0.14,0.19,-0.16,-0.22,-0.14,-0.05,
3.845,0.14,0.19,-0.16,-0.22,-0.14,-0.05,
3.846,-0.06,0.22,-0.10,-0.22,-0.14,-0.05,
3.847,-0.06,0.22,-0.10,-0.22,-0.14,-0.05,
3.851,-0.06,0.22,-0.10,-0.22,-0.14,-0.05,
3.853,-0.06,0.22,-0.10,-0.22,-0.14,-0.05,
3.855,-0.06,0.22,-0.10,-0.22,-0.14,-0.05,
3.855,-0.06,0.22,-0.10,-0.22,-0.14,-0.05,
3.859,-0.06,0.22,-0.10,-0.16,-0.09,0.02,
3.86,-0.06,0.22,-0.10,-0.16,-0.09,0.02,
3.861,-0.21,0.23,-0.06,-0.16,-0.09,0.02,
3.861,-0.21,0.23,-0.06,-0.16,-0.09,0.02,
3.869,-0.21,0.23,-0.06,-0.10,-0.02,0.09,
3.87,-0.21,0.23,-0.06,-0.10,-0.02,0.09,
3.87,-0.26,0.22,-0.06,-0.10,-0.02,0.09,
3.871,-0.26,0.22,-0.06,-0.10,-0.02,0.09,
3.878,-0.26,0.22,-0.06,-0.04,0.05,0.17,
3.878,-0.26,0.22,-0.06,-0.04,0.05,0.17,
3.879,-0.28,0.22,-0.05,-0.04,0.05,0.17,
3.879,-0.28,0.22,-0.05,-0.04,0.05,0.17,
3.888,-0.28,0.22,-0.05,0.01,0.11,0.25,
3.888,-0.28,0.22,-0.05,0.01,0.11,0.25,
3.889,-0.28,0.17,-0.07,0.01,0.11,0.25,
3.889,-0.28,0.17,-0.07,0.01,0.11,0.25,
3.897,-0.28,0.17,-0.07,0.05,0.16,0.30,
3.898,-0.28,0.17,-0.07,0.05,0.16,0.30,
3.899,-0.24,0.14,-0.10,0.05,0.16,0.30,
3.9,-0.24,0.14,-0.10,0.05,0.16,0.30,
3.91,-0.24,0.14,-0.10,0.07,0.18,0.34,
3.911,-0.24,0.14,-0.10,0.07,0.18,0.34,
3.911,-0.18,0.12,-0.10,0.07,0.18,0.34,
3.911,-0.18,0.12,-0.10,0.07,0.18,0.34,
3.916,-0.18,0.12,-0.10,0.07,0.17,0.35,
3.918,-0.18,0.12,-0.10,0.07,0.17,0.35,
3.919,-0.18,0.11,-0.11,0.07,0.17,0.35,
3.92,-0.18,0.11,-0.11,0.07,0.17,0.35,
3.928,-0.18,0.11,-0.11,0.06,0.16,0.33,
3.929,-0.18,0.11,-0.11,0.06,0.16,0.33,
3.93,-0.19,0.14,-0.10,0.06,0.16,0.33,
3.931,-0.19,0.14,-0.10,0.06,0.16,0.33,
3.935,-0.19,0.14,-0.10,0.05,0.16,0.29,
3.936,-0.19,0.14,-0.10,0.05,0.16,0.29,
3.937,-0.22,0.17,-0.10,0.05,0.16,0.29,
3.939,-0.22,0.17,-0.10,0.05,0.16,0.29,
3.944,-0.22,0.17,-0.10,0.04,0.16,0.24,
3.946,-0.22,0.17,-0.10,0.04,0.16,0.24,
3.947,-0.25,0.20,-0.07,0.04,0.16,0.24,
3.947,-0.25,0.20,-0.07,0.04,0.16,0.24,
3.955,-0.25,0.20,-0.07,0.03,0.15,0.21,
3.957,-0.25,0.20,-0.07,0.03,0.15,0.21,
3.958,-0.21,0.22,-0.07,0.03,0.15,0.21,
3.96,-0.21,0.22,-0.07,0.03,0.15,0.21,
3.967,-0.21,0.22,-0.07,0.03,0.13,0.17,
3.968,-0.21,0.22,-0.07,0.03,0.13,0.17,
3.969,-0.16,0.20,-0.06,0.03,0.13,0.17,
3.969,-0.16,0.20,-0.06,0.03,0.13,0.17,
3.974,-0.16,0.20,-0.06,0.02,0.09,0.15,
3.976,-0.16,0.20,-0.06,0.02,0.09,0.15,
3.976,-0.13,0.15,-0.06,0.02,0.09,0.15,
3.976,-0.13,0.15,-0.06,0.02,0.09,0.15,
3.983,-0.13,0.15,-0.06,0.02,0.04,0.12,
3.984,-0.13,0.15,-0.06,0.02,0.04,0.12,
3.984,-0.13,0.11,-0.04,0.02,0.04,0.12,
3.985,-0.13,0.11,-0.04,0.02,0.04,0.12,
4.001,-0.13,0.11,-0.04,0.01,-0.03,0.10,
4.002,-0.13,0.11,-0.04,0.01,-0.03,0.10,
4.002,-0.18,0.09,-0.02,0.01,-0.03,0.10,
4.002,-0.18,0.09,-0.02,0.01,-0.03,0.10,
4.002,-0.18,0.09,-0.02,0.01,-0.09,0.07,
4.003,-0.18,0.09,-0.02,0.01,-0.09,0.07,
4.003,-0.24,0.10,0.02,0.01,-0.09,0.07,
4.003,-0.24,0.10,0.02,0.01,-0.09,0.07,
4.011,-0.24,0.10,0.02,0.01,-0.14,0.05,
4.012,-0.24,0.10,0.02,0.01,-0.14,0.05,
4.012,-0.28,0.15,0.05,0.01,-0.14,0.05,
4.012,-0.28,0.15,0.05,0.01,-0.14,0.05,
4.023,-0.28,0.15,0.05,0.01,-0.15,0.05,
4.023,-0.28,0.15,0.05,0.01,-0.15,0.05,
4.026,-0.33,0.22,0.04,0.01,-0.15,0.05,
4.027,-0.33,0.22,0.04,0.01,-0.15,0.05,
4.031,-0.33,0.22,0.04,0.01,-0.15,0.05,
4.031,-0.33,0.22,0.04,0.01,-0.15,0.05,
4.032,-0.33,0.22,0.04,0.01,-0.15,0.05,
4.032,-0.33,0.22,0.04,0.01,-0.15,0.05,
4.04,-0.33,0.22,0.04,0.03,-0.14,0.06,
4.041,-0.33,0.22,0.04,0.03,-0.14,0.06,
4.041,-0.34,0.29,0.00,0.03,-0.14,0.06,
4.042,-0.34,0.29,0.00,0.03,-0.14,0.06,
4.05,-0.34,0.29,0.00,0.05,-0.10,0.08,
4.051,-0.34,0.29,0.00,0.05,-0.10,0.08,
4.052,-0.34,0.32,0.03,0.05,-0.10,0.08,
4.052,-0.34,0.32,0.03,0.05,-0.10,0.08,
4.058,-0.34,0.32,0.03,0.06,-0.06,0.11,
4.059,-0.34,0.32,0.03,0.06,-0.06,0.11,
4.06,-0.31,0.29,0.05,0.06,-0.06,0.11,
4.06,-0.31,0.29,0.05,0.06,-0.06,0.11,
4.078,-0.31,0.29,0.05,0.08,0.02,0.14,
4.079,-0.31,0.29,0.05,0.08,0.02,0.14,
4.079,-0.27,0.26,0.07,0.08,0.02,0.14,
4.079,-0.27,0.26,0.07,0.08,0.02,0.14,
4.081,-0.27,0.26,0.07,0.08,0.02,0.14,
4.081,-0.27,0.26,0.07,0.08,0.02,0.14,
4.081,-0.27,0.26,0.07,0.08,0.02,0.14,
4.082,-0.27,0.26,0.07,0.08,0.02,0.14,
4.087,-0.27,0.26,0.07,0.09,0.05,0.14,
4.088,-0.27,0.26,0.07,0.09,0.05,0.14,
4.088,-0.20,0.16,0.04,0.09,0.05,0.14,
4.089,-0.20,0.16,0.04,0.09,0.05,0.14,
4.11,-0.20,0.16,0.04,0.08,0.08,0.10,
4.112,-0.20,0.16,0.04,0.08,0.08,0.10,
4.113,-0.20,0.16,-0.00,0.08,0.08,0.10,
4.113,-0.20,0.16,-0.00,0.08,0.08,0.10,
4.14,-0.20,0.16,-0.00,-0.00,-0.06,0.05,
4.142,-0.20,0.16,-0.00,-0.00,-0.06,0.05,
4.143,-0.20,0.16,-0.00,-0.00,-0.06,0.05,
4.143,-0.20,0.16,-0.00,-0.00,-0.06,0.05,
4.144,-0.20,0.16,-0.00,-0.00,-0.06,0.05,
4.145,-0.20,0.16,-0.00,-0.00,-0.06,0.05,
4.146,-0.18,0.17,-0.05,-0.00,-0.06,0.05,
4.147,-0.18,0.17,-0.05,-0.00,-0.06,0.05,
4.148,-0.18,0.17,-0.05,-0.00,-0.06,0.05,
4.149,-0.18,0.17,-0.05,-0.00,-0.06,0.05,
4.15,-0.18,0.17,-0.05,-0.00,-0.06,0.05,
4.151,-0.18,0.17,-0.05,-0.00,-0.06,0.05,
4.151,-0.18,0.17,-0.05,-0.03,-0.08,0.04,
4.152,-0.18,0.17,-0.05,-0.03,-0.08,0.04,
4.153,-0.18,0.17,-0.05,-0.03,-0.08,0.04,
4.154,-0.18,0.17,-0.05,-0.03,-0.08,0.04,
4.155,-0.17,0.16,-0.04,-0.03,-0.08,0.04,
4.156,-0.17,0.16,-0.04,-0.03,-0.08,0.04,
4.156,-0.17,0.16,-0.04,-0.03,-0.08,0.04,
4.157,-0.17,0.16,-0.04,-0.03,-0.08,0.04,
4.158,-0.17,0.16,-0.04,-0.06,-0.10,0.04,
4.159,-0.17,0.16,-0.04,-0.06,-0.10,0.04,
4.16,-0.16,0.16,-0.04,-0.06,-0.10,0.04,
4.161,-0.16,0.16,-0.04,-0.06,-0.10,0.04,
4.165,-0.16,0.16,-0.04,-0.07,-0.11,0.03,
4.166,-0.16,0.16,-0.04,-0.07,-0.11,0.03,
4.167,-0.15,0.16,-0.04,-0.07,-0.11,0.03,
4.168,-0.15,0.16,-0.04,-0.07,-0.11,0.03,
4.181,-0.15,0.16,-0.04,-0.08,-0.10,0.02,
4.183,-0.15,0.16,-0.04,-0.08,-0.10,0.02,
4.184,-0.13,0.16,-0.04,-0.08,-0.10,0.02,
4.185,-0.13,0.16,-0.04,-0.08,-0.10,0.02,
4.194,-0.13,0.16,-0.04,-0.08,-0.10,0.02,
4.196,-0.13,0.16,-0.04,-0.08,-0.10,0.02,
4.197,-0.13,0.16,-0.04,-0.08,-0.10,0.02,
4.198,-0.13,0.16,-0.04,-0.08,-0.10,0.02,
4.199,-0.11,0.16,-0.04,-0.08,-0.10,0.02,
4.2,-0.11,0.16,-0.04,-0.08,-0.10,0.02,
4.201,-0.11,0.16,-0.04,-0.08,-0.10,0.02,
4.201,-0.11,0.16,-0.04,-0.08,-0.10,0.02,
4.203,-0.11,0.16,-0.04,-0.07,-0.09,0.02,
4.204,-0.11,0.16,-0.04,-0.07,-0.09,0.02,
4.205,-0.10,0.15,-0.04,-0.07,-0.09,0.02,
4.205,-0.10,0.15,-0.04,-0.07,-0.09,0.02,
4.212,-0.10,0.15,-0.04,-0.06,-0.08,0.02,
4.213,-0.10,0.15,-0.04,-0.06,-0.08,0.02,
4.214,-0.09,0.15,-0.04,-0.06,-0.08,0.02,
4.215,-0.09,0.15,-0.04,-0.06,-0.08,0.02,
4.221,-0.09,0.15,-0.04,-0.05,-0.06,0.01,
4.223,-0.09,0.15,-0.04,-0.05,-0.06,0.01,
4.224,-0.08,0.15,-0.04,-0.05,-0.06,0.01,
4.225,-0.08,0.15,-0.04,-0.05,-0.06,0.01,
4.23,-0.08,0.15,-0.04,-0.05,-0.06,0.01,
4.231,-0.08,0.15,-0.04,-0.05,-0.06,0.01,
4.232,-0.08,0.15,-0.04,-0.05,-0.06,0.01,
4.233,-0.08,0.15,-0.04,-0.05,-0.06,0.01,
4.239,-0.08,0.15,-0.04,-0.04,-0.05,0.01,
4.24,-0.08,0.15,-0.04,-0.04,-0.05,0.01,
4.24,-0.07,0.15,-0.04,-0.04,-0.05,0.01,
4.24,-0.07,0.15,-0.04,-0.04,-0.05,0.01,
4.252,-0.07,0.15,-0.04,-0.04,-0.04,0.01,
4.253,-0.07,0.15,-0.04,-0.04,-0.04,0.01,
4.253,-0.05,0.15,-0.04,-0.04,-0.04,0.01,
4.254,-0.05,0.15,-0.04,-0.04,-0.04,0.01,
4.261,-0.05,0.15,-0.04,-0.03,-0.04,0.01,
4.262,-0.05,0.15,-0.04,-0.03,-0.04,0.01,
4.265,-0.04,0.15,-0.04,-0.03,-0.04,0.01,
4.265,-0.04,0.15,-0.04,-0.03,-0.04,0.01,
4.272,-0.04,0.15,-0.04,-0.02,-0.02,0.00,
4.273,-0.04,0.15,-0.04,-0.02,-0.02,0.00,
4.273,-0.02,0.14,-0.04,-0.02,-0.02,0.00,
4.274,-0.02,0.14,-0.04,-0.02,-0.02,0.00,
4.277,-0.02,0.14,-0.04,-0.02,-0.02,0.00,
4.278,-0.02,0.14,-0.04,-0.02,-0.02,0.00,
4.278,-0.02,0.14,-0.04,-0.02,-0.02,0.00,
4.279,-0.02,0.14,-0.04,-0.02,-0.02,0.00,
4.287,-0.02,0.14,-0.04,-0.02,-0.02,0.00,
4.288,-0.02,0.14,-0.04,-0.02,-0.02,0.00,
4.288,-0.02,0.14,-0.04,-0.02,-0.02,0.00,
4.288,-0.02,0.14,-0.04,-0.02,-0.02,0.00,
4.297,-0.02,0.14,-0.04,-0.01,-0.02,0.00,
4.297,-0.02,0.14,-0.04,-0.01,-0.02,0.00,
4.298,-0.01,0.14,-0.04,-0.01,-0.02,0.00,
4.298,-0.01,0.14,-0.04,-0.01,-0.02,0.00,
4.306,-0.01,0.14,-0.04,-0.01,-0.01,0.00,
4.307,-0.01,0.14,-0.04,-0.01,-0.01,0.00,
4.307,-0.01,0.14,-0.04,-0.01,-0.01,0.00,
4.307,-0.01,0.14,-0.04,-0.01,-0.01,0.00,
4.316,-0.01,0.14,-0.04,-0.01,-0.01,0.00,
4.317,-0.01,0.14,-0.04,-0.01,-0.01,0.00,
4.317,-0.00,0.14,-0.04,-0.01,-0.01,0.00,
4.317,-0.00,0.14,-0.04,-0.01,-0.01,0.00,
4.33,-0.00,0.14,-0.04,-0.01,-0.01,0.00,
4.331,-0.00,0.14,-0.04,-0.01,-0.01,0.00,
4.332,0.00,0.14,-0.04,-0.01,-0.01,0.00,
4.333,0.00,0.14,-0.04,-0.01,-0.01,0.00,
4.338,0.00,0.14,-0.04,-0.01,-0.01,0.00,
4.34,0.00,0.14,-0.04,-0.01,-0.01,0.00,
4.341,0.01,0.14,-0.04,-0.01,-0.01,0.00,
4.341,0.01,0.14,-0.04,-0.01,-0.01,0.00,
4.344,0.01,0.14,-0.04,-0.00,-0.01,0.00,
4.345,0.01,0.14,-0.04,-0.00,-0.01,0.00,
4.346,-0.06,0.16,0.33,-0.00,-0.01,0.00,
4.347,-0.06,0.16,0.33,-0.00,-0.01,0.00,
4.37,-0.06,0.16,0.33,0.01,-0.00,0.00,
4.371,-0.06,0.16,0.33,0.01,-0.00,0.00,
4.372,-0.11,0.20,0.30,0.01,-0.00,0.00,
4.373,-0.11,0.20,0.30,0.01,-0.00,0.00,
4.373,-0.11,0.20,0.30,0.05,-0.00,0.01,
4.374,-0.11,0.20,0.30,0.05,-0.00,0.01,
4.375,-0.15,0.22,0.26,0.05,-0.00,0.01,
4.376,-0.15,0.22,0.26,0.05,-0.00,0.01,
4.377,-0.15,0.22,0.26,0.11,0.00,0.03,
4.378,-0.15,0.22,0.26,0.11,0.00,0.03,
4.378,-0.16,0.23,0.18,0.11,0.00,0.03,
4.379,-0.16,0.23,0.18,0.11,0.00,0.03,
4.385,-0.16,0.23,0.18,0.18,0.00,0.06,
4.386,-0.16,0.23,0.18,0.18,0.00,0.06,
4.387,-0.16,0.23,0.11,0.18,0.00,0.06,
4.388,-0.16,0.23,0.11,0.18,0.00,0.06,
4.403,-0.16,0.23,0.11,0.20,0.00,0.12,
4.404,-0.16,0.23,0.11,0.20,0.00,0.12,
4.404,-0.16,0.23,0.11,0.20,0.00,0.12,
4.405,-0.16,0.23,0.11,0.20,0.00,0.12,
4.405,-0.14,0.20,0.08,0.20,0.00,0.12,
4.405,-0.14,0.20,0.08,0.20,0.00,0.12,
4.405,-0.14,0.20,0.08,0.20,0.00,0.12,
4.406,-0.14,0.20,0.08,0.20,0.00,0.12,
4.411,-0.14,0.20,0.08,0.17,0.01,0.13,
4.411,-0.14,0.20,0.08,0.17,0.01,0.13,
4.412,-0.14,0.15,0.15,0.17,0.01,0.13,
4.412,-0.14,0.15,0.15,0.17,0.01,0.13,
4.42,-0.14,0.15,0.15,0.17,0.01,0.13,
4.421,-0.14,0.15,0.15,0.17,0.01,0.13,
4.421,-0.14,0.15,0.15,0.17,0.01,0.13,
4.421,-0.14,0.15,0.15,0.17,0.01,0.13,
4.429,-0.14,0.15,0.15,0.13,-0.00,0.14,
4.43,-0.14,0.15,0.15,0.13,-0.00,0.14,
4.43,-0.15,0.16,0.31,0.13,-0.00,0.14,
4.43,-0.15,0.16,0.31,0.13,-0.00,0.14,
4.45,-0.15,0.16,0.31,0.10,-0.06,0.13,
4.451,-0.15,0.16,0.31,0.10,-0.06,0.13,
4.451,-0.13,0.19,0.30,0.10,-0.06,0.13,
4.452,-0.13,0.19,0.30,0.10,-0.06,0.13,
4.452,-0.13,0.19,0.30,0.10,-0.06,0.13,
4.452,-0.13,0.19,0.30,0.10,-0.06,0.13,
4.452,-0.13,0.19,0.30,0.10,-0.06,0.13,
4.453,-0.13,0.19,0.30,0.10,-0.06,0.13,
4.458,-0.13,0.19,0.30,0.12,-0.07,0.11,
4.459,-0.13,0.19,0.30,0.12,-0.07,0.11,
4.459,-0.11,0.23,0.14,0.12,-0.07,0.11,
4.46,-0.11,0.23,0.14,0.12,-0.07,0.11,
4.473,-0.11,0.23,0.14,0.14,-0.05,0.10,
4.474,-0.11,0.23,0.14,0.14,-0.05,0.10,
4.474,-0.11,0.24,0.05,0.14,-0.05,0.10,
4.475,-0.11,0.24,0.05,0.14,-0.05,0.10,
4.477,-0.11,0.24,0.05,0.13,-0.04,0.08,
4.478,-0.11,0.24,0.05,0.13,-0.04,0.08,
4.478,-0.14,0.22,0.02,0.13,-0.04,0.08,
4.479,-0.14,0.22,0.02,0.13,-0.04,0.08,
4.491,-0.14,0.22,0.02,0.09,-0.04,0.07,
4.492,-0.14,0.22,0.02,0.09,-0.04,0.07,
4.492,-0.14,0.21,0.07,0.09,-0.04,0.07,
4.492,-0.14,0.21,0.07,0.09,-0.04,0.07,
4.496,-0.14,0.21,0.07,0.04,-0.06,0.07,
4.498,-0.14,0.21,0.07,0.04,-0.06,0.07,
4.505,-0.11,0.21,0.14,0.04,-0.06,0.07,
4.506,-0.11,0.21,0.14,0.04,-0.06,0.07,
4.508,-0.11,0.21,0.14,-0.01,-0.10,0.07,
4.509,-0.11,0.21,0.14,-0.01,-0.10,0.07,
4.51,-0.06,0.26,0.20,-0.01,-0.10,0.07,
4.511,-0.06,0.26,0.20,-0.01,-0.10,0.07,
4.522,-0.06,0.26,0.20,-0.03,-0.11,0.05,
4.523,-0.06,0.26,0.20,-0.03,-0.11,0.05,
4.524,-0.03,0.31,0.23,-0.03,-0.11,0.05,
4.525,-0.03,0.31,0.23,-0.03,-0.11,0.05,
4.526,-0.03,0.31,0.23,-0.03,-0.11,0.05,
4.527,-0.03,0.31,0.23,-0.03,-0.11,0.05,
4.528,-0.03,0.31,0.23,-0.03,-0.11,0.05,
4.529,-0.03,0.31,0.23,-0.03,-0.11,0.05,
4.534,-0.03,0.31,0.23,-0.00,-0.07,0.02,
4.535,-0.03,0.31,0.23,-0.00,-0.07,0.02,
4.538,-0.03,0.38,0.13,-0.00,-0.07,0.02,
4.538,-0.03,0.38,0.13,-0.00,-0.07,0.02,
4.543,-0.03,0.38,0.13,0.03,-0.02,-0.00,
4.544,-0.03,0.38,0.13,0.03,-0.02,-0.00,
4.545,-0.10,0.37,0.07,0.03,-0.02,-0.00,
4.546,-0.10,0.37,0.07,0.03,-0.02,-0.00,
4.555,-0.10,0.37,0.07,0.05,0.01,-0.02,
4.556,-0.10,0.37,0.07,0.05,0.01,-0.02,
4.556,-0.20,0.36,0.03,0.05,0.01,-0.02,
4.557,-0.20,0.36,0.03,0.05,0.01,-0.02,
4.565,-0.20,0.36,0.03,0.04,0.02,-0.01,
4.565,-0.20,0.36,0.03,0.04,0.02,-0.01,
4.565,-0.27,0.30,0.04,0.04,0.02,-0.01,
4.566,-0.27,0.30,0.04,0.04,0.02,-0.01,
4.573,-0.27,0.30,0.04,0.02,0.03,0.01,
4.574,-0.27,0.30,0.04,0.02,0.03,0.01,
4.574,-0.13,0.50,0.07,0.02,0.03,0.01,
4.574,-0.13,0.50,0.07,0.02,0.03,0.01,
4.586,-0.13,0.50,0.07,-0.00,0.05,0.04,
4.588,-0.13,0.50,0.07,-0.00,0.05,0.04,
4.589,-0.12,0.56,0.09,-0.00,0.05,0.04,
4.589,-0.12,0.56,0.09,-0.00,0.05,0.04,
4.609,-0.12,0.56,0.09,-0.00,0.13,0.08,
4.61,-0.12,0.56,0.09,-0.00,0.13,0.08,
4.611,-0.12,0.56,0.09,-0.00,0.13,0.08,
4.611,-0.12,0.56,0.09,-0.00,0.13,0.08,
4.612,-0.23,0.36,0.12,-0.00,0.13,0.08,
4.612,-0.23,0.36,0.12,-0.00,0.13,0.08,
4.613,-0.23,0.36,0.12,-0.00,0.13,0.08,
4.613,-0.23,0.36,0.12,-0.00,0.13,0.08,
4.614,-0.23,0.36,0.12,0.01,0.16,0.08,
4.614,-0.23,0.36,0.12,0.01,0.16,0.08,
4.615,-0.33,0.10,0.11,0.01,0.16,0.08,
4.615,-0.33,0.10,0.11,0.01,0.16,0.08,
4.635,-0.33,0.10,0.11,0.01,0.16,0.08,
4.636,-0.33,0.10,0.11,0.01,0.16,0.08,
4.637,-0.33,0.10,0.11,0.01,0.16,0.08,
4.638,-0.33,0.10,0.11,0.01,0.16,0.08,
4.639,-0.33,0.10,0.11,0.04,0.16,0.11,
4.64,-0.33,0.10,0.11,0.04,0.16,0.11,
4.64,-0.07,0.21,0.13,0.04,0.16,0.11,
4.641,-0.07,0.21,0.13,0.04,0.16,0.11,
4.642,-0.07,0.21,0.13,0.04,0.16,0.11,
4.643,-0.07,0.21,0.13,0.04,0.16,0.11,
4.644,-0.07,0.21,0.13,0.04,0.16,0.11,
4.645,-0.07,0.21,0.13,0.04,0.16,0.11,
4.658,-0.07,0.21,0.13,0.04,0.15,0.09,
4.66,-0.07,0.21,0.13,0.04,0.15,0.09,
4.661,-0.01,0.25,0.06,0.04,0.15,0.09,
4.662,-0.01,0.25,0.06,0.04,0.15,0.09,
4.67,-0.01,0.25,0.06,0.03,0.10,0.02,
4.672,-0.01,0.25,0.06,0.03,0.10,0.02,
4.673,-0.01,0.24,-0.02,0.03,0.10,0.02,
4.674,-0.01,0.24,-0.02,0.03,0.10,0.02,
4.675,-0.01,0.24,-0.02,0.03,0.10,0.02,
4.676,-0.01,0.24,-0.02,0.03,0.10,0.02,
4.677,-0.01,0.24,-0.02,0.03,0.10,0.02,
4.678,-0.01,0.24,-0.02,0.03,0.10,0.02,
4.68,-0.01,0.24,-0.02,0.01,0.06,-0.01,
4.681,-0.01,0.24,-0.02,0.01,0.06,-0.01,
4.681,0.11,0.22,-0.21,0.01,0.06,-0.01,
4.682,0.11,0.22,-0.21,0.01,0.06,-0.01,
4.687,0.11,0.22,-0.21,-0.02,0.04,-0.04,
4.688,0.11,0.22,-0.21,-0.02,0.04,-0.04,
4.688,0.18,0.17,-0.26,-0.02,0.04,-0.04,
4.689,0.18,0.17,-0.26,-0.02,0.04,-0.04,
4.696,0.18,0.17,-0.26,-0.07,0.02,-0.07,
4.697,0.18,0.17,-0.26,-0.07,0.02,-0.07,
4.697,0.26,0.12,-0.33,-0.07,0.02,-0.07,
4.698,0.26,0.12,-0.33,-0.07,0.02,-0.07,
4.708,0.26,0.12,-0.33,-0.13,-0.02,-0.10,
4.709,0.26,0.12,-0.33,-0.13,-0.02,-0.10,
4.709,0.32,0.08,-0.36,-0.13,-0.02,-0.10,
4.709,0.32,0.08,-0.36,-0.13,-0.02,-0.10,
4.716,0.32,0.08,-0.36,-0.21,-0.07,-0.15,
4.723,0.32,0.08,-0.36,-0.21,-0.07,-0.15,
4.724,0.33,0.05,-0.38,-0.21,-0.07,-0.15,
4.726,0.33,0.05,-0.38,-0.21,-0.07,-0.15,
4.726,0.33,0.05,-0.38,-0.27,-0.11,-0.20,
4.727,0.33,0.05,-0.38,-0.27,-0.11,-0.20,
4.727,0.29,0.00,-0.37,-0.27,-0.11,-0.20,
4.727,0.29,0.00,-0.37,-0.27,-0.11,-0.20,
4.735,0.29,0.00,-0.37,-0.32,-0.15,-0.24,
4.736,0.29,0.00,-0.37,-0.32,-0.15,-0.24,
4.739,0.26,-0.03,-0.31,-0.32,-0.15,-0.24,
4.739,0.26,-0.03,-0.31,-0.32,-0.15,-0.24,
4.743,0.26,-0.03,-0.31,-0.34,-0.16,-0.26,
4.744,0.26,-0.03,-0.31,-0.34,-0.16,-0.26,
4.744,0.20,-0.06,-0.25,-0.34,-0.16,-0.26,
4.744,0.20,-0.06,-0.25,-0.34,-0.16,-0.26,
4.76,0.20,-0.06,-0.25,-0.33,-0.14,-0.27,
4.762,0.20,-0.06,-0.25,-0.33,-0.14,-0.27,
4.763,0.16,-0.07,-0.21,-0.33,-0.14,-0.27,
4.764,0.16,-0.07,-0.21,-0.33,-0.14,-0.27,
4.773,0.16,-0.07,-0.21,-0.30,-0.10,-0.25,
4.775,0.16,-0.07,-0.21,-0.30,-0.10,-0.25,
4.776,0.13,-0.03,-0.22,-0.30,-0.10,-0.25,
4.776,0.13,-0.03,-0.22,-0.30,-0.10,-0.25,
4.779,0.13,-0.03,-0.22,-0.25,-0.04,-0.21,
4.781,0.13,-0.03,-0.22,-0.25,-0.04,-0.21,
4.782,0.06,0.06,-0.20,-0.25,-0.04,-0.21,
4.783,0.06,0.06,-0.20,-0.25,-0.04,-0.21,
4.784,0.06,0.06,-0.20,-0.18,0.03,-0.17,
4.784,0.06,0.06,-0.20,-0.18,0.03,-0.17,
4.785,0.01,0.16,-0.18,-0.18,0.03,-0.17,
4.787,0.01,0.16,-0.18,-0.18,0.03,-0.17,
4.791,0.01,0.16,-0.18,-0.12,0.12,-0.12,
4.793,0.01,0.16,-0.18,-0.12,0.12,-0.12,
4.795,-0.04,0.29,-0.12,-0.12,0.12,-0.12,
4.796,-0.04,0.29,-0.12,-0.12,0.12,-0.12,
4.803,-0.04,0.29,-0.12,-0.06,0.21,-0.06,
4.804,-0.04,0.29,-0.12,-0.06,0.21,-0.06,
4.804,-0.05,0.39,0.02,-0.06,0.21,-0.06,
4.804,-0.05,0.39,0.02,-0.06,0.21,-0.06,
4.81,-0.05,0.39,0.02,-0.06,0.21,-0.06,
4.81,-0.05,0.39,0.02,-0.06,0.21,-0.06,
4.811,-0.05,0.39,0.02,-0.06,0.21,-0.06,
4.811,-0.05,0.39,0.02,-0.06,0.21,-0.06,
4.821,-0.05,0.39,0.02,0.01,0.31,-0.00,
4.823,-0.05,0.39,0.02,0.01,0.31,-0.00,
4.823,-0.02,0.49,0.41,0.01,0.31,-0.00,
4.824,-0.02,0.49,0.41,0.01,0.31,-0.00,
4.829,-0.02,0.49,0.41,0.10,0.41,0.04,
4.831,-0.02,0.49,0.41,0.10,0.41,0.04,
4.831,0.05,0.37,0.67,0.10,0.41,0.04,
4.832,0.05,0.37,0.67,0.10,0.41,0.04,
4.84,0.05,0.37,0.67,0.24,0.51,0.07,
4.841,0.05,0.37,0.67,0.24,0.51,0.07,
4.842,0.20,0.15,0.88,0.24,0.51,0.07,
4.843,0.20,0.15,0.88,0.24,0.51,0.07,
4.848,0.20,0.15,0.88,0.43,0.61,0.07,
4.849,0.20,0.15,0.88,0.43,0.61,0.07,
4.85,0.48,-0.14,0.96,0.43,0.61,0.07,
4.851,0.48,-0.14,0.96,0.43,0.61,0.07,
4.862,0.48,-0.14,0.96,0.63,0.69,0.01,
4.863,0.48,-0.14,0.96,0.63,0.69,0.01,
4.865,0.87,-0.34,0.96,0.63,0.69,0.01,
4.866,0.87,-0.34,0.96,0.63,0.69,0.01,
4.869,0.87,-0.34,0.96,0.80,0.70,-0.10,
4.87,0.87,-0.34,0.96,0.80,0.70,-0.10,
4.871,1.29,-0.42,0.91,0.80,0.70,-0.10,
4.872,1.29,-0.42,0.91,0.80,0.70,-0.10,
4.88,1.29,-0.42,0.91,0.90,0.65,-0.27,
4.882,1.29,-0.42,0.91,0.90,0.65,-0.27,
4.883,1.62,-0.38,0.81,0.90,0.65,-0.27,
4.883,1.62,-0.38,0.81,0.90,0.65,-0.27,
4.887,1.62,-0.38,0.81,0.92,0.53,-0.50,
4.887,1.62,-0.38,0.81,0.92,0.53,-0.50,
4.888,1.76,-0.29,0.68,0.92,0.53,-0.50,
4.888,1.76,-0.29,0.68,0.92,0.53,-0.50,
4.895,1.76,-0.29,0.68,0.86,0.35,-0.75,
4.896,1.76,-0.29,0.68,0.86,0.35,-0.75,
4.896,1.70,-0.18,0.56,0.86,0.35,-0.75,
4.896,1.70,-0.18,0.56,0.86,0.35,-0.75,
4.906,1.70,-0.18,0.56,0.76,0.14,-0.96,
4.907,1.70,-0.18,0.56,0.76,0.14,-0.96,
4.907,1.52,-0.17,0.46,0.76,0.14,-0.96,
4.907,1.52,-0.17,0.46,0.76,0.14,-0.96,
4.916,1.52,-0.17,0.46,0.62,-0.04,-1.11,
4.918,1.52,-0.17,0.46,0.62,-0.04,-1.11,
4.919,1.49,-0.03,0.40,0.62,-0.04,-1.11,
4.92,1.49,-0.03,0.40,0.62,-0.04,-1.11,
4.924,1.49,-0.03,0.40,0.48,-0.16,-1.16,
4.925,1.49,-0.03,0.40,0.48,-0.16,-1.16,
4.925,1.29,-0.20,0.51,0.48,-0.16,-1.16,
4.925,1.29,-0.20,0.51,0.48,-0.16,-1.16,
4.935,1.29,-0.20,0.51,0.35,-0.21,-1.13,
4.936,1.29,-0.20,0.51,0.35,-0.21,-1.13,
4.936,1.00,-0.80,0.69,0.35,-0.21,-1.13,
4.936,1.00,-0.80,0.69,0.35,-0.21,-1.13,
4.943,1.00,-0.80,0.69,0.24,-0.19,-1.03,
4.943,1.00,-0.80,0.69,0.24,-0.19,-1.03,
4.944,0.76,-2.68,0.80,0.24,-0.19,-1.03,
4.944,0.76,-2.68,0.80,0.24,-0.19,-1.03,
4.958,0.76,-2.68,0.80,0.17,-0.12,-0.88,
4.959,0.76,-2.68,0.80,0.17,-0.12,-0.88,
4.96,0.31,-3.15,0.76,0.17,-0.12,-0.88,
4.961,0.31,-3.15,0.76,0.17,-0.12,-0.88,
4.967,0.31,-3.15,0.76,0.09,-0.03,-0.68,
4.968,0.31,-3.15,0.76,0.09,-0.03,-0.68,
4.968,-0.03,-3.71,0.48,0.09,-0.03,-0.68,
4.968,-0.03,-3.71,0.48,0.09,-0.03,-0.68,
4.971,-0.03,-3.71,0.48,-0.00,0.08,-0.45,
4.973,-0.03,-3.71,0.48,-0.00,0.08,-0.45,
4.979,-0.27,-4.00,0.01,-0.00,0.08,-0.45,
4.98,-0.27,-4.00,0.01,-0.00,0.08,-0.45,
4.984,-0.27,-4.00,0.01,-0.13,0.19,-0.20,
4.993,-0.27,-4.00,0.01,-0.13,0.19,-0.20,
4.997,-0.10,-3.63,-0.43,-0.13,0.19,-0.20,
4.998,-0.10,-3.63,-0.43,-0.13,0.19,-0.20,
4.999,-0.10,-3.63,-0.43,-0.30,0.28,0.02,
5.001,-0.10,-3.63,-0.43,-0.30,0.28,0.02,
5.002,1.74,-1.67,-0.67,-0.30,0.28,0.02,
5.004,1.74,-1.67,-0.67,-0.30,0.28,0.02,
5.005,1.74,-1.67,-0.67,-0.50,0.29,0.16,
5.007,1.74,-1.67,-0.67,-0.50,0.29,0.16,
5.008,1.78,-1.36,-0.63,-0.50,0.29,0.16,
5.009,1.78,-1.36,-0.63,-0.50,0.29,0.16,
5.011,1.78,-1.36,-0.63,-0.50,0.29,0.16,
5.012,1.78,-1.36,-0.63,-0.50,0.29,0.16,
5.017,1.78,-1.36,-0.63,-0.50,0.29,0.16,
5.019,1.78,-1.36,-0.63,-0.50,0.29,0.16,
5.021,1.78,-1.36,-0.63,-0.68,0.19,0.14,
5.023,1.78,-1.36,-0.63,-0.68,0.19,0.14,
5.024,2.12,-0.39,0.03,-0.68,0.19,0.14,
5.025,2.12,-0.39,0.03,-0.68,0.19,0.14,
5.032,2.12,-0.39,0.03,-0.79,-0.01,-0.03,
5.033,2.12,-0.39,0.03,-0.79,-0.01,-0.03,
5.035,1.77,-0.63,0.43,-0.79,-0.01,-0.03,
5.036,1.77,-0.63,0.43,-0.79,-0.01,-0.03,
5.043,1.77,-0.63,0.43,-0.59,-0.33,-0.48,
5.044,1.77,-0.63,0.43,-0.59,-0.33,-0.48,
5.045,1.66,-0.39,0.72,-0.59,-0.33,-0.48,
5.046,1.66,-0.39,0.72,-0.59,-0.33,-0.48,
5.048,1.66,-0.39,0.72,-0.59,-0.33,-0.48,
5.049,1.66,-0.39,0.72,-0.59,-0.33,-0.48,
5.05,1.66,-0.39,0.72,-0.59,-0.33,-0.48,
5.051,1.66,-0.39,0.72,-0.59,-0.33,-0.48,
5.062,1.66,-0.39,0.72,-0.32,-0.34,-0.61,
5.063,1.66,-0.39,0.72,-0.32,-0.34,-0.61,
5.064,1.02,-0.69,1.11,-0.32,-0.34,-0.61,
5.065,1.02,-0.69,1.11,-0.32,-0.34,-0.61,
5.076,1.02,-0.69,1.11,-0.02,-0.27,-0.68,
5.077,1.02,-0.69,1.11,-0.02,-0.27,-0.68,
5.077,1.43,1.12,1.10,-0.02,-0.27,-0.68,
5.078,1.43,1.12,1.10,-0.02,-0.27,-0.68,
5.082,1.43,1.12,1.10,0.49,-0.02,-0.67,
5.083,1.43,1.12,1.10,0.49,-0.02,-0.67,
5.083,1.32,-0.39,0.94,0.49,-0.02,-0.67,
5.084,1.32,-0.39,0.94,0.49,-0.02,-0.67,
5.091,1.32,-0.39,0.94,0.65,0.09,-0.62,
5.092,1.32,-0.39,0.94,0.65,0.09,-0.62,
5.092,-0.10,-0.29,0.57,0.65,0.09,-0.62,
5.093,-0.10,-0.29,0.57,0.65,0.09,-0.62,
5.096,-0.10,-0.29,0.57,0.65,0.09,-0.62,
5.096,-0.10,-0.29,0.57,0.65,0.09,-0.62,
5.096,-0.10,-0.29,0.57,0.65,0.09,-0.62,
5.097,-0.10,-0.29,0.57,0.65,0.09,-0.62,
5.105,-0.10,-0.29,0.57,0.72,0.21,-0.53,
5.107,-0.10,-0.29,0.57,0.72,0.21,-0.53,
5.108,-0.45,-0.43,-0.57,0.72,0.21,-0.53,
5.109,-0.45,-0.43,-0.57,0.72,0.21,-0.53,
5.116,-0.45,-0.43,-0.57,0.67,0.34,-0.34,
5.118,-0.45,-0.43,-0.57,0.67,0.34,-0.34,
5.119,-0.47,0.17,-1.18,0.67,0.34,-0.34,
5.119,-0.47,0.17,-1.18,0.67,0.34,-0.34,
5.124,-0.47,0.17,-1.18,0.47,0.49,-0.03,
5.125,-0.47,0.17,-1.18,0.47,0.49,-0.03,
5.126,-0.83,0.10,-1.52,0.47,0.49,-0.03,
5.127,-0.83,0.10,-1.52,0.47,0.49,-0.03,
5.133,-0.83,0.10,-1.52,0.12,0.62,0.34,
5.135,-0.83,0.10,-1.52,0.12,0.62,0.34,
5.136,-0.83,0.40,-1.68,0.12,0.62,0.34,
5.136,-0.83,0.40,-1.68,0.12,0.62,0.34,
5.143,-0.83,0.40,-1.68,-0.31,0.68,0.68,
5.144,-0.83,0.40,-1.68,-0.31,0.68,0.68,
5.144,-0.68,0.47,-1.62,-0.31,0.68,0.68,
5.144,-0.68,0.47,-1.62,-0.31,0.68,0.68,
5.153,-0.68,0.47,-1.62,-0.71,0.70,0.92,
5.153,-0.68,0.47,-1.62,-0.71,0.70,0.92,
5.154,-0.66,0.37,-1.50,-0.71,0.70,0.92,
5.154,-0.66,0.37,-1.50,-0.71,0.70,0.92,
5.162,-0.66,0.37,-1.50,-1.00,0.69,1.07,
5.163,-0.66,0.37,-1.50,-1.00,0.69,1.07,
5.163,-0.16,0.52,-1.44,-1.00,0.69,1.07,
5.164,-0.16,0.52,-1.44,-1.00,0.69,1.07,
5.172,-0.16,0.52,-1.44,-1.16,0.65,1.10,
5.173,-0.16,0.52,-1.44,-1.16,0.65,1.10,
5.173,-0.11,0.13,-1.41,-1.16,0.65,1.10,
5.174,-0.11,0.13,-1.41,-1.16,0.65,1.10,
5.182,-0.11,0.13,-1.41,-1.20,0.58,1.01,
5.182,-0.11,0.13,-1.41,-1.20,0.58,1.01,
5.182,0.44,0.34,-1.36,-1.20,0.58,1.01,
5.183,0.44,0.34,-1.36,-1.20,0.58,1.01,
5.191,0.44,0.34,-1.36,-1.17,0.48,0.81,
5.193,0.44,0.34,-1.36,-1.17,0.48,0.81,
5.194,0.48,0.01,-1.26,-1.17,0.48,0.81,
5.195,0.48,0.01,-1.26,-1.17,0.48,0.81,
5.201,0.48,0.01,-1.26,-1.17,0.48,0.81,
5.204,0.48,0.01,-1.26,-1.17,0.48,0.81,
5.205,0.48,0.01,-1.26,-1.17,0.48,0.81,
5.206,0.48,0.01,-1.26,-1.17,0.48,0.81,
5.209,0.48,0.01,-1.26,-1.09,0.37,0.53,
5.211,0.48,0.01,-1.26,-1.09,0.37,0.53,
5.216,0.94,0.28,-0.93,-1.09,0.37,0.53,
5.217,0.94,0.28,-0.93,-1.09,0.37,0.53,
5.22,0.94,0.28,-0.93,-0.96,0.27,0.20,
5.221,0.94,0.28,-0.93,-0.96,0.27,0.20,
5.221,1.10,0.54,-0.87,-0.96,0.27,0.20,
5.221,1.10,0.54,-0.87,-0.96,0.27,0.20,
5.228,1.10,0.54,-0.87,-0.79,0.17,-0.14,
5.229,1.10,0.54,-0.87,-0.79,0.17,-0.14,
5.229,1.21,0.67,-0.82,-0.79,0.17,-0.14,
5.229,1.21,0.67,-0.82,-0.79,0.17,-0.14,
5.238,1.21,0.67,-0.82,-0.59,0.08,-0.47,
5.24,1.21,0.67,-0.82,-0.59,0.08,-0.47,
5.241,1.00,0.63,-0.81,-0.59,0.08,-0.47,
5.242,1.00,0.63,-0.81,-0.59,0.08,-0.47,
5.247,1.00,0.63,-0.81,-0.39,0.01,-0.74,
5.248,1.00,0.63,-0.81,-0.39,0.01,-0.74,
5.249,1.09,0.83,-0.81,-0.39,0.01,-0.74,
5.25,1.09,0.83,-0.81,-0.39,0.01,-0.74,
5.262,1.09,0.83,-0.81,-0.22,-0.04,-0.93,
5.264,1.09,0.83,-0.81,-0.22,-0.04,-0.93,
5.265,0.64,0.57,-0.75,-0.22,-0.04,-0.93,
5.266,0.64,0.57,-0.75,-0.22,-0.04,-0.93,
5.267,0.64,0.57,-0.75,-0.09,-0.07,-1.02,
5.268,0.64,0.57,-0.75,-0.09,-0.07,-1.02,
5.269,0.72,0.89,-0.71,-0.09,-0.07,-1.02,
5.27,0.72,0.89,-0.71,-0.09,-0.07,-1.02,
5.277,0.72,0.89,-0.71,0.01,-0.05,-1.03,
5.279,0.72,0.89,-0.71,0.01,-0.05,-1.03,
5.28,0.30,0.64,-0.63,0.01,-0.05,-1.03,
5.28,0.30,0.64,-0.63,0.01,-0.05,-1.03,
5.285,0.30,0.64,-0.63,0.08,0.01,-0.95,
5.287,0.30,0.64,-0.63,0.08,0.01,-0.95,
5.288,0.37,0.99,-0.57,0.08,0.01,-0.95,
5.289,0.37,0.99,-0.57,0.08,0.01,-0.95,
5.295,0.37,0.99,-0.57,0.13,0.11,-0.82,
5.296,0.37,0.99,-0.57,0.13,0.11,-0.82,
5.297,0.18,0.88,-0.49,0.13,0.11,-0.82,
5.297,0.18,0.88,-0.49,0.13,0.11,-0.82,
5.306,0.18,0.88,-0.49,0.18,0.20,-0.65,
5.307,0.18,0.88,-0.49,0.18,0.20,-0.65,
5.307,0.16,1.07,-0.40,0.18,0.20,-0.65,
5.307,0.16,1.07,-0.40,0.18,0.20,-0.65,
5.316,0.16,1.07,-0.40,0.23,0.28,-0.49,
5.319,0.16,1.07,-0.40,0.23,0.28,-0.49,
5.32,0.28,1.14,-0.28,0.23,0.28,-0.49,
5.321,0.28,1.14,-0.28,0.23,0.28,-0.49,
5.326,0.28,1.14,-0.28,0.28,0.35,-0.35,
5.328,0.28,1.14,-0.28,0.28,0.35,-0.35,
5.329,0.07,0.94,-0.13,0.28,0.35,-0.35,
5.33,0.07,0.94,-0.13,0.28,0.35,-0.35,
5.333,0.07,0.94,-0.13,0.33,0.41,-0.25,
5.336,0.07,0.94,-0.13,0.33,0.41,-0.25,
5.337,0.32,1.05,0.04,0.33,0.41,-0.25,
5.338,0.32,1.05,0.04,0.33,0.41,-0.25,
5.345,0.32,1.05,0.04,0.40,0.48,-0.19,
5.347,0.32,1.05,0.04,0.40,0.48,-0.19,
5.348,0.00,0.55,0.19,0.40,0.48,-0.19,
5.35,0.00,0.55,0.19,0.40,0.48,-0.19,
5.373,0.00,0.55,0.19,0.47,0.55,-0.16,
5.375,0.00,0.55,0.19,0.47,0.55,-0.16,
5.375,0.25,0.68,0.34,0.47,0.55,-0.16,
5.376,0.25,0.68,0.34,0.47,0.55,-0.16,
5.377,0.25,0.68,0.34,0.55,0.61,-0.15,
5.379,0.25,0.68,0.34,0.55,0.61,-0.15,
5.38,-0.03,0.22,0.48,0.55,0.61,-0.15,
5.38,-0.03,0.22,0.48,0.55,0.61,-0.15,
5.382,-0.03,0.22,0.48,0.62,0.64,-0.13,
5.383,-0.03,0.22,0.48,0.62,0.64,-0.13,
5.384,0.01,0.37,0.67,0.62,0.64,-0.13,
5.385,0.01,0.37,0.67,0.62,0.64,-0.13,
5.387,0.01,0.37,0.67,0.68,0.62,-0.10,
5.388,0.01,0.37,0.67,0.68,0.62,-0.10,
5.388,-0.16,0.21,0.93,0.68,0.62,-0.10,
5.388,-0.16,0.21,0.93,0.68,0.62,-0.10,
5.391,-0.16,0.21,0.93,0.68,0.62,-0.10,
5.392,-0.16,0.21,0.93,0.68,0.62,-0.10,
5.393,-0.16,0.21,0.93,0.68,0.62,-0.10,
5.394,-0.16,0.21,0.93,0.68,0.62,-0.10,
5.401,-0.16,0.21,0.93,0.74,0.58,-0.05,
5.402,-0.16,0.21,0.93,0.74,0.58,-0.05,
5.403,-0.26,0.33,1.32,0.74,0.58,-0.05,
5.403,-0.26,0.33,1.32,0.74,0.58,-0.05,
5.409,-0.26,0.33,1.32,0.81,0.55,0.00,
5.41,-0.26,0.33,1.32,0.81,0.55,0.00,
5.41,-0.60,-0.03,1.41,0.81,0.55,0.00,
5.41,-0.60,-0.03,1.41,0.81,0.55,0.00,
5.422,-0.60,-0.03,1.41,0.91,0.56,0.05,
5.424,-0.60,-0.03,1.41,0.91,0.56,0.05,
5.425,-0.24,0.24,1.38,0.91,0.56,0.05,
5.426,-0.24,0.24,1.38,0.91,0.56,0.05,
5.429,-0.24,0.24,1.38,1.00,0.59,0.11,
5.429,-0.24,0.24,1.38,1.00,0.59,0.11,
5.43,-0.54,-1.35,1.26,1.00,0.59,0.11,
5.43,-0.54,-1.35,1.26,1.00,0.59,0.11,
5.439,-0.54,-1.35,1.26,1.04,0.59,0.17,
5.44,-0.54,-1.35,1.26,1.04,0.59,0.17,
5.44,-0.35,-0.93,1.13,1.04,0.59,0.17,
5.44,-0.35,-0.93,1.13,1.04,0.59,0.17,
5.447,-0.35,-0.93,1.13,0.99,0.54,0.23,
5.447,-0.35,-0.93,1.13,0.99,0.54,0.23,
5.451,-0.41,-2.27,1.04,0.99,0.54,0.23,
5.451,-0.41,-2.27,1.04,0.99,0.54,0.23,
5.457,-0.41,-2.27,1.04,0.83,0.41,0.27,
5.458,-0.41,-2.27,1.04,0.83,0.41,0.27,
5.458,-0.54,-2.19,0.98,0.83,0.41,0.27,
5.459,-0.54,-2.19,0.98,0.83,0.41,0.27,
5.469,-0.54,-2.19,0.98,0.60,0.25,0.29,
5.47,-0.54,-2.19,0.98,0.60,0.25,0.29,
5.471,-0.24,-2.07,0.99,0.60,0.25,0.29,
5.471,-0.24,-2.07,0.99,0.60,0.25,0.29,
5.475,-0.24,-2.07,0.99,0.36,0.08,0.30,
5.476,-0.24,-2.07,0.99,0.36,0.08,0.30,
5.476,-0.55,-2.48,1.05,0.36,0.08,0.30,
5.476,-0.55,-2.48,1.05,0.36,0.08,0.30,
5.486,-0.55,-2.48,1.05,0.15,-0.09,0.31,
5.487,-0.55,-2.48,1.05,0.15,-0.09,0.31,
5.488,-0.12,-2.03,1.11,0.15,-0.09,0.31,
5.488,-0.12,-2.03,1.11,0.15,-0.09,0.31,
5.496,-0.12,-2.03,1.11,0.01,-0.25,0.30,
5.498,-0.12,-2.03,1.11,0.01,-0.25,0.30,
5.501,-0.37,-2.27,1.24,0.01,-0.25,0.30,
5.502,-0.37,-2.27,1.24,0.01,-0.25,0.30,
5.507,-0.37,-2.27,1.24,-0.08,-0.40,0.27,
5.509,-0.37,-2.27,1.24,-0.08,-0.40,0.27,
5.509,-0.25,-1.91,1.46,-0.08,-0.40,0.27,
5.51,-0.25,-1.91,1.46,-0.08,-0.40,0.27,
5.524,-0.25,-1.91,1.46,-0.10,-0.50,0.23,
5.526,-0.25,-1.91,1.46,-0.10,-0.50,0.23,
5.527,-0.20,-1.95,1.73,-0.10,-0.50,0.23,
5.528,-0.20,-1.95,1.73,-0.10,-0.50,0.23,
5.53,-0.20,-1.95,1.73,-0.07,-0.53,0.18,
5.533,-0.20,-1.95,1.73,-0.07,-0.53,0.18,
5.534,-0.50,-2.17,1.96,-0.07,-0.53,0.18,
5.536,-0.50,-2.17,1.96,-0.07,-0.53,0.18,
5.538,-0.50,-2.17,1.96,0.03,-0.48,0.12,
5.54,-0.50,-2.17,1.96,0.03,-0.48,0.12,
5.541,-0.26,-2.01,2.04,0.03,-0.48,0.12,
5.542,-0.26,-2.01,2.04,0.03,-0.48,0.12,
5.544,-0.26,-2.01,2.04,0.17,-0.37,0.07,
5.545,-0.26,-2.01,2.04,0.17,-0.37,0.07,
5.546,-1.96,-2.64,1.74,0.17,-0.37,0.07,
5.548,-1.96,-2.64,1.74,0.17,-0.37,0.07,
5.56,-1.96,-2.64,1.74,0.30,-0.23,0.07,
5.564,-1.96,-2.64,1.74,0.30,-0.23,0.07,
5.566,-1.64,-2.52,-0.02,0.30,-0.23,0.07,
5.568,-1.64,-2.52,-0.02,0.30,-0.23,0.07,
5.57,-1.64,-2.52,-0.02,0.34,-0.08,0.18,
5.572,-1.64,-2.52,-0.02,0.34,-0.08,0.18,
5.573,-3.63,-4.27,-0.38,0.34,-0.08,0.18,
5.575,-3.63,-4.27,-0.38,0.34,-0.08,0.18,
5.576,-3.63,-4.27,-0.38,0.20,0.09,0.42,
5.577,-3.63,-4.27,-0.38,0.20,0.09,0.42,
5.579,-3.68,-2.84,-0.92,0.20,0.09,0.42,
5.58,-3.68,-2.84,-0.92,0.20,0.09,0.42,
5.581,-3.68,-2.84,-0.92,-0.11,0.31,0.79,
5.584,-3.68,-2.84,-0.92,-0.11,0.31,0.79,
5.586,-3.63,-2.94,-1.30,-0.11,0.31,0.79,
5.588,-3.63,-2.94,-1.30,-0.11,0.31,0.79,
5.604,-3.63,-2.94,-1.30,-0.51,0.54,1.21,
5.606,-3.63,-2.94,-1.30,-0.51,0.54,1.21,
5.607,-3.87,-3.17,-1.51,-0.51,0.54,1.21,
5.608,-3.87,-3.17,-1.51,-0.51,0.54,1.21,
5.609,-3.87,-3.17,-1.51,-0.51,0.54,1.21,
5.611,-3.87,-3.17,-1.51,-0.51,0.54,1.21,
5.612,-3.87,-3.17,-1.51,-0.51,0.54,1.21,
5.614,-3.87,-3.17,-1.51,-0.51,0.54,1.21,
5.615,-3.87,-3.17,-1.51,-0.89,0.75,1.55,
5.617,-3.87,-3.17,-1.51,-0.89,0.75,1.55,
5.618,-2.08,-2.04,-1.62,-0.89,0.75,1.55,
5.619,-2.08,-2.04,-1.62,-0.89,0.75,1.55,
5.626,-2.08,-2.04,-1.62,-1.40,0.78,1.64,
5.628,-2.08,-2.04,-1.62,-1.40,0.78,1.64,
5.629,0.70,-0.31,-1.68,-1.40,0.78,1.64,
5.63,0.70,-0.31,-1.68,-1.40,0.78,1.64,
5.631,0.70,-0.31,-1.68,-1.40,0.78,1.64,
5.632,0.70,-0.31,-1.68,-1.40,0.78,1.64,
5.633,0.70,-0.31,-1.68,-1.40,0.78,1.64,
5.634,0.70,-0.31,-1.68,-1.40,0.78,1.64,
5.643,0.70,-0.31,-1.68,-1.55,0.43,1.25,
5.644,0.70,-0.31,-1.68,-1.55,0.43,1.25,
5.645,0.71,-0.89,-1.82,-1.55,0.43,1.25,
5.646,0.71,-0.89,-1.82,-1.55,0.43,1.25,
5.651,0.71,-0.89,-1.82,-1.65,-0.12,0.62,
5.653,0.71,-0.89,-1.82,-1.65,-0.12,0.62,
5.654,2.26,-0.57,-1.96,-1.65,-0.12,0.62,
5.655,2.26,-0.57,-1.96,-1.65,-0.12,0.62,
5.659,2.26,-0.57,-1.96,-1.65,-0.47,-0.08,
5.66,2.26,-0.57,-1.96,-1.65,-0.47,-0.08,
5.66,1.79,-0.92,-2.05,-1.65,-0.47,-0.08,
5.661,1.79,-0.92,-2.05,-1.65,-0.47,-0.08,
5.677,1.79,-0.92,-2.05,-1.59,-0.55,-0.74,
5.679,1.79,-0.92,-2.05,-1.59,-0.55,-0.74,
5.683,2.11,-0.41,-2.05,-1.59,-0.55,-0.74,
5.684,2.11,-0.41,-2.05,-1.59,-0.55,-0.74,
5.697,2.11,-0.41,-2.05,-1.54,-0.82,-1.30,
5.698,2.11,-0.41,-2.05,-1.54,-0.82,-1.30,
5.699,1.84,-0.60,-1.92,-1.54,-0.82,-1.30,
5.7,1.84,-0.60,-1.92,-1.54,-0.82,-1.30,
5.701,1.84,-0.60,-1.92,-1.48,-1.20,-1.75,
5.702,1.84,-0.60,-1.92,-1.48,-1.20,-1.75,
5.708,1.61,-0.43,-1.77,-1.48,-1.20,-1.75,
5.71,1.61,-0.43,-1.77,-1.48,-1.20,-1.75,
5.711,1.61,-0.43,-1.77,-1.37,-1.35,-2.02,
5.713,1.61,-0.43,-1.77,-1.37,-1.35,-2.02,
5.714,1.42,-0.40,-1.62,-1.37,-1.35,-2.02,
5.715,1.42,-0.40,-1.62,-1.37,-1.35,-2.02,
5.716,1.42,-0.40,-1.62,-1.21,-1.28,-2.10,
5.717,1.42,-0.40,-1.62,-1.21,-1.28,-2.10,
5.717,-0.49,-1.67,-1.50,-1.21,-1.28,-2.10,
5.718,-0.49,-1.67,-1.50,-1.21,-1.28,-2.10,
5.719,-0.49,-1.67,-1.50,-1.02,-1.05,-1.98,
5.72,-0.49,-1.67,-1.50,-1.02,-1.05,-1.98,
5.721,-0.20,-1.31,-1.35,-1.02,-1.05,-1.98,
5.722,-0.20,-1.31,-1.35,-1.02,-1.05,-1.98,
5.723,-0.20,-1.31,-1.35,-0.81,-0.68,-1.65,
5.724,-0.20,-1.31,-1.35,-0.81,-0.68,-1.65,
5.725,-2.24,-3.34,-1.25,-0.81,-0.68,-1.65,
5.726,-2.24,-3.34,-1.25,-0.81,-0.68,-1.65,
5.733,-2.24,-3.34,-1.25,-0.61,-0.20,-1.08,
5.734,-2.24,-3.34,-1.25,-0.61,-0.20,-1.08,
5.735,-2.00,-2.90,-1.20,-0.61,-0.20,-1.08,
5.736,-2.00,-2.90,-1.20,-0.61,-0.20,-1.08,
5.742,-2.00,-2.90,-1.20,-0.43,0.36,-0.37,
5.743,-2.00,-2.90,-1.20,-0.43,0.36,-0.37,
5.744,-2.29,-3.11,-1.22,-0.43,0.36,-0.37,
5.745,-2.29,-3.11,-1.22,-0.43,0.36,-0.37,
5.758,-2.29,-3.11,-1.22,-0.26,0.97,0.35,
5.76,-2.29,-3.11,-1.22,-0.26,0.97,0.35,
5.761,-3.77,-3.28,-1.37,-0.26,0.97,0.35,
5.762,-3.77,-3.28,-1.37,-0.26,0.97,0.35,
5.778,-3.77,-3.28,-1.37,0.00,2.08,1.44,
5.78,-3.77,-3.28,-1.37,0.00,2.08,1.44,
5.781,-3.77,-3.28,-1.37,0.00,2.08,1.44,
5.782,-3.77,-3.28,-1.37,0.00,2.08,1.44,
5.784,-3.46,-3.00,-1.49,0.00,2.08,1.44,
5.785,-3.46,-3.00,-1.49,0.00,2.08,1.44,
5.786,-3.46,-3.00,-1.49,0.00,2.08,1.44,
5.787,-3.46,-3.00,-1.49,0.00,2.08,1.44,
5.788,-3.46,-3.00,-1.49,0.00,2.08,1.44,
5.788,-3.46,-3.00,-1.49,0.00,2.08,1.44,
5.789,-3.46,-3.00,-1.49,0.00,2.08,1.44,
5.79,-3.46,-3.00,-1.49,0.00,2.08,1.44,
5.791,-3.46,-3.00,-1.49,0.12,2.87,2.06,
5.792,-3.46,-3.00,-1.49,0.12,2.87,2.06,
5.793,-3.81,-2.77,-2.36,0.12,2.87,2.06,
5.794,-3.81,-2.77,-2.36,0.12,2.87,2.06,
5.802,-3.81,-2.77,-2.36,0.10,3.18,2.20,
5.803,-3.81,-2.77,-2.36,0.10,3.18,2.20,
5.804,-3.58,-1.24,-2.55,0.10,3.18,2.20,
5.805,-3.58,-1.24,-2.55,0.10,3.18,2.20,
5.808,-3.58,-1.24,-2.55,0.10,3.18,2.20,
5.81,-3.58,-1.24,-2.55,0.10,3.18,2.20,
5.811,-3.58,-1.24,-2.55,0.10,3.18,2.20,
5.812,-3.58,-1.24,-2.55,0.10,3.18,2.20,
5.818,-3.58,-1.24,-2.55,0.04,3.47,2.25,
5.82,-3.58,-1.24,-2.55,0.04,3.47,2.25,
5.821,-3.06,-1.58,-2.47,0.04,3.47,2.25,
5.822,-3.06,-1.58,-2.47,0.04,3.47,2.25,
5.828,-3.06,-1.58,-2.47,-0.02,3.73,2.23,
5.83,-3.06,-1.58,-2.47,-0.02,3.73,2.23,
5.831,-1.41,-0.25,-2.17,-0.02,3.73,2.23,
5.831,-1.41,-0.25,-2.17,-0.02,3.73,2.23,
5.837,-1.41,-0.25,-2.17,-0.07,3.87,2.13,
5.839,-1.41,-0.25,-2.17,-0.07,3.87,2.13,
5.84,-1.79,-0.72,-1.81,-0.07,3.87,2.13,
5.841,-1.79,-0.72,-1.81,-0.07,3.87,2.13,
5.857,-1.79,-0.72,-1.81,-0.10,3.83,1.90,
5.858,-1.79,-0.72,-1.81,-0.10,3.83,1.90,
5.859,-1.63,-0.35,-1.47,-0.10,3.83,1.90,
5.86,-1.63,-0.35,-1.47,-0.10,3.83,1.90,
5.861,-1.63,-0.35,-1.47,-0.08,3.65,1.56,
5.862,-1.63,-0.35,-1.47,-0.08,3.65,1.56,
5.863,-1.11,1.11,-1.09,-0.08,3.65,1.56,
5.864,-1.11,1.11,-1.09,-0.08,3.65,1.56,
5.873,-1.11,1.11,-1.09,0.00,3.41,1.20,
5.875,-1.11,1.11,-1.09,0.00,3.41,1.20,
5.876,-0.70,1.15,-0.77,0.00,3.41,1.20,
5.877,-0.70,1.15,-0.77,0.00,3.41,1.20,
5.878,-0.70,1.15,-0.77,0.14,3.16,0.88,
5.879,-0.70,1.15,-0.77,0.14,3.16,0.88,
5.88,0.80,1.32,-0.48,0.14,3.16,0.88,
5.881,0.80,1.32,-0.48,0.14,3.16,0.88,
5.886,0.80,1.32,-0.48,0.31,2.85,0.55,
5.888,0.80,1.32,-0.48,0.31,2.85,0.55,
5.889,1.22,1.28,-0.28,0.31,2.85,0.55,
5.89,1.22,1.28,-0.28,0.31,2.85,0.55,
5.896,1.22,1.28,-0.28,0.46,2.44,0.12,
5.897,1.22,1.28,-0.28,0.46,2.44,0.12,
5.898,1.51,0.83,-0.16,0.46,2.44,0.12,
5.9,1.51,0.83,-0.16,0.46,2.44,0.12,
5.906,1.51,0.83,-0.16,0.59,1.92,-0.44,
5.907,1.51,0.83,-0.16,0.59,1.92,-0.44,
5.908,1.91,0.41,-0.05,0.59,1.92,-0.44,
5.91,1.91,0.41,-0.05,0.59,1.92,-0.44,
5.916,1.91,0.41,-0.05,0.70,1.38,-1.05,
5.918,1.91,0.41,-0.05,0.70,1.38,-1.05,
5.918,2.50,0.22,0.04,0.70,1.38,-1.05,
5.919,2.50,0.22,0.04,0.70,1.38,-1.05,
5.926,2.50,0.22,0.04,0.79,0.92,-1.62,
5.927,2.50,0.22,0.04,0.79,0.92,-1.62,
5.932,2.96,-0.23,-2.01,0.79,0.92,-1.62,
5.933,2.96,-0.23,-2.01,0.79,0.92,-1.62,
5.935,2.96,-0.23,-2.01,0.78,0.56,-2.12,
5.936,2.96,-0.23,-2.01,0.78,0.56,-2.12,
5.937,3.49,-0.78,-4.01,0.78,0.56,-2.12,
5.938,3.49,-0.78,-4.01,0.78,0.56,-2.12,
5.942,3.49,-0.78,-4.01,0.49,0.25,-2.56,
5.944,3.49,-0.78,-4.01,0.49,0.25,-2.56,
5.946,3.98,-2.37,-4.37,0.49,0.25,-2.56,
5.947,3.98,-2.37,-4.37,0.49,0.25,-2.56,
5.953,3.98,-2.37,-4.37,-0.17,-0.07,-2.94,
5.955,3.98,-2.37,-4.37,-0.17,-0.07,-2.94,
5.956,4.31,-2.62,-4.86,-0.17,-0.07,-2.94,
5.957,4.31,-2.62,-4.86,-0.17,-0.07,-2.94,
5.962,4.31,-2.62,-4.86,-1.04,-0.30,-3.16,
5.964,4.31,-2.62,-4.86,-1.04,-0.30,-3.16,
5.965,4.34,-2.73,-4.49,-1.04,-0.30,-3.16,
5.966,4.34,-2.73,-4.49,-1.04,-0.30,-3.16,
5.985,4.34,-2.73,-4.49,-1.79,-0.48,-3.28,
5.986,4.34,-2.73,-4.49,-1.79,-0.48,-3.28,
5.987,3.97,-2.48,-2.36,-1.79,-0.48,-3.28,
5.988,3.97,-2.48,-2.36,-1.79,-0.48,-3.28,
5.989,3.97,-2.48,-2.36,-2.18,-0.68,-3.32,
5.989,3.97,-2.48,-2.36,-2.18,-0.68,-3.32,
5.99,2.36,-1.90,-1.80,-2.18,-0.68,-3.32,
5.99,2.36,-1.90,-1.80,-2.18,-0.68,-3.32,
5.991,2.36,-1.90,-1.80,-2.18,-0.68,-3.32,
5.991,2.36,-1.90,-1.80,-2.18,-0.68,-3.32,
5.992,2.36,-1.90,-1.80,-2.18,-0.68,-3.32,
5.992,2.36,-1.90,-1.80,-2.18,-0.68,-3.32,
6.011,2.36,-1.90,-1.80,-2.16,-0.73,-3.15,
6.012,2.36,-1.90,-1.80,-2.16,-0.73,-3.15,
6.012,0.35,1.46,-0.97,-2.16,-0.73,-3.15,
6.013,0.35,1.46,-0.97,-2.16,-0.73,-3.15,
6.013,0.35,1.46,-0.97,-1.84,-0.57,-2.69,
6.014,0.35,1.46,-0.97,-1.84,-0.57,-2.69,
6.015,-0.16,1.82,-0.57,-1.84,-0.57,-2.69,
6.015,-0.16,1.82,-0.57,-1.84,-0.57,-2.69,
6.023,-0.16,1.82,-0.57,-1.39,-0.52,-1.93,
6.024,-0.16,1.82,-0.57,-1.39,-0.52,-1.93,
6.024,-0.72,3.57,-0.13,-1.39,-0.52,-1.93,
6.025,-0.72,3.57,-0.13,-1.39,-0.52,-1.93,
6.028,-0.72,3.57,-0.13,-0.93,-0.40,-0.99,
6.029,-0.72,3.57,-0.13,-0.93,-0.40,-0.99,
6.029,-1.28,3.88,0.27,-0.93,-0.40,-0.99,
6.03,-1.28,3.88,0.27,-0.93,-0.40,-0.99,
6.037,-1.28,3.88,0.27,-0.49,-0.09,0.02,
6.037,-1.28,3.88,0.27,-0.49,-0.09,0.02,
6.038,-1.77,4.30,0.53,-0.49,-0.09,0.02,
6.038,-1.77,4.30,0.53,-0.49,-0.09,0.02,
6.052,-1.77,4.30,0.53,-0.06,0.14,1.00,
6.053,-1.77,4.30,0.53,-0.06,0.14,1.00,
6.053,-2.11,4.66,0.66,-0.06,0.14,1.00,
6.054,-2.11,4.66,0.66,-0.06,0.14,1.00,
6.056,-2.11,4.66,0.66,0.37,0.29,1.96,
6.057,-2.11,4.66,0.66,0.37,0.29,1.96,
6.057,-2.17,4.95,0.75,0.37,0.29,1.96,
6.057,-2.17,4.95,0.75,0.37,0.29,1.96,
6.066,-2.17,4.95,0.75,0.80,0.36,2.87,
6.067,-2.17,4.95,0.75,0.80,0.36,2.87,
6.068,-2.01,5.08,0.85,0.80,0.36,2.87,
6.068,-2.01,5.08,0.85,0.80,0.36,2.87,
6.075,-2.01,5.08,0.85,1.18,0.36,3.67,
6.075,-2.01,5.08,0.85,1.18,0.36,3.67,
6.076,-1.69,5.11,0.87,1.18,0.36,3.67,
6.076,-1.69,5.11,0.87,1.18,0.36,3.67,
6.085,-1.69,5.11,0.87,1.48,0.27,4.28,
6.086,-1.69,5.11,0.87,1.48,0.27,4.28,
6.087,-1.33,5.04,0.71,1.48,0.27,4.28,
6.087,-1.33,5.04,0.71,1.48,0.27,4.28,
6.095,-1.33,5.04,0.71,1.66,0.10,4.61,
6.096,-1.33,5.04,0.71,1.66,0.10,4.61,
6.097,-0.95,4.90,0.34,1.66,0.10,4.61,
6.098,-0.95,4.90,0.34,1.66,0.10,4.61,
6.107,-0.95,4.90,0.34,1.70,-0.12,4.64,
6.108,-0.95,4.90,0.34,1.70,-0.12,4.64,
6.109,-0.57,4.77,-0.23,1.70,-0.12,4.64,
6.114,-0.57,4.77,-0.23,1.70,-0.12,4.64,
6.115,-0.57,4.77,-0.23,1.53,-0.34,4.39,
6.116,-0.57,4.77,-0.23,1.53,-0.34,4.39,
6.117,-0.17,4.64,-0.86,1.53,-0.34,4.39,
6.12,-0.17,4.64,-0.86,1.53,-0.34,4.39,
6.133,-0.17,4.64,-0.86,0.47,-0.63,3.18,
6.135,-0.17,4.64,-0.86,0.47,-0.63,3.18,
6.136,-0.17,4.64,-0.86,0.47,-0.63,3.18,
6.137,-0.17,4.64,-0.86,0.47,-0.63,3.18,
6.138,0.26,4.49,-1.47,0.47,-0.63,3.18,
6.139,0.26,4.49,-1.47,0.47,-0.63,3.18,
6.14,0.26,4.49,-1.47,0.47,-0.63,3.18,
6.141,0.26,4.49,-1.47,0.47,-0.63,3.18,
6.143,0.26,4.49,-1.47,-0.35,-0.68,2.63,
6.144,0.26,4.49,-1.47,-0.35,-0.68,2.63,
6.146,0.93,4.21,-2.55,-0.35,-0.68,2.63,
6.147,0.93,4.21,-2.55,-0.35,-0.68,2.63,
6.152,0.93,4.21,-2.55,-1.23,-0.70,2.34,
6.154,0.93,4.21,-2.55,-1.23,-0.70,2.34,
6.155,1.15,4.17,-2.88,-1.23,-0.70,2.34,
6.156,1.15,4.17,-2.88,-1.23,-0.70,2.34,
6.163,1.15,4.17,-2.88,-2.12,-0.70,1.65,
6.164,1.15,4.17,-2.88,-2.12,-0.70,1.65,
6.169,1.37,4.26,-3.00,-2.12,-0.70,1.65,
6.17,1.37,4.26,-3.00,-2.12,-0.70,1.65,
6.172,1.37,4.26,-3.00,-2.97,-0.72,0.55,
6.173,1.37,4.26,-3.00,-2.97,-0.72,0.55,
6.174,1.60,4.41,-3.00,-2.97,-0.72,0.55,
6.175,1.60,4.41,-3.00,-2.97,-0.72,0.55,
6.181,1.60,4.41,-3.00,-2.97,-0.72,0.55,
6.183,1.60,4.41,-3.00,-2.97,-0.72,0.55,
6.184,1.60,4.41,-3.00,-2.97,-0.72,0.55,
6.185,1.60,4.41,-3.00,-2.97,-0.72,0.55,
6.194,1.60,4.41,-3.00,-4.17,-0.86,-1.37,
6.195,1.60,4.41,-3.00,-4.17,-0.86,-1.37,
6.196,2.12,4.50,-3.13,-4.17,-0.86,-1.37,
6.197,2.12,4.50,-3.13,-4.17,-0.86,-1.37,
6.201,2.12,4.50,-3.13,-4.17,-0.86,-1.37,
6.207,2.12,4.50,-3.13,-4.17,-0.86,-1.37,
6.208,2.12,4.50,-3.13,-4.17,-0.86,-1.37,
6.209,2.12,4.50,-3.13,-4.17,-0.86,-1.37,
6.21,2.12,4.50,-3.13,-4.41,-0.94,-2.14,
6.211,2.12,4.50,-3.13,-4.41,-0.94,-2.14,
6.212,2.36,4.24,-3.78,-4.41,-0.94,-2.14,
6.213,2.36,4.24,-3.78,-4.41,-0.94,-2.14,
6.219,2.36,4.24,-3.78,-4.48,-1.01,-2.80,
6.219,2.36,4.24,-3.78,-4.48,-1.01,-2.80,
6.22,2.29,4.10,-4.08,-4.48,-1.01,-2.80,
6.22,2.29,4.10,-4.08,-4.48,-1.01,-2.80,
6.227,2.29,4.10,-4.08,-4.47,-1.06,-3.30,
6.227,2.29,4.10,-4.08,-4.47,-1.06,-3.30,
6.228,2.09,3.96,-4.30,-4.47,-1.06,-3.30,
6.228,2.09,3.96,-4.30,-4.47,-1.06,-3.30,
6.238,2.09,3.96,-4.30,-4.42,-1.11,-3.60,
6.239,2.09,3.96,-4.30,-4.42,-1.11,-3.60,
6.24,1.82,3.91,-4.40,-4.42,-1.11,-3.60,
6.241,1.82,3.91,-4.40,-4.42,-1.11,-3.60,
6.246,1.82,3.91,-4.40,-4.33,-1.17,-3.67,
6.247,1.82,3.91,-4.40,-4.33,-1.17,-3.67,
6.248,1.48,3.95,-4.38,-4.33,-1.17,-3.67,
6.249,1.48,3.95,-4.38,-4.33,-1.17,-3.67,
6.256,1.48,3.95,-4.38,-4.18,-1.23,-3.52,
6.257,1.48,3.95,-4.38,-4.18,-1.23,-3.52,
6.257,1.14,4.06,-4.20,-4.18,-1.23,-3.52,
6.257,1.14,4.06,-4.20,-4.18,-1.23,-3.52,
6.271,1.14,4.06,-4.20,-3.96,-1.30,-3.16,
6.273,1.14,4.06,-4.20,-3.96,-1.30,-3.16,
6.275,0.84,4.16,-4.09,-3.96,-1.30,-3.16,
6.276,0.84,4.16,-4.09,-3.96,-1.30,-3.16,
6.277,0.84,4.16,-4.09,-3.68,-1.36,-2.67,
6.278,0.84,4.16,-4.09,-3.68,-1.36,-2.67,
6.279,0.64,4.12,-4.39,-3.68,-1.36,-2.67,
6.28,0.64,4.12,-4.39,-3.68,-1.36,-2.67,
6.294,0.64,4.12,-4.39,-3.39,-1.42,-2.10,
6.295,0.64,4.12,-4.39,-3.39,-1.42,-2.10,
6.296,0.59,3.73,-6.16,-3.39,-1.42,-2.10,
6.297,0.59,3.73,-6.16,-3.39,-1.42,-2.10,
6.298,0.59,3.73,-6.16,-3.16,-1.50,-1.56,
6.299,0.59,3.73,-6.16,-3.16,-1.50,-1.56,
6.3,0.81,1.80,-7.76,-3.16,-1.50,-1.56,
6.301,0.81,1.80,-7.76,-3.16,-1.50,-1.56,
6.304,0.81,1.80,-7.76,-3.10,-1.62,-1.16,
6.306,0.81,1.80,-7.76,-3.10,-1.62,-1.16,
6.308,1.36,1.37,-8.02,-3.10,-1.62,-1.16,
6.309,1.36,1.37,-8.02,-3.10,-1.62,-1.16,
6.324,1.36,1.37,-8.02,-3.15,-1.73,-0.99,
6.326,1.36,1.37,-8.02,-3.15,-1.73,-0.99,
6.327,2.82,-0.29,-7.94,-3.15,-1.73,-0.99,
6.328,2.82,-0.29,-7.94,-3.15,-1.73,-0.99,
6.329,2.82,-0.29,-7.94,-3.11,-1.72,-1.06,
6.33,2.82,-0.29,-7.94,-3.11,-1.72,-1.06,
6.331,3.02,-0.78,-7.59,-3.11,-1.72,-1.06,
6.332,3.02,-0.78,-7.59,-3.11,-1.72,-1.06,
6.333,3.02,-0.78,-7.59,-2.82,-1.49,-1.27,
6.334,3.02,-0.78,-7.59,-2.82,-1.49,-1.27,
6.335,2.86,-1.22,-7.32,-2.82,-1.49,-1.27,
6.336,2.86,-1.22,-7.32,-2.82,-1.49,-1.27,
6.346,2.86,-1.22,-7.32,-2.30,-1.10,-1.48,
6.347,2.86,-1.22,-7.32,-2.30,-1.10,-1.48,
6.348,1.12,-1.25,-7.11,-2.30,-1.10,-1.48,
6.349,1.12,-1.25,-7.11,-2.30,-1.10,-1.48,
6.371,1.12,-1.25,-7.11,-1.20,-0.41,-1.35,
6.372,1.12,-1.25,-7.11,-1.20,-0.41,-1.35,
6.372,1.12,-1.25,-7.11,-1.20,-0.41,-1.35,
6.373,1.12,-1.25,-7.11,-1.20,-0.41,-1.35,
6.373,1.12,-1.25,-7.11,-1.20,-0.41,-1.35,
6.373,1.12,-1.25,-7.11,-1.20,-0.41,-1.35,
6.374,0.58,0.48,-6.51,-1.20,-0.41,-1.35,
6.374,0.58,0.48,-6.51,-1.20,-0.41,-1.35,
6.374,0.58,0.48,-6.51,-1.20,-0.41,-1.35,
6.375,0.58,0.48,-6.51,-1.20,-0.41,-1.35,
6.375,0.58,0.48,-6.51,-1.20,-0.41,-1.35,
6.375,0.58,0.48,-6.51,-1.20,-0.41,-1.35,
6.379,0.58,0.48,-6.51,-0.89,-0.30,-0.96,
6.38,0.58,0.48,-6.51,-0.89,-0.30,-0.96,
6.38,-1.58,4.56,-3.72,-0.89,-0.30,-0.96,
6.381,-1.58,4.56,-3.72,-0.89,-0.30,-0.96,
6.391,-1.58,4.56,-3.72,-0.84,-0.48,0.04,
6.392,-1.58,4.56,-3.72,-0.84,-0.48,0.04,
6.393,-1.65,4.64,-2.78,-0.84,-0.48,0.04,
6.393,-1.65,4.64,-2.78,-0.84,-0.48,0.04,
6.398,-1.65,4.64,-2.78,-0.84,-0.48,0.04,
6.399,-1.65,4.64,-2.78,-0.84,-0.48,0.04,
6.402,-1.65,4.64,-2.78,-0.84,-0.48,0.04,
6.403,-1.65,4.64,-2.78,-0.84,-0.48,0.04,
6.409,-1.65,4.64,-2.78,-0.99,-0.70,0.62,
6.409,-1.65,4.64,-2.78,-0.99,-0.70,0.62,
6.41,-0.79,2.74,-2.00,-0.99,-0.70,0.62,
6.41,-0.79,2.74,-2.00,-0.99,-0.70,0.62,
6.417,-0.79,2.74,-2.00,-1.09,-0.89,1.21,
6.42,-0.79,2.74,-2.00,-1.09,-0.89,1.21,
6.421,-0.35,2.18,-1.56,-1.09,-0.89,1.21,
6.422,-0.35,2.18,-1.56,-1.09,-0.89,1.21,
6.431,-0.35,2.18,-1.56,-0.98,-0.94,1.66,
6.434,-0.35,2.18,-1.56,-0.98,-0.94,1.66,
6.435,-0.11,0.31,-1.16,-0.98,-0.94,1.66,
6.435,-0.11,0.31,-1.16,-0.98,-0.94,1.66,
6.44,-0.11,0.31,-1.16,-0.58,-0.76,1.87,
6.441,-0.11,0.31,-1.16,-0.58,-0.76,1.87,
6.442,-0.18,-0.34,-0.75,-0.58,-0.76,1.87,
6.444,-0.18,-0.34,-0.75,-0.58,-0.76,1.87,
6.451,-0.18,-0.34,-0.75,0.08,-0.42,1.86,
6.453,-0.18,-0.34,-0.75,0.08,-0.42,1.86,
6.454,-0.45,-1.02,-0.42,0.08,-0.42,1.86,
6.456,-0.45,-1.02,-0.42,0.08,-0.42,1.86,
6.461,-0.45,-1.02,-0.42,0.84,-0.03,1.73,
6.463,-0.45,-1.02,-0.42,0.84,-0.03,1.73,
6.464,-0.70,-1.53,0.03,0.84,-0.03,1.73,
6.465,-0.70,-1.53,0.03,0.84,-0.03,1.73,
6.476,-0.70,-1.53,0.03,1.55,0.31,1.56,
6.477,-0.70,-1.53,0.03,1.55,0.31,1.56,
6.478,-0.78,-1.79,0.78,1.55,0.31,1.56,
6.479,-0.78,-1.79,0.78,1.55,0.31,1.56,
6.48,-0.78,-1.79,0.78,2.12,0.54,1.43,
6.481,-0.78,-1.79,0.78,2.12,0.54,1.43,
6.482,-0.62,-1.83,2.57,2.12,0.54,1.43,
6.483,-0.62,-1.83,2.57,2.12,0.54,1.43,
6.488,-0.62,-1.83,2.57,2.59,0.70,1.33,
6.49,-0.62,-1.83,2.57,2.59,0.70,1.33,
6.491,-0.36,-1.80,3.06,2.59,0.70,1.33,
6.492,-0.36,-1.80,3.06,2.59,0.70,1.33,
6.493,-0.36,-1.80,3.06,3.04,0.83,1.27,
6.495,-0.36,-1.80,3.06,3.04,0.83,1.27,
6.496,-0.19,-1.75,3.39,3.04,0.83,1.27,
6.497,-0.19,-1.75,3.39,3.04,0.83,1.27,
6.504,-0.19,-1.75,3.39,3.48,0.80,1.18,
6.506,-0.19,-1.75,3.39,3.48,0.80,1.18,
6.507,-0.22,-1.71,3.46,3.48,0.80,1.18,
6.508,-0.22,-1.71,3.46,3.48,0.80,1.18,
6.515,-0.22,-1.71,3.46,3.84,0.62,1.04,
6.517,-0.22,-1.71,3.46,3.84,0.62,1.04,
6.518,-0.37,-1.70,3.43,3.84,0.62,1.04,
6.519,-0.37,-1.70,3.43,3.84,0.62,1.04,
6.523,-0.37,-1.70,3.43,4.03,0.48,0.88,
6.524,-0.37,-1.70,3.43,4.03,0.48,0.88,
6.525,-0.44,-1.72,3.49,4.03,0.48,0.88,
6.526,-0.44,-1.72,3.49,4.03,0.48,0.88,
6.535,-0.44,-1.72,3.49,4.04,0.40,0.75,
6.537,-0.44,-1.72,3.49,4.04,0.40,0.75,
6.537,-0.32,-1.76,3.63,4.04,0.40,0.75,
6.538,-0.32,-1.76,3.63,4.04,0.40,0.75,
6.552,-0.32,-1.76,3.63,3.91,0.37,0.65,
6.554,-0.32,-1.76,3.63,3.91,0.37,0.65,
6.556,-0.02,-1.89,3.69,3.91,0.37,0.65,
6.557,-0.02,-1.89,3.69,3.91,0.37,0.65,
6.558,-0.02,-1.89,3.69,3.70,0.47,0.57,
6.559,-0.02,-1.89,3.69,3.70,0.47,0.57,
6.561,0.44,-2.11,3.51,3.70,0.47,0.57,
6.562,0.44,-2.11,3.51,3.70,0.47,0.57,
6.573,0.44,-2.11,3.51,3.44,0.65,0.46,
6.575,0.44,-2.11,3.51,3.44,0.65,0.46,
6.576,0.88,-2.42,3.09,3.44,0.65,0.46,
6.577,0.88,-2.42,3.09,3.44,0.65,0.46,
6.578,0.88,-2.42,3.09,3.14,0.77,0.28,
6.58,0.88,-2.42,3.09,3.14,0.77,0.28,
6.58,1.24,-2.78,2.49,3.14,0.77,0.28,
6.581,1.24,-2.78,2.49,3.14,0.77,0.28,
6.582,1.24,-2.78,2.49,3.14,0.77,0.28,
6.583,1.24,-2.78,2.49,3.14,0.77,0.28,
6.584,1.24,-2.78,2.49,3.14,0.77,0.28,
6.585,1.24,-2.78,2.49,3.14,0.77,0.28,
6.594,1.24,-2.78,2.49,2.77,0.81,-0.01,
6.596,1.24,-2.78,2.49,2.77,0.81,-0.01,
6.597,1.73,-3.45,1.73,2.77,0.81,-0.01,
6.598,1.73,-3.45,1.73,2.77,0.81,-0.01,
6.606,1.73,-3.45,1.73,2.30,0.78,-0.36,
6.608,1.73,-3.45,1.73,2.30,0.78,-0.36,
6.609,1.81,-3.68,1.78,2.30,0.78,-0.36,
6.61,1.81,-3.68,1.78,2.30,0.78,-0.36,
6.611,1.81,-3.68,1.78,1.78,0.67,-0.74,
6.612,1.81,-3.68,1.78,1.78,0.67,-0.74,
6.613,1.82,-3.80,2.12,1.78,0.67,-0.74,
6.613,1.82,-3.80,2.12,1.78,0.67,-0.74,
6.627,1.82,-3.80,2.12,1.28,0.54,-1.08,
6.628,1.82,-3.80,2.12,1.28,0.54,-1.08,
6.629,1.75,-3.77,2.60,1.28,0.54,-1.08,
6.63,1.75,-3.77,2.60,1.28,0.54,-1.08,
6.631,1.75,-3.77,2.60,0.92,0.42,-1.31,
6.632,1.75,-3.77,2.60,0.92,0.42,-1.31,
6.633,1.62,-3.58,3.08,0.92,0.42,-1.31,
6.634,1.62,-3.58,3.08,0.92,0.42,-1.31,
6.639,1.62,-3.58,3.08,0.75,0.36,-1.40,
6.64,1.62,-3.58,3.08,0.75,0.36,-1.40,
6.646,1.48,-3.22,3.46,0.75,0.36,-1.40,
6.647,1.48,-3.22,3.46,0.75,0.36,-1.40,
6.653,1.48,-3.22,3.46,0.84,0.41,-1.25,
6.654,1.48,-3.22,3.46,0.84,0.41,-1.25,
6.656,1.39,-2.68,3.60,0.84,0.41,-1.25,
6.656,1.39,-2.68,3.60,0.84,0.41,-1.25,
6.661,1.39,-2.68,3.60,0.98,0.46,-1.08,
6.663,1.39,-2.68,3.60,0.98,0.46,-1.08,
6.664,1.32,-2.16,3.60,0.98,0.46,-1.08,
6.664,1.32,-2.16,3.60,0.98,0.46,-1.08,
6.683,1.32,-2.16,3.60,1.10,0.50,-0.90,
6.684,1.32,-2.16,3.60,1.10,0.50,-0.90,
6.685,1.32,-2.16,3.60,1.10,0.50,-0.90,
6.686,1.32,-2.16,3.60,1.10,0.50,-0.90,
6.687,1.45,-1.71,3.09,1.10,0.50,-0.90,
6.688,1.45,-1.71,3.09,1.10,0.50,-0.90,
6.689,1.45,-1.71,3.09,1.10,0.50,-0.90,
6.69,1.45,-1.71,3.09,1.10,0.50,-0.90,
6.695,1.45,-1.71,3.09,1.07,0.42,-0.65,
6.696,1.45,-1.71,3.09,1.07,0.42,-0.65,
6.697,1.45,-1.71,3.09,1.07,0.42,-0.65,
6.698,1.45,-1.71,3.09,1.07,0.42,-0.65,
6.699,2.10,-1.45,0.77,1.07,0.42,-0.65,
6.7,2.10,-1.45,0.77,1.07,0.42,-0.65,
6.7,2.10,-1.45,0.77,1.07,0.42,-0.65,
6.701,2.10,-1.45,0.77,1.07,0.42,-0.65,
6.707,2.10,-1.45,0.77,0.78,0.41,-0.65,
6.709,2.10,-1.45,0.77,0.78,0.41,-0.65,
6.71,1.95,-1.39,2.97,0.78,0.41,-0.65,
6.711,1.95,-1.39,2.97,0.78,0.41,-0.65,
6.716,1.95,-1.39,2.97,0.39,0.26,-0.51,
6.717,1.95,-1.39,2.97,0.39,0.26,-0.51,
6.719,0.27,-1.20,4.73,0.39,0.26,-0.51,
6.72,0.27,-1.20,4.73,0.39,0.26,-0.51,
6.726,0.27,-1.20,4.73,0.17,-0.04,-0.36,
6.727,0.27,-1.20,4.73,0.17,-0.04,-0.36,
6.728,0.25,-0.81,6.14,0.17,-0.04,-0.36,
6.728,0.25,-0.81,6.14,0.17,-0.04,-0.36,
6.735,0.25,-0.81,6.14,0.40,-0.07,-0.26,
6.737,0.25,-0.81,6.14,0.40,-0.07,-0.26,
6.739,0.31,-0.45,6.09,0.40,-0.07,-0.26,
6.739,0.31,-0.45,6.09,0.40,-0.07,-0.26,
6.742,0.31,-0.45,6.09,1.06,0.20,0.05,
6.743,0.31,-0.45,6.09,1.06,0.20,0.05,
6.744,0.43,-0.14,5.78,1.06,0.20,0.05,
6.745,0.43,-0.14,5.78,1.06,0.20,0.05,
6.751,0.43,-0.14,5.78,1.06,0.20,0.05,
6.753,0.43,-0.14,5.78,1.06,0.20,0.05,
6.754,0.43,-0.14,5.78,1.06,0.20,0.05,
6.754,0.43,-0.14,5.78,1.06,0.20,0.05,
6.767,0.43,-0.14,5.78,2.41,0.73,0.60,
6.768,0.43,-0.14,5.78,2.41,0.73,0.60,
6.769,2.35,0.45,1.23,2.41,0.73,0.60,
6.769,2.35,0.45,1.23,2.41,0.73,0.60,
6.784,2.35,0.45,1.23,2.41,0.73,0.60,
6.785,2.35,0.45,1.23,2.41,0.73,0.60,
6.785,2.35,0.45,1.23,2.41,0.73,0.60,
6.785,2.35,0.45,1.23,2.41,0.73,0.60,
6.785,2.35,0.45,1.23,1.70,0.03,0.08,
6.786,2.35,0.45,1.23,1.70,0.03,0.08,
6.786,2.73,0.70,0.15,1.70,0.03,0.08,
6.786,2.73,0.70,0.15,1.70,0.03,0.08,
6.789,2.73,0.70,0.15,1.70,0.03,0.08,
6.789,2.73,0.70,0.15,1.70,0.03,0.08,
6.79,2.73,0.70,0.15,1.70,0.03,0.08,
6.79,2.73,0.70,0.15,1.70,0.03,0.08,
6.798,2.73,0.70,0.15,0.74,-0.73,-0.47,
6.798,2.73,0.70,0.15,0.74,-0.73,-0.47,
6.799,2.36,0.74,2.11,0.74,-0.73,-0.47,
6.799,2.36,0.74,2.11,0.74,-0.73,-0.47,
6.82,2.36,0.74,2.11,-0.47,-1.91,-1.34,
6.821,2.36,0.74,2.11,-0.47,-1.91,-1.34,
6.821,2.36,0.74,2.11,-0.47,-1.91,-1.34,
6.821,2.36,0.74,2.11,-0.47,-1.91,-1.34,
6.822,1.90,0.85,2.15,-0.47,-1.91,-1.34,
6.822,1.90,0.85,2.15,-0.47,-1.91,-1.34,
6.822,1.90,0.85,2.15,-0.47,-1.91,-1.34,
6.823,1.90,0.85,2.15,-0.47,-1.91,-1.34,
6.826,1.90,0.85,2.15,-0.46,-2.04,-1.47,
6.827,1.90,0.85,2.15,-0.46,-2.04,-1.47,
6.827,0.92,1.00,2.05,-0.46,-2.04,-1.47,
6.827,0.92,1.00,2.05,-0.46,-2.04,-1.47,
6.836,0.92,1.00,2.05,-0.22,-1.93,-1.38,
6.837,0.92,1.00,2.05,-0.22,-1.93,-1.38,
6.837,0.37,1.05,1.45,-0.22,-1.93,-1.38,
6.837,0.37,1.05,1.45,-0.22,-1.93,-1.38,
6.845,0.37,1.05,1.45,0.01,-1.70,-1.11,
6.845,0.37,1.05,1.45,0.01,-1.70,-1.11,
6.846,-0.18,1.09,0.72,0.01,-1.70,-1.11,
6.846,-0.18,1.09,0.72,0.01,-1.70,-1.11,
6.855,-0.18,1.09,0.72,0.09,-1.47,-0.68,
6.855,-0.18,1.09,0.72,0.09,-1.47,-0.68,
6.856,-0.65,1.16,0.15,0.09,-1.47,-0.68,
6.856,-0.65,1.16,0.15,0.09,-1.47,-0.68,
6.869,-0.65,1.16,0.15,-0.01,-1.27,-0.14,
6.869,-0.65,1.16,0.15,-0.01,-1.27,-0.14,
6.87,-1.07,1.22,-0.13,-0.01,-1.27,-0.14,
6.87,-1.07,1.22,-0.13,-0.01,-1.27,-0.14,
6.873,-1.07,1.22,-0.13,-0.27,-1.13,0.42,
6.874,-1.07,1.22,-0.13,-0.27,-1.13,0.42,
6.877,-1.35,1.28,-0.07,-0.27,-1.13,0.42,
6.878,-1.35,1.28,-0.07,-0.27,-1.13,0.42,
6.903,-1.35,1.28,-0.07,-0.58,-1.00,0.96,
6.904,-1.35,1.28,-0.07,-0.58,-1.00,0.96,
6.904,-1.53,1.36,0.25,-0.58,-1.00,0.96,
6.905,-1.53,1.36,0.25,-0.58,-1.00,0.96,
6.905,-1.53,1.36,0.25,-0.83,-0.83,1.43,
6.906,-1.53,1.36,0.25,-0.83,-0.83,1.43,
6.91,-1.60,1.42,0.70,-0.83,-0.83,1.43,
6.911,-1.60,1.42,0.70,-0.83,-0.83,1.43,
6.912,-1.60,1.42,0.70,-0.92,-0.56,1.82,
6.912,-1.60,1.42,0.70,-0.92,-0.56,1.82,
6.912,-1.52,1.45,1.18,-0.92,-0.56,1.82,
6.913,-1.52,1.45,1.18,-0.92,-0.56,1.82,
6.913,-1.52,1.45,1.18,-0.81,-0.19,2.11,
6.914,-1.52,1.45,1.18,-0.81,-0.19,2.11,
6.914,-1.43,1.38,1.54,-0.81,-0.19,2.11,
6.915,-1.43,1.38,1.54,-0.81,-0.19,2.11,
6.923,-1.43,1.38,1.54,-0.50,0.24,2.27,
6.925,-1.43,1.38,1.54,-0.50,0.24,2.27,
6.925,-1.17,1.18,1.70,-0.50,0.24,2.27,
6.926,-1.17,1.18,1.70,-0.50,0.24,2.27,
6.942,-1.17,1.18,1.70,-0.06,0.68,2.30,
6.944,-1.17,1.18,1.70,-0.06,0.68,2.30,
6.944,-0.63,1.14,1.68,-0.06,0.68,2.30,
6.944,-0.63,1.14,1.68,-0.06,0.68,2.30,
6.945,-0.63,1.14,1.68,0.41,1.00,2.15,
6.945,-0.63,1.14,1.68,0.41,1.00,2.15,
6.946,-0.21,1.00,1.57,0.41,1.00,2.15,
6.946,-0.21,1.00,1.57,0.41,1.00,2.15,
6.957,-0.21,1.00,1.57,0.81,1.12,1.81,
6.958,-0.21,1.00,1.57,0.81,1.12,1.81,
6.958,-0.03,0.57,1.51,0.81,1.12,1.81,
6.958,-0.03,0.57,1.51,0.81,1.12,1.81,
6.961,-0.03,0.57,1.51,1.07,1.03,1.31,
6.962,-0.03,0.57,1.51,1.07,1.03,1.31,
6.962,-0.23,0.02,1.56,1.07,1.03,1.31,
6.963,-0.23,0.02,1.56,1.07,1.03,1.31,
6.988,-0.23,0.02,1.56,1.27,0.62,0.33,
6.99,-0.23,0.02,1.56,1.27,0.62,0.33,
6.991,-0.23,0.02,1.56,1.27,0.62,0.33,
6.992,-0.23,0.02,1.56,1.27,0.62,0.33,
6.993,-0.23,0.02,1.56,1.27,0.62,0.33,
6.993,-0.23,0.02,1.56,1.27,0.62,0.33,
6.994,-0.90,-1.57,1.68,1.27,0.62,0.33,
6.995,-0.90,-1.57,1.68,1.27,0.62,0.33,
6.996,-0.90,-1.57,1.68,1.27,0.62,0.33,
6.997,-0.90,-1.57,1.68,1.27,0.62,0.33,
6.998,-0.90,-1.57,1.68,1.27,0.62,0.33,
6.999,-0.90,-1.57,1.68,1.27,0.62,0.33,
7.0,-0.90,-1.57,1.68,1.32,0.51,0.06,
7.001,-0.90,-1.57,1.68,1.32,0.51,0.06,
7.002,-0.65,1.29,1.91,1.32,0.51,0.06,
7.003,-0.65,1.29,1.91,1.32,0.51,0.06,
7.014,-0.65,1.29,1.91,1.36,0.54,-0.07,
7.016,-0.65,1.29,1.91,1.36,0.54,-0.07,
7.017,-0.39,1.52,1.90,1.36,0.54,-0.07,
7.017,-0.39,1.52,1.90,1.36,0.54,-0.07,
7.018,-0.39,1.52,1.90,1.36,0.54,-0.07,
7.019,-0.39,1.52,1.90,1.36,0.54,-0.07,
7.02,-0.39,1.52,1.90,1.36,0.54,-0.07,
7.021,-0.39,1.52,1.90,1.36,0.54,-0.07,
7.029,-0.39,1.52,1.90,1.34,0.55,-0.11,
7.03,-0.39,1.52,1.90,1.34,0.55,-0.11,
7.031,-0.62,1.14,2.19,1.34,0.55,-0.11,
7.031,-0.62,1.14,2.19,1.34,0.55,-0.11,
7.035,-0.62,1.14,2.19,1.31,0.54,-0.17,
7.037,-0.62,1.14,2.19,1.31,0.54,-0.17,
7.038,-0.99,-0.67,2.43,1.31,0.54,-0.17,
7.039,-0.99,-0.67,2.43,1.31,0.54,-0.17,
7.045,-0.99,-0.67,2.43,1.31,0.56,-0.20,
7.046,-0.99,-0.67,2.43,1.31,0.56,-0.20,
7.046,-1.21,-0.57,2.71,1.31,0.56,-0.20,
7.047,-1.21,-0.57,2.71,1.31,0.56,-0.20,
7.055,-1.21,-0.57,2.71,1.36,0.66,-0.16,
7.057,-1.21,-0.57,2.71,1.36,0.66,-0.16,
7.058,-0.66,0.01,3.03,1.36,0.66,-0.16,
7.059,-0.66,0.01,3.03,1.36,0.66,-0.16,
7.08,-0.66,0.01,3.03,1.45,0.79,-0.07,
7.081,-0.66,0.01,3.03,1.45,0.79,-0.07,
7.082,-0.79,-0.32,3.33,1.45,0.79,-0.07,
7.083,-0.79,-0.32,3.33,1.45,0.79,-0.07,
7.084,-0.79,-0.32,3.33,1.57,0.89,0.00,
7.086,-0.79,-0.32,3.33,1.57,0.89,0.00,
7.086,-0.87,-0.29,3.50,1.57,0.89,0.00,
7.087,-0.87,-0.29,3.50,1.57,0.89,0.00,
7.088,-0.87,-0.29,3.50,1.70,0.94,0.04,
7.089,-0.87,-0.29,3.50,1.70,0.94,0.04,
7.09,-0.31,1.14,3.51,1.70,0.94,0.04,
7.091,-0.31,1.14,3.51,1.70,0.94,0.04,
7.093,-0.31,1.14,3.51,1.82,0.94,0.04,
7.093,-0.31,1.14,3.51,1.82,0.94,0.04,
7.093,-0.61,-0.53,3.36,1.82,0.94,0.04,
7.094,-0.61,-0.53,3.36,1.82,0.94,0.04,
7.118,-0.61,-0.53,3.36,1.92,0.82,-0.03,
7.12,-0.61,-0.53,3.36,1.92,0.82,-0.03,
7.121,-0.61,-0.53,3.36,1.92,0.82,-0.03,
7.121,-0.61,-0.53,3.36,1.92,0.82,-0.03,
7.122,-0.22,1.03,3.10,1.92,0.82,-0.03,
7.122,-0.22,1.03,3.10,1.92,0.82,-0.03,
7.125,-0.22,1.03,3.10,1.92,0.82,-0.03,
7.126,-0.22,1.03,3.10,1.92,0.82,-0.03,
