
time,ax,ay,az,wx,wy,wz,
0.002,0.29,-0.01,-0.08,0.06,-0.33,0.29,
0.002,0.29,-0.01,-0.08,0.06,-0.33,0.29,
0.003,-0.00,-0.08,-0.59,0.06,-0.33,0.29,
0.003,-0.00,-0.08,-0.59,0.06,-0.33,0.29,
0.01,-0.00,-0.08,-0.59,0.05,-0.31,0.24,
0.011,-0.00,-0.08,-0.59,0.05,-0.31,0.24,
0.011,-0.26,-0.09,-0.85,0.05,-0.31,0.24,
0.011,-0.26,-0.09,-0.85,0.05,-0.31,0.24,
0.021,-0.26,-0.09,-0.85,0.06,-0.24,0.13,
0.021,-0.26,-0.09,-0.85,0.06,-0.24,0.13,
0.022,-0.45,-0.10,-0.89,0.06,-0.24,0.13,
0.022,-0.45,-0.10,-0.89,0.06,-0.24,0.13,
0.026,-0.45,-0.10,-0.89,0.09,-0.11,-0.01,
0.027,-0.45,-0.10,-0.89,0.09,-0.11,-0.01,
0.027,-0.46,-0.05,-0.76,0.09,-0.11,-0.01,
0.028,-0.46,-0.05,-0.76,0.09,-0.11,-0.01,
0.036,-0.46,-0.05,-0.76,0.14,0.03,-0.16,
0.037,-0.46,-0.05,-0.76,0.14,0.03,-0.16,
0.037,-0.23,0.05,-0.60,0.14,0.03,-0.16,
0.037,-0.23,0.05,-0.60,0.14,0.03,-0.16,
0.045,-0.23,0.05,-0.60,0.18,0.16,-0.30,
0.046,-0.23,0.05,-0.60,0.18,0.16,-0.30,
0.047,0.18,0.20,-0.48,0.18,0.16,-0.30,
0.047,0.18,0.20,-0.48,0.18,0.16,-0.30,
0.06,0.18,0.20,-0.48,0.20,0.22,-0.39,
0.061,0.18,0.20,-0.48,0.20,0.22,-0.39,
0.061,0.70,0.29,-0.37,0.20,0.22,-0.39,
0.062,0.70,0.29,-0.37,0.20,0.22,-0.39,
0.065,0.70,0.29,-0.37,0.20,0.22,-0.39,
0.065,0.70,0.29,-0.37,0.20,0.22,-0.39,
0.066,0.70,0.29,-0.37,0.20,0.22,-0.39,
0.066,0.70,0.29,-0.37,0.20,0.22,-0.39,
0.074,0.70,0.29,-0.37,0.22,0.19,-0.40,
0.075,0.70,0.29,-0.37,0.22,0.19,-0.40,
0.075,1.52,0.00,-0.06,0.22,0.19,-0.40,
0.076,1.52,0.00,-0.06,0.22,0.19,-0.40,
0.085,1.52,0.00,-0.06,0.22,0.04,-0.30,
0.085,1.52,0.00,-0.06,0.22,0.04,-0.30,
0.086,1.59,-0.36,0.22,0.22,0.04,-0.30,
0.086,1.59,-0.36,0.22,0.22,0.04,-0.30,
0.093,1.59,-0.36,0.22,0.17,-0.21,-0.10,
0.094,1.59,-0.36,0.22,0.17,-0.21,-0.10,
0.095,1.49,-0.65,0.56,0.17,-0.21,-0.10,
0.095,1.49,-0.65,0.56,0.17,-0.21,-0.10,
0.103,1.49,-0.65,0.56,0.04,-0.51,0.13,
0.103,1.49,-0.65,0.56,0.04,-0.51,0.13,
0.104,1.28,-0.81,0.86,0.04,-0.51,0.13,
0.104,1.28,-0.81,0.86,0.04,-0.51,0.13,
0.112,1.28,-0.81,0.86,-0.18,-0.75,0.30,
0.113,1.28,-0.81,0.86,-0.18,-0.75,0.30,
0.114,1.06,-0.86,1.07,-0.18,-0.75,0.30,
0.114,1.06,-0.86,1.07,-0.18,-0.75,0.30,
0.122,1.06,-0.86,1.07,-0.44,-0.89,0.37,
0.123,1.06,-0.86,1.07,-0.44,-0.89,0.37,
0.123,1.02,-0.78,1.13,-0.44,-0.89,0.37,
0.124,1.02,-0.78,1.13,-0.44,-0.89,0.37,
0.132,1.02,-0.78,1.13,-0.69,-0.92,0.33,
0.132,1.02,-0.78,1.13,-0.69,-0.92,0.33,
0.133,1.07,-0.69,1.06,-0.69,-0.92,0.33,
0.133,1.07,-0.69,1.06,-0.69,-0.92,0.33,
0.144,1.07,-0.69,1.06,-0.87,-0.87,0.23,
0.146,1.07,-0.69,1.06,-0.87,-0.87,0.23,
0.146,1.24,-0.65,0.85,-0.87,-0.87,0.23,
0.147,1.24,-0.65,0.85,-0.87,-0.87,0.23,
0.154,1.24,-0.65,0.85,-0.95,-0.80,0.11,
0.155,1.24,-0.65,0.85,-0.95,-0.80,0.11,
0.156,1.43,-0.63,0.55,-0.95,-0.80,0.11,
0.157,1.43,-0.63,0.55,-0.95,-0.80,0.11,
0.16,1.43,-0.63,0.55,-0.95,-0.75,0.01,
0.161,1.43,-0.63,0.55,-0.95,-0.75,0.01,
0.163,1.54,-0.72,0.19,-0.95,-0.75,0.01,
0.163,1.54,-0.72,0.19,-0.95,-0.75,0.01,
0.169,1.54,-0.72,0.19,-0.88,-0.74,-0.06,
0.171,1.54,-0.72,0.19,-0.88,-0.74,-0.06,
0.171,1.60,-0.89,-0.21,-0.88,-0.74,-0.06,
0.172,1.60,-0.89,-0.21,-0.88,-0.74,-0.06,
0.179,1.60,-0.89,-0.21,-0.79,-0.77,-0.10,
0.18,1.60,-0.89,-0.21,-0.79,-0.77,-0.10,
0.18,1.59,-1.11,-0.64,-0.79,-0.77,-0.10,
0.181,1.59,-1.11,-0.64,-0.79,-0.77,-0.10,
0.188,1.59,-1.11,-0.64,-0.69,-0.83,-0.12,
0.189,1.59,-1.11,-0.64,-0.69,-0.83,-0.12,
0.189,1.52,-1.31,-1.07,-0.69,-0.83,-0.12,
0.19,1.52,-1.31,-1.07,-0.69,-0.83,-0.12,
0.198,1.52,-1.31,-1.07,-0.61,-0.90,-0.15,
0.199,1.52,-1.31,-1.07,-0.61,-0.90,-0.15,
0.199,1.43,-1.42,-1.45,-0.61,-0.90,-0.15,
0.199,1.43,-1.42,-1.45,-0.61,-0.90,-0.15,
0.207,1.43,-1.42,-1.45,-0.56,-0.96,-0.20,
0.208,1.43,-1.42,-1.45,-0.56,-0.96,-0.20,
0.209,1.34,-1.34,-1.74,-0.56,-0.96,-0.20,
0.209,1.34,-1.34,-1.74,-0.56,-0.96,-0.20,
0.218,1.34,-1.34,-1.74,-0.52,-1.00,-0.26,
0.219,1.34,-1.34,-1.74,-0.52,-1.00,-0.26,
0.219,1.29,-1.21,-1.96,-0.52,-1.00,-0.26,
0.22,1.29,-1.21,-1.96,-0.52,-1.00,-0.26,
0.226,1.29,-1.21,-1.96,-0.47,-1.01,-0.32,
0.227,1.29,-1.21,-1.96,-0.47,-1.01,-0.32,
0.228,1.36,-1.06,-1.89,-0.47,-1.01,-0.32,
0.228,1.36,-1.06,-1.89,-0.47,-1.01,-0.32,
0.236,1.36,-1.06,-1.89,-0.38,-1.01,-0.38,
0.236,1.36,-1.06,-1.89,-0.38,-1.01,-0.38,
0.236,1.56,-0.93,-1.61,-0.38,-1.01,-0.38,
0.237,1.56,-0.93,-1.61,-0.38,-1.01,-0.38,
0.245,1.56,-0.93,-1.61,-0.27,-0.99,-0.42,
0.246,1.56,-0.93,-1.61,-0.27,-0.99,-0.42,
0.247,1.89,-0.90,-1.24,-0.27,-0.99,-0.42,
0.247,1.89,-0.90,-1.24,-0.27,-0.99,-0.42,
0.255,1.89,-0.90,-1.24,-0.15,-1.00,-0.42,
0.256,1.89,-0.90,-1.24,-0.15,-1.00,-0.42,
0.256,2.33,-0.94,-0.79,-0.15,-1.00,-0.42,
0.257,2.33,-0.94,-0.79,-0.15,-1.00,-0.42,
0.264,2.33,-0.94,-0.79,-0.15,-1.00,-0.42,
0.265,2.33,-0.94,-0.79,-0.15,-1.00,-0.42,
0.265,2.33,-0.94,-0.79,-0.15,-1.00,-0.42,
0.266,2.33,-0.94,-0.79,-0.15,-1.00,-0.42,
0.274,2.33,-0.94,-0.79,-0.06,-1.04,-0.38,
0.275,2.33,-0.94,-0.79,-0.06,-1.04,-0.38,
0.275,3.20,-1.21,-0.19,-0.06,-1.04,-0.38,
0.275,3.20,-1.21,-0.19,-0.06,-1.04,-0.38,
0.284,3.20,-1.21,-0.19,-0.04,-1.15,-0.28,
0.285,3.20,-1.21,-0.19,-0.04,-1.15,-0.28,
0.285,3.49,-1.41,0.08,-0.04,-1.15,-0.28,
0.286,3.49,-1.41,0.08,-0.04,-1.15,-0.28,
0.293,3.49,-1.41,0.08,-0.13,-1.34,-0.12,
0.294,3.49,-1.41,0.08,-0.13,-1.34,-0.12,
0.294,3.66,-1.60,0.39,-0.13,-1.34,-0.12,
0.295,3.66,-1.60,0.39,-0.13,-1.34,-0.12,
0.303,3.66,-1.60,0.39,-0.30,-1.56,0.07,
0.304,3.66,-1.60,0.39,-0.30,-1.56,0.07,
0.304,3.68,-1.77,0.71,-0.30,-1.56,0.07,
0.304,3.68,-1.77,0.71,-0.30,-1.56,0.07,
0.312,3.68,-1.77,0.71,-0.53,-1.77,0.23,
0.313,3.68,-1.77,0.71,-0.53,-1.77,0.23,
0.314,3.55,-1.89,1.00,-0.53,-1.77,0.23,
0.314,3.55,-1.89,1.00,-0.53,-1.77,0.23,
0.322,3.55,-1.89,1.00,-0.78,-1.88,0.30,
0.323,3.55,-1.89,1.00,-0.78,-1.88,0.30,
0.324,3.26,-1.97,1.19,-0.78,-1.88,0.30,
0.325,3.26,-1.97,1.19,-0.78,-1.88,0.30,
0.331,3.26,-1.97,1.19,-1.02,-1.88,0.27,
0.332,3.26,-1.97,1.19,-1.02,-1.88,0.27,
0.333,2.89,-1.96,1.24,-1.02,-1.88,0.27,
0.334,2.89,-1.96,1.24,-1.02,-1.88,0.27,
0.347,2.89,-1.96,1.24,-1.24,-1.76,0.16,
0.348,2.89,-1.96,1.24,-1.24,-1.76,0.16,
0.349,2.55,-1.92,1.14,-1.24,-1.76,0.16,
0.35,2.55,-1.92,1.14,-1.24,-1.76,0.16,
0.351,2.55,-1.92,1.14,-1.39,-1.55,-0.00,
0.352,2.55,-1.92,1.14,-1.39,-1.55,-0.00,
0.353,2.33,-1.84,0.91,-1.39,-1.55,-0.00,
0.353,2.33,-1.84,0.91,-1.39,-1.55,-0.00,
0.36,2.33,-1.84,0.91,-1.48,-1.28,-0.19,
0.362,2.33,-1.84,0.91,-1.48,-1.28,-0.19,
0.362,2.30,-1.76,0.62,-1.48,-1.28,-0.19,
0.363,2.30,-1.76,0.62,-1.48,-1.28,-0.19,
0.369,2.30,-1.76,0.62,-1.48,-1.00,-0.37,
0.37,2.30,-1.76,0.62,-1.48,-1.00,-0.37,
0.371,2.37,-1.74,0.22,-1.48,-1.00,-0.37,
0.371,2.37,-1.74,0.22,-1.48,-1.00,-0.37,
0.379,2.37,-1.74,0.22,-1.42,-0.77,-0.51,
0.379,2.37,-1.74,0.22,-1.42,-0.77,-0.51,
0.38,2.57,-1.69,-0.23,-1.42,-0.77,-0.51,
0.381,2.57,-1.69,-0.23,-1.42,-0.77,-0.51,
0.391,2.57,-1.69,-0.23,-1.31,-0.62,-0.59,
0.392,2.57,-1.69,-0.23,-1.31,-0.62,-0.59,
0.393,2.83,-1.69,-0.75,-1.31,-0.62,-0.59,
0.393,2.83,-1.69,-0.75,-1.31,-0.62,-0.59,
0.397,2.83,-1.69,-0.75,-1.15,-0.58,-0.59,
0.398,2.83,-1.69,-0.75,-1.15,-0.58,-0.59,
0.399,3.12,-1.71,-1.29,-1.15,-0.58,-0.59,
0.399,3.12,-1.71,-1.29,-1.15,-0.58,-0.59,
0.407,3.12,-1.71,-1.29,-0.97,-0.65,-0.52,
0.408,3.12,-1.71,-1.29,-0.97,-0.65,-0.52,
0.408,3.42,-1.72,-1.82,-0.97,-0.65,-0.52,
0.409,3.42,-1.72,-1.82,-0.97,-0.65,-0.52,
0.417,3.42,-1.72,-1.82,-0.78,-0.83,-0.36,
0.418,3.42,-1.72,-1.82,-0.78,-0.83,-0.36,
0.418,3.67,-1.73,-2.37,-0.78,-0.83,-0.36,
0.418,3.67,-1.73,-2.37,-0.78,-0.83,-0.36,
0.426,3.67,-1.73,-2.37,-0.57,-1.10,-0.14,
0.427,3.67,-1.73,-2.37,-0.57,-1.10,-0.14,
0.427,3.83,-1.72,-2.90,-0.57,-1.10,-0.14,
0.428,3.83,-1.72,-2.90,-0.57,-1.10,-0.14,
0.435,3.83,-1.72,-2.90,-0.37,-1.43,0.12,
0.436,3.83,-1.72,-2.90,-0.37,-1.43,0.12,
0.436,3.87,-1.67,-3.39,-0.37,-1.43,0.12,
0.437,3.87,-1.67,-3.39,-0.37,-1.43,0.12,
0.445,3.87,-1.67,-3.39,-0.16,-1.81,0.38,
0.446,3.87,-1.67,-3.39,-0.16,-1.81,0.38,
0.446,3.85,-1.59,-3.78,-0.16,-1.81,0.38,
0.447,3.85,-1.59,-3.78,-0.16,-1.81,0.38,
0.455,3.85,-1.59,-3.78,0.04,-2.19,0.62,
0.456,3.85,-1.59,-3.78,0.04,-2.19,0.62,
0.457,3.80,-1.53,-4.06,0.04,-2.19,0.62,
0.457,3.80,-1.53,-4.06,0.04,-2.19,0.62,
0.464,3.80,-1.53,-4.06,0.04,-2.19,0.62,
0.465,3.80,-1.53,-4.06,0.04,-2.19,0.62,
0.465,3.80,-1.53,-4.06,0.04,-2.19,0.62,
0.466,3.80,-1.53,-4.06,0.04,-2.19,0.62,
0.475,3.80,-1.53,-4.06,0.24,-2.53,0.82,
0.476,3.80,-1.53,-4.06,0.24,-2.53,0.82,
0.477,3.82,-1.67,-4.53,0.24,-2.53,0.82,
0.477,3.82,-1.67,-4.53,0.24,-2.53,0.82,
0.484,3.82,-1.67,-4.53,0.41,-2.82,0.96,
0.485,3.82,-1.67,-4.53,0.41,-2.82,0.96,
0.485,3.75,-1.85,-4.84,0.41,-2.82,0.96,
0.486,3.75,-1.85,-4.84,0.41,-2.82,0.96,
0.493,3.75,-1.85,-4.84,0.53,-3.06,1.05,
0.494,3.75,-1.85,-4.84,0.53,-3.06,1.05,
0.495,3.57,-2.10,-5.19,0.53,-3.06,1.05,
0.495,3.57,-2.10,-5.19,0.53,-3.06,1.05,
0.502,3.57,-2.10,-5.19,0.58,-3.27,1.11,
0.503,3.57,-2.10,-5.19,0.58,-3.27,1.11,
0.503,3.28,-2.39,-5.58,0.58,-3.27,1.11,
0.504,3.28,-2.39,-5.58,0.58,-3.27,1.11,
0.512,3.28,-2.39,-5.58,0.53,-3.43,1.17,
0.512,3.28,-2.39,-5.58,0.53,-3.43,1.17,
0.513,2.95,-2.72,-5.95,0.53,-3.43,1.17,
0.513,2.95,-2.72,-5.95,0.53,-3.43,1.17,
0.521,2.95,-2.72,-5.95,0.36,-3.56,1.22,
0.522,2.95,-2.72,-5.95,0.36,-3.56,1.22,
0.522,2.53,-3.07,-5.92,0.36,-3.56,1.22,
0.523,2.53,-3.07,-5.92,0.36,-3.56,1.22,
0.531,2.53,-3.07,-5.92,0.06,-3.64,1.24,
0.532,2.53,-3.07,-5.92,0.06,-3.64,1.24,
0.532,2.08,-3.50,-5.68,0.06,-3.64,1.24,
0.532,2.08,-3.50,-5.68,0.06,-3.64,1.24,
0.54,2.08,-3.50,-5.68,-0.41,-3.64,1.23,
0.541,2.08,-3.50,-5.68,-0.41,-3.64,1.23,
0.542,1.63,-4.00,-5.29,-0.41,-3.64,1.23,
0.542,1.63,-4.00,-5.29,-0.41,-3.64,1.23,
0.55,1.63,-4.00,-5.29,-1.06,-3.48,1.19,
0.551,1.63,-4.00,-5.29,-1.06,-3.48,1.19,
0.552,1.14,-4.52,-3.54,-1.06,-3.48,1.19,
0.552,1.14,-4.52,-3.54,-1.06,-3.48,1.19,
0.559,1.14,-4.52,-3.54,-1.95,-3.06,1.10,
0.56,1.14,-4.52,-3.54,-1.95,-3.06,1.10,
0.56,0.58,-5.11,-3.22,-1.95,-3.06,1.10,
0.561,0.58,-5.11,-3.22,-1.95,-3.06,1.10,
0.569,0.58,-5.11,-3.22,-3.06,-2.26,0.91,
0.57,0.58,-5.11,-3.22,-3.06,-2.26,0.91,
0.57,0.29,-5.57,-1.55,-3.06,-2.26,0.91,
0.57,0.29,-5.57,-1.55,-3.06,-2.26,0.91,
0.579,0.29,-5.57,-1.55,-4.30,-1.09,0.63,
0.58,0.29,-5.57,-1.55,-4.30,-1.09,0.63,
0.58,0.66,-5.90,-0.08,-4.30,-1.09,0.63,
0.581,0.66,-5.90,-0.08,-4.30,-1.09,0.63,
0.589,0.66,-5.90,-0.08,-5.37,0.34,0.31,
0.59,0.66,-5.90,-0.08,-5.37,0.34,0.31,
0.59,2.22,-6.34,0.13,-5.37,0.34,0.31,
0.591,2.22,-6.34,0.13,-5.37,0.34,0.31,
0.598,2.22,-6.34,0.13,-4.83,1.67,0.07,
0.599,2.22,-6.34,0.13,-4.83,1.67,0.07,
0.599,2.30,-6.88,0.10,-4.83,1.67,0.07,
0.6,2.30,-6.88,0.10,-4.83,1.67,0.07,
0.607,2.30,-6.88,0.10,-3.96,2.53,0.02,
0.608,2.30,-6.88,0.10,-3.96,2.53,0.02,
0.609,1.87,-8.27,-0.14,-3.96,2.53,0.02,
0.61,1.87,-8.27,-0.14,-3.96,2.53,0.02,
0.617,1.87,-8.27,-0.14,-4.09,2.82,0.12,
0.618,1.87,-8.27,-0.14,-4.09,2.82,0.12,
0.619,-0.47,-8.62,-0.41,-4.09,2.82,0.12,
0.619,-0.47,-8.62,-0.41,-4.09,2.82,0.12,
0.626,-0.47,-8.62,-0.41,-4.14,2.77,0.32,
0.627,-0.47,-8.62,-0.41,-4.14,2.77,0.32,
0.627,-2.41,-8.91,-0.54,-4.14,2.77,0.32,
0.628,-2.41,-8.91,-0.54,-4.14,2.77,0.32,
0.635,-2.41,-8.91,-0.54,-4.26,2.78,0.59,
0.636,-2.41,-8.91,-0.54,-4.26,2.78,0.59,
0.637,-2.64,-9.04,-0.70,-4.26,2.78,0.59,
0.637,-2.64,-9.04,-0.70,-4.26,2.78,0.59,
0.646,-2.64,-9.04,-0.70,-4.39,3.03,0.94,
0.646,-2.64,-9.04,-0.70,-4.39,3.03,0.94,
0.647,-1.24,-9.06,-1.07,-4.39,3.03,0.94,
0.648,-1.24,-9.06,-1.07,-4.39,3.03,0.94,
0.656,-1.24,-9.06,-1.07,-4.43,3.32,1.05,
0.657,-1.24,-9.06,-1.07,-4.43,3.32,1.05,
0.658,0.96,-9.06,-1.39,-4.43,3.32,1.05,
0.658,0.96,-9.06,-1.39,-4.43,3.32,1.05,
0.664,0.96,-9.06,-1.39,-4.43,3.32,1.05,
0.665,0.96,-9.06,-1.39,-4.43,3.32,1.05,
0.665,0.96,-9.06,-1.39,-4.43,3.32,1.05,
0.665,0.96,-9.06,-1.39,-4.43,3.32,1.05,
0.687,0.96,-9.06,-1.39,-4.29,3.29,1.20,
0.688,0.96,-9.06,-1.39,-4.29,3.29,1.20,
0.688,6.51,-8.81,-1.13,-4.29,3.29,1.20,
0.689,6.51,-8.81,-1.13,-4.29,3.29,1.20,
0.689,6.51,-8.81,-1.13,-4.29,3.29,1.20,
0.689,6.51,-8.81,-1.13,-4.29,3.29,1.20,
0.69,6.51,-8.81,-1.13,-4.29,3.29,1.20,
0.69,6.51,-8.81,-1.13,-4.29,3.29,1.20,
0.693,6.51,-8.81,-1.13,-3.35,0.94,1.23,
0.694,6.51,-8.81,-1.13,-3.35,0.94,1.23,
0.694,9.08,-6.57,0.82,-3.35,0.94,1.23,
0.695,9.08,-6.57,0.82,-3.35,0.94,1.23,
0.702,9.08,-6.57,0.82,-1.01,-3.95,0.51,
0.703,9.08,-6.57,0.82,-1.01,-3.95,0.51,
0.704,10.40,-5.68,1.07,-1.01,-3.95,0.51,
0.704,10.40,-5.68,1.07,-1.01,-3.95,0.51,
0.712,10.40,-5.68,1.07,-1.01,-3.95,0.51,
0.713,10.40,-5.68,1.07,-1.01,-3.95,0.51,
0.713,10.40,-5.68,1.07,-1.01,-3.95,0.51,
0.714,10.40,-5.68,1.07,-1.01,-3.95,0.51,
0.722,10.40,-5.68,1.07,1.62,-6.29,-0.50,
0.723,10.40,-5.68,1.07,1.62,-6.29,-0.50,
0.723,10.93,-4.19,-0.93,1.62,-6.29,-0.50,
0.724,10.93,-4.19,-0.93,1.62,-6.29,-0.50,
0.731,10.93,-4.19,-0.93,2.13,-6.48,-0.66,
0.732,10.93,-4.19,-0.93,2.13,-6.48,-0.66,
0.732,11.25,-3.60,-3.07,2.13,-6.48,-0.66,
0.733,11.25,-3.60,-3.07,2.13,-6.48,-0.66,
0.741,11.25,-3.60,-3.07,2.27,-6.35,-0.57,
0.742,11.25,-3.60,-3.07,2.27,-6.35,-0.57,
0.742,11.42,-3.06,-5.45,2.27,-6.35,-0.57,
0.743,11.42,-3.06,-5.45,2.27,-6.35,-0.57,
0.75,11.42,-3.06,-5.45,2.37,-6.29,-0.49,
0.751,11.42,-3.06,-5.45,2.37,-6.29,-0.49,
0.751,11.32,-2.56,-7.33,2.37,-6.29,-0.49,
0.752,11.32,-2.56,-7.33,2.37,-6.29,-0.49,
0.76,11.32,-2.56,-7.33,2.40,-6.35,-0.37,
0.76,11.32,-2.56,-7.33,2.40,-6.35,-0.37,
0.761,11.00,-2.10,-9.04,2.40,-6.35,-0.37,
0.761,11.00,-2.10,-9.04,2.40,-6.35,-0.37,
0.769,11.00,-2.10,-9.04,2.37,-6.57,-0.21,
0.77,11.00,-2.10,-9.04,2.37,-6.57,-0.21,
0.771,10.50,-1.76,-9.23,2.37,-6.57,-0.21,
0.771,10.50,-1.76,-9.23,2.37,-6.57,-0.21,
0.779,10.50,-1.76,-9.23,2.33,-6.89,-0.05,
0.78,10.50,-1.76,-9.23,2.33,-6.89,-0.05,
0.78,10.03,-1.48,-9.44,2.33,-6.89,-0.05,
0.781,10.03,-1.48,-9.44,2.33,-6.89,-0.05,
0.788,10.03,-1.48,-9.44,2.31,-7.15,0.05,
0.79,10.03,-1.48,-9.44,2.31,-7.15,0.05,
0.791,9.68,-1.25,-9.65,2.31,-7.15,0.05,
0.792,9.68,-1.25,-9.65,2.31,-7.15,0.05,
0.797,9.68,-1.25,-9.65,2.34,-7.23,0.00,
0.798,9.68,-1.25,-9.65,2.34,-7.23,0.00,
0.799,9.43,-1.10,-9.81,2.34,-7.23,0.00,
0.799,9.43,-1.10,-9.81,2.34,-7.23,0.00,
0.807,9.43,-1.10,-9.81,2.43,-7.11,-0.14,
0.809,9.43,-1.10,-9.81,2.43,-7.11,-0.14,
0.809,9.16,-1.07,-9.81,2.43,-7.11,-0.14,
0.809,9.16,-1.07,-9.81,2.43,-7.11,-0.14,
0.817,9.16,-1.07,-9.81,2.51,-6.85,-0.25,
0.818,9.16,-1.07,-9.81,2.51,-6.85,-0.25,
0.818,8.81,-1.24,-9.70,2.51,-6.85,-0.25,
0.818,8.81,-1.24,-9.70,2.51,-6.85,-0.25,
0.826,8.81,-1.24,-9.70,2.55,-6.49,-0.31,
0.827,8.81,-1.24,-9.70,2.55,-6.49,-0.31,
0.827,8.43,-1.60,-9.48,2.55,-6.49,-0.31,
0.828,8.43,-1.60,-9.48,2.55,-6.49,-0.31,
0.835,8.43,-1.60,-9.48,2.53,-6.07,-0.31,
0.836,8.43,-1.60,-9.48,2.53,-6.07,-0.31,
0.836,8.02,-2.04,-9.13,2.53,-6.07,-0.31,
0.836,8.02,-2.04,-9.13,2.53,-6.07,-0.31,
0.847,8.02,-2.04,-9.13,2.47,-5.60,-0.23,
0.848,8.02,-2.04,-9.13,2.47,-5.60,-0.23,
0.848,7.70,-2.34,-8.85,2.47,-5.60,-0.23,
0.849,7.70,-2.34,-8.85,2.47,-5.60,-0.23,
0.857,7.70,-2.34,-8.85,2.39,-5.10,-0.08,
0.858,7.70,-2.34,-8.85,2.39,-5.10,-0.08,
0.859,7.57,-2.44,-8.70,2.39,-5.10,-0.08,
0.859,7.57,-2.44,-8.70,2.39,-5.10,-0.08,
0.864,7.57,-2.44,-8.70,2.39,-5.10,-0.08,
0.865,7.57,-2.44,-8.70,2.39,-5.10,-0.08,
0.865,7.57,-2.44,-8.70,2.39,-5.10,-0.08,
0.865,7.57,-2.44,-8.70,2.39,-5.10,-0.08,
0.874,7.57,-2.44,-8.70,2.32,-4.59,0.13,
0.875,7.57,-2.44,-8.70,2.32,-4.59,0.13,
0.875,7.21,-2.25,-8.86,2.32,-4.59,0.13,
0.875,7.21,-2.25,-8.86,2.32,-4.59,0.13,
0.884,7.21,-2.25,-8.86,2.26,-4.10,0.35,
0.885,7.21,-2.25,-8.86,2.26,-4.10,0.35,
0.885,6.62,-2.15,-8.77,2.26,-4.10,0.35,
0.885,6.62,-2.15,-8.77,2.26,-4.10,0.35,
0.893,6.62,-2.15,-8.77,2.19,-3.67,0.53,
0.893,6.62,-2.15,-8.77,2.19,-3.67,0.53,
0.894,4.47,-2.17,-8.46,2.19,-3.67,0.53,
0.894,4.47,-2.17,-8.46,2.19,-3.67,0.53,
0.903,4.47,-2.17,-8.46,2.09,-3.30,0.67,
0.904,4.47,-2.17,-8.46,2.09,-3.30,0.67,
0.905,3.89,-2.33,-7.91,2.09,-3.30,0.67,
0.905,3.89,-2.33,-7.91,2.09,-3.30,0.67,
0.912,3.89,-2.33,-7.91,1.98,-3.00,0.79,
0.913,3.89,-2.33,-7.91,1.98,-3.00,0.79,
0.913,1.98,-2.54,-7.14,1.98,-3.00,0.79,
0.914,1.98,-2.54,-7.14,1.98,-3.00,0.79,
0.922,1.98,-2.54,-7.14,1.63,-2.73,0.94,
0.923,1.98,-2.54,-7.14,1.63,-2.73,0.94,
0.924,1.50,-2.74,-6.22,1.63,-2.73,0.94,
0.925,1.50,-2.74,-6.22,1.63,-2.73,0.94,
0.931,1.50,-2.74,-6.22,1.07,-2.45,1.15,
0.932,1.50,-2.74,-6.22,1.07,-2.45,1.15,
0.932,0.95,-2.89,-5.40,1.07,-2.45,1.15,
0.933,0.95,-2.89,-5.40,1.07,-2.45,1.15,
0.94,0.95,-2.89,-5.40,0.88,-2.14,1.42,
0.941,0.95,-2.89,-5.40,0.88,-2.14,1.42,
0.942,0.51,-2.85,-5.37,0.88,-2.14,1.42,
0.943,0.51,-2.85,-5.37,0.88,-2.14,1.42,
0.95,0.51,-2.85,-5.37,1.02,-1.78,1.71,
0.951,0.51,-2.85,-5.37,1.02,-1.78,1.71,
0.951,0.12,-2.61,-7.03,1.02,-1.78,1.71,
0.952,0.12,-2.61,-7.03,1.02,-1.78,1.71,
0.96,0.12,-2.61,-7.03,1.11,-1.49,1.96,
0.961,0.12,-2.61,-7.03,1.11,-1.49,1.96,
0.961,-0.32,-2.18,-8.80,1.11,-1.49,1.96,
0.962,-0.32,-2.18,-8.80,1.11,-1.49,1.96,
0.969,-0.32,-2.18,-8.80,1.16,-1.45,2.12,
0.97,-0.32,-2.18,-8.80,1.16,-1.45,2.12,
0.971,-0.80,-1.73,-9.16,1.16,-1.45,2.12,
0.971,-0.80,-1.73,-9.16,1.16,-1.45,2.12,
0.979,-0.80,-1.73,-9.16,1.19,-1.81,2.14,
0.979,-0.80,-1.73,-9.16,1.19,-1.81,2.14,
0.98,-1.34,-1.49,-8.73,1.19,-1.81,2.14,
0.98,-1.34,-1.49,-8.73,1.19,-1.81,2.14,
0.988,-1.34,-1.49,-8.73,1.20,-2.51,2.00,
0.991,-1.34,-1.49,-8.73,1.20,-2.51,2.00,
0.992,-1.67,-1.41,-6.49,1.20,-2.51,2.00,
0.993,-1.67,-1.41,-6.49,1.20,-2.51,2.00,
0.997,-1.67,-1.41,-6.49,1.18,-3.22,1.75,
0.999,-1.67,-1.41,-6.49,1.18,-3.22,1.75,
0.999,-1.64,-1.36,-4.19,1.18,-3.22,1.75,
1.0,-1.64,-1.36,-4.19,1.18,-3.22,1.75,
1.007,-1.64,-1.36,-4.19,1.14,-3.53,1.49,
1.009,-1.64,-1.36,-4.19,1.14,-3.53,1.49,
1.01,-1.25,-1.19,-2.46,1.14,-3.53,1.49,
1.011,-1.25,-1.19,-2.46,1.14,-3.53,1.49,
1.016,-1.25,-1.19,-2.46,1.12,-3.21,1.28,
1.017,-1.25,-1.19,-2.46,1.12,-3.21,1.28,
1.017,0.29,-0.83,-2.03,1.12,-3.21,1.28,
1.018,0.29,-0.83,-2.03,1.12,-3.21,1.28,
1.026,0.29,-0.83,-2.03,1.10,-2.31,1.09,
1.027,0.29,-0.83,-2.03,1.10,-2.31,1.09,
1.027,0.51,-0.48,-1.97,1.10,-2.31,1.09,
1.027,0.51,-0.48,-1.97,1.10,-2.31,1.09,
1.035,0.51,-0.48,-1.97,1.07,-1.12,0.82,
1.036,0.51,-0.48,-1.97,1.07,-1.12,0.82,
1.036,0.50,-0.39,-2.12,1.07,-1.12,0.82,
1.036,0.50,-0.39,-2.12,1.07,-1.12,0.82,
1.046,0.50,-0.39,-2.12,1.02,-0.04,0.40,
1.047,0.50,-0.39,-2.12,1.02,-0.04,0.40,
1.047,0.25,-0.63,-2.23,1.02,-0.04,0.40,
1.048,0.25,-0.63,-2.23,1.02,-0.04,0.40,
1.055,0.25,-0.63,-2.23,0.97,0.69,-0.06,
1.056,0.25,-0.63,-2.23,0.97,0.69,-0.06,
1.057,-0.24,-1.13,-2.13,0.97,0.69,-0.06,
1.058,-0.24,-1.13,-2.13,0.97,0.69,-0.06,
1.064,-0.24,-1.13,-2.13,0.97,0.69,-0.06,
1.065,-0.24,-1.13,-2.13,0.97,0.69,-0.06,
1.065,-0.24,-1.13,-2.13,0.97,0.69,-0.06,
1.065,-0.24,-1.13,-2.13,0.97,0.69,-0.06,
1.074,-0.24,-1.13,-2.13,0.92,1.04,-0.42,
1.075,-0.24,-1.13,-2.13,0.92,1.04,-0.42,
1.075,-0.94,-2.28,-1.51,0.92,1.04,-0.42,
1.075,-0.94,-2.28,-1.51,0.92,1.04,-0.42,
1.083,-0.94,-2.28,-1.51,0.87,1.14,-0.53,
1.084,-0.94,-2.28,-1.51,0.87,1.14,-0.53,
1.085,-1.11,-2.62,-1.12,0.87,1.14,-0.53,
1.085,-1.11,-2.62,-1.12,0.87,1.14,-0.53,
1.093,-1.11,-2.62,-1.12,0.84,1.13,-0.36,
1.094,-1.11,-2.62,-1.12,0.84,1.13,-0.36,
1.094,-1.24,-2.73,-1.02,0.84,1.13,-0.36,
1.095,-1.24,-2.73,-1.02,0.84,1.13,-0.36,
1.102,-1.24,-2.73,-1.02,0.81,1.09,0.02,
1.103,-1.24,-2.73,-1.02,0.81,1.09,0.02,
1.104,-1.38,-2.63,-1.13,0.81,1.09,0.02,
1.104,-1.38,-2.63,-1.13,0.81,1.09,0.02,
1.112,-1.38,-2.63,-1.13,0.79,1.03,0.47,
1.113,-1.38,-2.63,-1.13,0.79,1.03,0.47,
1.114,-1.51,-2.33,-1.31,0.79,1.03,0.47,
1.114,-1.51,-2.33,-1.31,0.79,1.03,0.47,
1.121,-1.51,-2.33,-1.31,0.79,0.90,0.82,
1.122,-1.51,-2.33,-1.31,0.79,0.90,0.82,
1.123,-1.64,-1.99,-1.40,0.79,0.90,0.82,
1.124,-1.64,-1.99,-1.40,0.79,0.90,0.82,
1.131,-1.64,-1.99,-1.40,0.80,0.66,1.03,
1.132,-1.64,-1.99,-1.40,0.80,0.66,1.03,
1.132,-1.85,-1.83,-1.21,0.80,0.66,1.03,
1.133,-1.85,-1.83,-1.21,0.80,0.66,1.03,
1.144,-1.85,-1.83,-1.21,0.79,0.34,1.09,
1.145,-1.85,-1.83,-1.21,0.79,0.34,1.09,
1.145,-2.11,-1.90,-0.70,0.79,0.34,1.09,
1.146,-2.11,-1.90,-0.70,0.79,0.34,1.09,
1.15,-2.11,-1.90,-0.70,0.77,0.02,1.01,
1.151,-2.11,-1.90,-0.70,0.77,0.02,1.01,
1.151,-2.31,-2.25,0.03,0.77,0.02,1.01,
1.152,-2.31,-2.25,0.03,0.77,0.02,1.01,
1.159,-2.31,-2.25,0.03,0.73,-0.20,0.93,
1.16,-2.31,-2.25,0.03,0.73,-0.20,0.93,
1.16,-2.48,-3.70,1.86,0.73,-0.20,0.93,
1.161,-2.48,-3.70,1.86,0.73,-0.20,0.93,
1.169,-2.48,-3.70,1.86,0.71,-0.22,1.02,
1.17,-2.48,-3.70,1.86,0.71,-0.22,1.02,
1.17,-3.04,-3.97,2.09,0.71,-0.22,1.02,
1.17,-3.04,-3.97,2.09,0.71,-0.22,1.02,
1.178,-3.04,-3.97,2.09,0.74,0.03,1.30,
1.179,-3.04,-3.97,2.09,0.74,0.03,1.30,
1.18,-3.65,-4.19,2.06,0.74,0.03,1.30,
1.18,-3.65,-4.19,2.06,0.74,0.03,1.30,
1.188,-3.65,-4.19,2.06,0.79,0.48,1.76,
1.189,-3.65,-4.19,2.06,0.79,0.48,1.76,
1.19,-4.18,-4.13,1.63,0.79,0.48,1.76,
1.191,-4.18,-4.13,1.63,0.79,0.48,1.76,
1.197,-4.18,-4.13,1.63,0.85,0.92,2.30,
1.198,-4.18,-4.13,1.63,0.85,0.92,2.30,
1.199,-4.59,-3.82,-0.19,0.85,0.92,2.30,
1.199,-4.59,-3.82,-0.19,0.85,0.92,2.30,
1.207,-4.59,-3.82,-0.19,0.85,1.08,2.79,
1.208,-4.59,-3.82,-0.19,0.85,1.08,2.79,
1.209,-4.37,-3.61,-0.27,0.85,1.08,2.79,
1.209,-4.37,-3.61,-0.27,0.85,1.08,2.79,
1.217,-4.37,-3.61,-0.27,0.80,0.83,3.16,
1.217,-4.37,-3.61,-0.27,0.80,0.83,3.16,
1.217,-3.96,-3.63,0.05,0.80,0.83,3.16,
1.218,-3.96,-3.63,0.05,0.80,0.83,3.16,
1.226,-3.96,-3.63,0.05,0.70,0.25,3.35,
1.227,-3.96,-3.63,0.05,0.70,0.25,3.35,
1.227,-1.87,-3.82,1.62,0.70,0.25,3.35,
1.227,-1.87,-3.82,1.62,0.70,0.25,3.35,
1.235,-1.87,-3.82,1.62,0.59,-0.33,3.31,
1.236,-1.87,-3.82,1.62,0.59,-0.33,3.31,
1.236,-0.01,-3.82,2.24,0.59,-0.33,3.31,
1.237,-0.01,-3.82,2.24,0.59,-0.33,3.31,
1.246,-0.01,-3.82,2.24,0.52,-0.51,2.94,
1.247,-0.01,-3.82,2.24,0.52,-0.51,2.94,
1.247,0.42,-3.59,2.54,0.52,-0.51,2.94,
1.248,0.42,-3.59,2.54,0.52,-0.51,2.94,
1.255,0.42,-3.59,2.54,0.52,-0.51,2.94,
1.256,0.42,-3.59,2.54,0.52,-0.51,2.94,
1.256,0.42,-3.59,2.54,0.52,-0.51,2.94,
1.257,0.42,-3.59,2.54,0.52,-0.51,2.94,
1.264,0.42,-3.59,2.54,0.51,-0.21,2.47,
1.265,0.42,-3.59,2.54,0.51,-0.21,2.47,
1.265,0.85,-2.99,1.75,0.51,-0.21,2.47,
1.265,0.85,-2.99,1.75,0.51,-0.21,2.47,
1.273,0.85,-2.99,1.75,0.51,0.28,1.78,
1.274,0.85,-2.99,1.75,0.51,0.28,1.78,
1.275,-0.76,-2.91,0.12,0.51,0.28,1.78,
1.275,-0.76,-2.91,0.12,0.51,0.28,1.78,
1.283,-0.76,-2.91,0.12,0.48,0.58,0.92,
1.284,-0.76,-2.91,0.12,0.48,0.58,0.92,
1.284,-2.61,-3.16,0.09,0.48,0.58,0.92,
1.285,-2.61,-3.16,0.09,0.48,0.58,0.92,
1.293,-2.61,-3.16,0.09,0.38,0.55,0.36,
1.293,-2.61,-3.16,0.09,0.38,0.55,0.36,
1.294,-3.07,-4.67,0.51,0.38,0.55,0.36,
1.294,-3.07,-4.67,0.51,0.38,0.55,0.36,
1.302,-3.07,-4.67,0.51,0.22,0.28,0.25,
1.303,-3.07,-4.67,0.51,0.22,0.28,0.25,
1.303,-3.42,-6.44,2.27,0.22,0.28,0.25,
1.304,-3.42,-6.44,2.27,0.22,0.28,0.25,
1.312,-3.42,-6.44,2.27,0.09,0.02,0.59,
1.312,-3.42,-6.44,2.27,0.09,0.02,0.59,
1.313,-3.17,-8.27,4.29,0.09,0.02,0.59,
1.313,-3.17,-8.27,4.29,0.09,0.02,0.59,
1.321,-3.17,-8.27,4.29,0.09,0.08,1.30,
1.322,-3.17,-8.27,4.29,0.09,0.08,1.30,
1.322,-1.27,-8.45,4.56,0.09,0.08,1.30,
1.323,-1.27,-8.45,4.56,0.09,0.08,1.30,
1.332,-1.27,-8.45,4.56,0.24,0.57,2.09,
1.333,-1.27,-8.45,4.56,0.24,0.57,2.09,
1.333,0.76,-8.01,4.27,0.24,0.57,2.09,
1.334,0.76,-8.01,4.27,0.24,0.57,2.09,
1.341,0.76,-8.01,4.27,0.45,1.29,2.59,
1.342,0.76,-8.01,4.27,0.45,1.29,2.59,
1.343,2.48,-4.66,0.91,0.45,1.29,2.59,
1.343,2.48,-4.66,0.91,0.45,1.29,2.59,
1.35,2.48,-4.66,0.91,0.59,1.80,2.52,
1.351,2.48,-4.66,0.91,0.59,1.80,2.52,
1.352,2.67,-1.68,0.34,0.59,1.80,2.52,
1.352,2.67,-1.68,0.34,0.59,1.80,2.52,
1.359,2.67,-1.68,0.34,0.57,1.77,1.87,
1.36,2.67,-1.68,0.34,0.57,1.77,1.87,
1.36,2.33,0.06,-0.17,0.57,1.77,1.87,
1.361,2.33,0.06,-0.17,0.57,1.77,1.87,
1.369,2.33,0.06,-0.17,0.42,1.29,0.81,
1.37,2.33,0.06,-0.17,0.42,1.29,0.81,
1.37,0.60,0.61,2.62,0.42,1.29,0.81,
1.37,0.60,0.61,2.62,0.42,1.29,0.81,
1.378,0.60,0.61,2.62,0.22,0.73,-0.35,
1.379,0.60,0.61,2.62,0.22,0.73,-0.35,
1.38,-1.51,1.13,2.35,0.22,0.73,-0.35,
1.38,-1.51,1.13,2.35,0.22,0.73,-0.35,
1.388,-1.51,1.13,2.35,0.10,0.41,-1.31,
1.389,-1.51,1.13,2.35,0.10,0.41,-1.31,
1.389,-1.92,1.22,1.73,0.10,0.41,-1.31,
1.39,-1.92,1.22,1.73,0.10,0.41,-1.31,
1.397,-1.92,1.22,1.73,0.05,0.40,-1.88,
1.398,-1.92,1.22,1.73,0.05,0.40,-1.88,
1.399,-3.75,1.06,1.43,0.05,0.40,-1.88,
1.4,-3.75,1.06,1.43,0.05,0.40,-1.88,
1.407,-3.75,1.06,1.43,0.08,0.53,-2.01,
1.409,-3.75,1.06,1.43,0.08,0.53,-2.01,
1.41,-5.27,-0.44,-1.87,0.08,0.53,-2.01,
1.411,-5.27,-0.44,-1.87,0.08,0.53,-2.01,
1.417,-5.27,-0.44,-1.87,0.14,0.63,-1.72,
1.418,-5.27,-0.44,-1.87,0.14,0.63,-1.72,
1.418,-5.24,-0.52,0.83,0.14,0.63,-1.72,
1.419,-5.24,-0.52,0.83,0.14,0.63,-1.72,
1.427,-5.24,-0.52,0.83,0.09,0.65,-1.01,
1.428,-5.24,-0.52,0.83,0.09,0.65,-1.01,
1.429,-5.20,-0.48,1.04,0.09,0.65,-1.01,
1.43,-5.20,-0.48,1.04,0.09,0.65,-1.01,
1.435,-5.20,-0.48,1.04,-0.06,0.65,0.00,
1.436,-5.20,-0.48,1.04,-0.06,0.65,0.00,
1.437,-4.96,-0.29,1.11,-0.06,0.65,0.00,
1.438,-4.96,-0.29,1.11,-0.06,0.65,0.00,
1.445,-4.96,-0.29,1.11,-0.22,0.67,1.06,
1.446,-4.96,-0.29,1.11,-0.22,0.67,1.06,
1.447,-4.71,-0.03,1.15,-0.22,0.67,1.06,
1.448,-4.71,-0.03,1.15,-0.22,0.67,1.06,
1.455,-4.71,-0.03,1.15,-0.22,0.67,1.06,
1.457,-4.71,-0.03,1.15,-0.22,0.67,1.06,
1.457,-4.71,-0.03,1.15,-0.22,0.67,1.06,
1.458,-4.71,-0.03,1.15,-0.22,0.67,1.06,
1.464,-4.71,-0.03,1.15,-0.31,0.71,1.88,
1.465,-4.71,-0.03,1.15,-0.31,0.71,1.88,
1.465,-4.35,0.48,1.28,-0.31,0.71,1.88,
1.465,-4.35,0.48,1.28,-0.31,0.71,1.88,
1.473,-4.35,0.48,1.28,-0.31,0.77,2.35,
1.474,-4.35,0.48,1.28,-0.31,0.77,2.35,
1.475,-4.03,0.83,1.25,-0.31,0.77,2.35,
1.475,-4.03,0.83,1.25,-0.31,0.77,2.35,
1.483,-4.03,0.83,1.25,-0.26,0.85,2.49,
1.484,-4.03,0.83,1.25,-0.26,0.85,2.49,
1.485,-3.67,1.46,1.03,-0.26,0.85,2.49,
1.485,-3.67,1.46,1.03,-0.26,0.85,2.49,
1.492,-3.67,1.46,1.03,-0.20,0.94,2.27,
1.493,-3.67,1.46,1.03,-0.20,0.94,2.27,
1.493,-3.31,2.98,0.70,-0.20,0.94,2.27,
1.494,-3.31,2.98,0.70,-0.20,0.94,2.27,
1.502,-3.31,2.98,0.70,-0.14,0.99,1.80,
1.503,-3.31,2.98,0.70,-0.14,0.99,1.80,
1.504,-3.12,3.36,0.45,-0.14,0.99,1.80,
1.504,-3.12,3.36,0.45,-0.14,0.99,1.80,
1.512,-3.12,3.36,0.45,-0.10,0.94,1.19,
1.512,-3.12,3.36,0.45,-0.10,0.94,1.19,
1.513,-3.19,3.56,0.28,-0.10,0.94,1.19,
1.513,-3.19,3.56,0.28,-0.10,0.94,1.19,
1.521,-3.19,3.56,0.28,-0.09,0.79,0.45,
1.522,-3.19,3.56,0.28,-0.09,0.79,0.45,
1.522,-3.53,3.44,0.16,-0.09,0.79,0.45,
1.523,-3.53,3.44,0.16,-0.09,0.79,0.45,
1.531,-3.53,3.44,0.16,-0.13,0.59,-0.27,
1.532,-3.53,3.44,0.16,-0.13,0.59,-0.27,
1.532,-4.06,3.04,0.12,-0.13,0.59,-0.27,
1.533,-4.06,3.04,0.12,-0.13,0.59,-0.27,
1.54,-4.06,3.04,0.12,-0.20,0.40,-0.78,
1.541,-4.06,3.04,0.12,-0.20,0.40,-0.78,
1.542,-4.50,1.44,0.13,-0.20,0.40,-0.78,
1.542,-4.50,1.44,0.13,-0.20,0.40,-0.78,
1.55,-4.50,1.44,0.13,-0.32,0.27,-0.87,
1.55,-4.50,1.44,0.13,-0.32,0.27,-0.87,
1.551,-4.76,1.28,0.31,-0.32,0.27,-0.87,
1.551,-4.76,1.28,0.31,-0.32,0.27,-0.87,
1.559,-4.76,1.28,0.31,-0.46,0.24,-0.47,
1.56,-4.76,1.28,0.31,-0.46,0.24,-0.47,
1.56,-4.64,0.96,0.42,-0.46,0.24,-0.47,
1.561,-4.64,0.96,0.42,-0.46,0.24,-0.47,
1.569,-4.64,0.96,0.42,-0.58,0.32,0.32,
1.57,-4.64,0.96,0.42,-0.58,0.32,0.32,
1.57,-2.79,0.80,0.45,-0.58,0.32,0.32,
1.571,-2.79,0.80,0.45,-0.58,0.32,0.32,
1.578,-2.79,0.80,0.45,-0.65,0.48,1.12,
1.579,-2.79,0.80,0.45,-0.65,0.48,1.12,
1.58,-2.22,0.78,0.19,-0.65,0.48,1.12,
1.58,-2.22,0.78,0.19,-0.65,0.48,1.12,
1.588,-2.22,0.78,0.19,-0.68,0.64,1.51,
1.589,-2.22,0.78,0.19,-0.68,0.64,1.51,
1.589,-0.30,0.74,-0.08,-0.68,0.64,1.51,
1.59,-0.30,0.74,-0.08,-0.68,0.64,1.51,
1.598,-0.30,0.74,-0.08,-0.69,0.68,1.34,
1.598,-0.30,0.74,-0.08,-0.69,0.68,1.34,
1.599,1.42,0.56,-0.13,-0.69,0.68,1.34,
1.6,1.42,0.56,-0.13,-0.69,0.68,1.34,
1.607,1.42,0.56,-0.13,-0.69,0.54,0.67,
1.608,1.42,0.56,-0.13,-0.69,0.54,0.67,
1.609,1.69,0.06,-0.20,-0.69,0.54,0.67,
1.609,1.69,0.06,-0.20,-0.69,0.54,0.67,
1.617,1.69,0.06,-0.20,-0.68,0.29,-0.26,
1.618,1.69,0.06,-0.20,-0.68,0.29,-0.26,
1.618,1.92,-1.66,-0.00,-0.68,0.29,-0.26,
1.618,1.92,-1.66,-0.00,-0.68,0.29,-0.26,
1.625,1.92,-1.66,-0.00,-0.65,0.05,-1.10,
1.626,1.92,-1.66,-0.00,-0.65,0.05,-1.10,
1.627,2.00,-3.49,0.22,-0.65,0.05,-1.10,
1.627,2.00,-3.49,0.22,-0.65,0.05,-1.10,
1.635,2.00,-3.49,0.22,-0.60,-0.11,-1.52,
1.636,2.00,-3.49,0.22,-0.60,-0.11,-1.52,
1.637,1.86,-3.94,0.26,-0.60,-0.11,-1.52,
1.637,1.86,-3.94,0.26,-0.60,-0.11,-1.52,
1.645,1.86,-3.94,0.26,-0.53,-0.15,-1.42,
1.646,1.86,-3.94,0.26,-0.53,-0.15,-1.42,
1.647,1.87,-5.44,0.35,-0.53,-0.15,-1.42,
1.648,1.87,-5.44,0.35,-0.53,-0.15,-1.42,
1.655,1.87,-5.44,0.35,-0.53,-0.15,-1.42,
1.656,1.87,-5.44,0.35,-0.53,-0.15,-1.42,
1.656,1.87,-5.44,0.35,-0.53,-0.15,-1.42,
1.657,1.87,-5.44,0.35,-0.53,-0.15,-1.42,
1.663,1.87,-5.44,0.35,-0.46,-0.11,-0.97,
1.664,1.87,-5.44,0.35,-0.46,-0.11,-0.97,
1.664,1.68,-7.47,0.20,-0.46,-0.11,-0.97,
1.664,1.68,-7.47,0.20,-0.46,-0.11,-0.97,
1.685,1.68,-7.47,0.20,-0.40,-0.04,-0.37,
1.686,1.68,-7.47,0.20,-0.40,-0.04,-0.37,
1.687,-0.35,-7.16,-0.20,-0.40,-0.04,-0.37,
1.687,-0.35,-7.16,-0.20,-0.40,-0.04,-0.37,
1.688,-0.35,-7.16,-0.20,-0.35,0.03,0.99,
1.688,-0.35,-7.16,-0.20,-0.35,0.03,0.99,
1.688,-2.03,-5.20,-0.48,-0.35,0.03,0.99,
1.689,-2.03,-5.20,-0.48,-0.35,0.03,0.99,
1.692,-2.03,-5.20,-0.48,-0.35,0.03,0.99,
1.693,-2.03,-5.20,-0.48,-0.35,0.03,0.99,
1.693,-2.03,-5.20,-0.48,-0.35,0.03,0.99,
1.693,-2.03,-5.20,-0.48,-0.35,0.03,0.99,
1.701,-2.03,-5.20,-0.48,-0.34,-0.15,2.61,
1.702,-2.03,-5.20,-0.48,-0.34,-0.15,2.61,
1.703,-2.63,-2.83,-0.91,-0.34,-0.15,2.61,
1.703,-2.63,-2.83,-0.91,-0.34,-0.15,2.61,
1.712,-2.63,-2.83,-0.91,-0.34,-0.15,2.61,
1.713,-2.63,-2.83,-0.91,-0.34,-0.15,2.61,
1.713,-2.63,-2.83,-0.91,-0.34,-0.15,2.61,
1.714,-2.63,-2.83,-0.91,-0.34,-0.15,2.61,
1.721,-2.63,-2.83,-0.91,-0.35,-0.50,3.31,
1.721,-2.63,-2.83,-0.91,-0.35,-0.50,3.31,
1.722,-1.80,-2.04,-1.16,-0.35,-0.50,3.31,
1.722,-1.80,-2.04,-1.16,-0.35,-0.50,3.31,
1.73,-1.80,-2.04,-1.16,-0.36,-0.66,3.18,
1.731,-1.80,-2.04,-1.16,-0.36,-0.66,3.18,
1.731,-1.35,-1.84,-0.95,-0.36,-0.66,3.18,
1.732,-1.35,-1.84,-0.95,-0.36,-0.66,3.18,
1.74,-1.35,-1.84,-0.95,-0.35,-0.78,2.82,
1.741,-1.35,-1.84,-0.95,-0.35,-0.78,2.82,
1.741,-0.83,-1.59,-0.34,-0.35,-0.78,2.82,
1.742,-0.83,-1.59,-0.34,-0.35,-0.78,2.82,
1.749,-0.83,-1.59,-0.34,-0.32,-0.86,2.38,
1.75,-0.83,-1.59,-0.34,-0.32,-0.86,2.38,
1.751,-0.30,-1.36,0.19,-0.32,-0.86,2.38,
1.751,-0.30,-1.36,0.19,-0.32,-0.86,2.38,
1.759,-0.30,-1.36,0.19,-0.22,-0.84,1.89,
1.76,-0.30,-1.36,0.19,-0.22,-0.84,1.89,
1.76,-0.01,-1.13,0.43,-0.22,-0.84,1.89,
1.761,-0.01,-1.13,0.43,-0.22,-0.84,1.89,
1.768,-0.01,-1.13,0.43,-0.05,-0.72,1.37,
1.769,-0.01,-1.13,0.43,-0.05,-0.72,1.37,
1.77,-0.21,-1.04,0.15,-0.05,-0.72,1.37,
1.77,-0.21,-1.04,0.15,-0.05,-0.72,1.37,
1.778,-0.21,-1.04,0.15,0.16,-0.57,0.87,
1.779,-0.21,-1.04,0.15,0.16,-0.57,0.87,
1.78,-0.72,-0.99,-1.52,0.16,-0.57,0.87,
1.78,-0.72,-0.99,-1.52,0.16,-0.57,0.87,
1.789,-0.72,-0.99,-1.52,0.33,-0.50,0.47,
1.792,-0.72,-0.99,-1.52,0.33,-0.50,0.47,
1.793,-1.20,-0.92,-1.67,0.33,-0.50,0.47,
1.794,-1.20,-0.92,-1.67,0.33,-0.50,0.47,
1.797,-1.20,-0.92,-1.67,0.35,-0.58,0.23,
1.797,-1.20,-0.92,-1.67,0.35,-0.58,0.23,
1.798,-1.42,-0.89,-1.68,0.35,-0.58,0.23,
1.799,-1.42,-0.89,-1.68,0.35,-0.58,0.23,
1.806,-1.42,-0.89,-1.68,0.22,-0.80,0.18,
1.807,-1.42,-0.89,-1.68,0.22,-0.80,0.18,
1.808,-1.40,-0.89,-1.64,0.22,-0.80,0.18,
1.808,-1.40,-0.89,-1.64,0.22,-0.80,0.18,
1.816,-1.40,-0.89,-1.64,0.01,-1.07,0.23,
1.818,-1.40,-0.89,-1.64,0.01,-1.07,0.23,
1.818,-1.38,-0.98,-1.39,0.01,-1.07,0.23,
1.819,-1.38,-0.98,-1.39,0.01,-1.07,0.23,
1.825,-1.38,-0.98,-1.39,-0.17,-1.29,0.25,
1.826,-1.38,-0.98,-1.39,-0.17,-1.29,0.25,
1.827,-1.37,-1.07,-1.14,-0.17,-1.29,0.25,
1.827,-1.37,-1.07,-1.14,-0.17,-1.29,0.25,
1.835,-1.37,-1.07,-1.14,-0.25,-1.41,0.22,
1.836,-1.37,-1.07,-1.14,-0.25,-1.41,0.22,
1.836,-1.45,-1.07,-0.93,-0.25,-1.41,0.22,
1.837,-1.45,-1.07,-0.93,-0.25,-1.41,0.22,
1.846,-1.45,-1.07,-0.93,-0.25,-1.45,0.18,
1.847,-1.45,-1.07,-0.93,-0.25,-1.45,0.18,
1.848,-1.60,-1.06,-0.66,-0.25,-1.45,0.18,
1.848,-1.60,-1.06,-0.66,-0.25,-1.45,0.18,
1.856,-1.60,-1.06,-0.66,-0.25,-1.45,0.18,
1.857,-1.60,-1.06,-0.66,-0.25,-1.45,0.18,
1.858,-1.60,-1.06,-0.66,-0.25,-1.45,0.18,
1.858,-1.60,-1.06,-0.66,-0.25,-1.45,0.18,
1.863,-1.60,-1.06,-0.66,-0.17,-1.40,0.26,
1.864,-1.60,-1.06,-0.66,-0.17,-1.40,0.26,
1.864,-2.00,-0.88,-0.38,-0.17,-1.40,0.26,
1.865,-2.00,-0.88,-0.38,-0.17,-1.40,0.26,
1.873,-2.00,-0.88,-0.38,-0.06,-1.27,0.44,
1.874,-2.00,-0.88,-0.38,-0.06,-1.27,0.44,
1.874,-2.26,-0.56,-0.60,-0.06,-1.27,0.44,
1.875,-2.26,-0.56,-0.60,-0.06,-1.27,0.44,
1.883,-2.26,-0.56,-0.60,0.05,-1.10,0.62,
1.884,-2.26,-0.56,-0.60,0.05,-1.10,0.62,
1.884,-2.52,1.27,-0.88,0.05,-1.10,0.62,
1.884,-2.52,1.27,-0.88,0.05,-1.10,0.62,
1.892,-2.52,1.27,-0.88,0.13,-0.93,0.79,
1.893,-2.52,1.27,-0.88,0.13,-0.93,0.79,
1.894,-2.74,6.55,-1.20,0.13,-0.93,0.79,
1.894,-2.74,6.55,-1.20,0.13,-0.93,0.79,
1.904,-2.74,6.55,-1.20,0.15,-0.79,0.87,
1.905,-2.74,6.55,-1.20,0.15,-0.79,0.87,
1.906,-2.88,8.70,-1.00,0.15,-0.79,0.87,
1.907,-2.88,8.70,-1.00,0.15,-0.79,0.87,
1.911,-2.88,8.70,-1.00,0.09,-0.72,0.75,
1.913,-2.88,8.70,-1.00,0.09,-0.72,0.75,
1.913,-3.07,11.02,0.84,0.09,-0.72,0.75,
1.914,-3.07,11.02,0.84,0.09,-0.72,0.75,
1.921,-3.07,11.02,0.84,0.00,-0.62,0.33,
1.921,-3.07,11.02,0.84,0.00,-0.62,0.33,
1.922,-3.38,11.19,1.27,0.00,-0.62,0.33,
1.922,-3.38,11.19,1.27,0.00,-0.62,0.33,
1.93,-3.38,11.19,1.27,0.04,-0.30,-0.42,
1.931,-3.38,11.19,1.27,0.04,-0.30,-0.42,
1.931,-3.59,8.28,2.78,0.04,-0.30,-0.42,
1.931,-3.59,8.28,2.78,0.04,-0.30,-0.42,
1.94,-3.59,8.28,2.78,0.49,0.50,-1.39,
1.941,-3.59,8.28,2.78,0.49,0.50,-1.39,
1.941,-3.62,6.12,3.13,0.49,0.50,-1.39,
1.941,-3.62,6.12,3.13,0.49,0.50,-1.39,
1.949,-3.62,6.12,3.13,1.60,1.95,-2.25,
1.95,-3.62,6.12,3.13,1.60,1.95,-2.25,
1.95,-3.29,4.54,3.64,1.60,1.95,-2.25,
1.95,-3.29,4.54,3.64,1.60,1.95,-2.25,
1.959,-3.29,4.54,3.64,3.16,3.84,-2.42,
1.96,-3.29,4.54,3.64,3.16,3.84,-2.42,
1.96,-2.78,4.15,4.26,3.16,3.84,-2.42,
1.961,-2.78,4.15,4.26,3.16,3.84,-2.42,
1.968,-2.78,4.15,4.26,4.42,5.52,-1.81,
1.969,-2.78,4.15,4.26,4.42,5.52,-1.81,
1.97,-2.67,2.24,5.87,4.42,5.52,-1.81,
1.97,-2.67,2.24,5.87,4.42,5.52,-1.81,
1.978,-2.67,2.24,5.87,4.93,6.40,-0.92,
1.979,-2.67,2.24,5.87,4.93,6.40,-0.92,
1.979,-3.13,0.12,5.56,4.93,6.40,-0.92,
1.98,-3.13,0.12,5.56,4.93,6.40,-0.92,
1.988,-3.13,0.12,5.56,4.34,6.46,-0.40,
1.989,-3.13,0.12,5.56,4.34,6.46,-0.40,
1.99,-2.90,-1.52,-2.22,4.34,6.46,-0.40,
1.991,-2.90,-1.52,-2.22,4.34,6.46,-0.40,
1.997,-2.90,-1.52,-2.22,3.08,5.70,0.25,
1.997,-2.90,-1.52,-2.22,3.08,5.70,0.25,
1.998,-2.74,-3.15,-4.57,3.08,5.70,0.25,
1.998,-2.74,-3.15,-4.57,3.08,5.70,0.25,
2.007,-2.74,-3.15,-4.57,1.26,3.88,1.49,
2.008,-2.74,-3.15,-4.57,1.26,3.88,1.49,
2.009,-2.72,-3.12,-6.48,1.26,3.88,1.49,
2.009,-2.72,-3.12,-6.48,1.26,3.88,1.49,
2.016,-2.72,-3.12,-6.48,-1.44,0.94,2.79,
2.017,-2.72,-3.12,-6.48,-1.44,0.94,2.79,
2.017,-2.97,-2.62,-6.30,-1.44,0.94,2.79,
2.018,-2.97,-2.62,-6.30,-1.44,0.94,2.79,
2.025,-2.97,-2.62,-6.30,-4.21,-2.47,3.59,
2.026,-2.97,-2.62,-6.30,-4.21,-2.47,3.59,
2.027,-5.69,-0.99,-0.22,-4.21,-2.47,3.59,
2.027,-5.69,-0.99,-0.22,-4.21,-2.47,3.59,
2.036,-5.69,-0.99,-0.22,-6.03,-4.95,3.70,
2.036,-5.69,-0.99,-0.22,-6.03,-4.95,3.70,
2.037,-7.43,-0.93,1.99,-6.03,-4.95,3.70,
2.038,-7.43,-0.93,1.99,-6.03,-4.95,3.70,
2.045,-7.43,-0.93,1.99,-6.03,-4.95,3.70,
2.046,-7.43,-0.93,1.99,-6.03,-4.95,3.70,
2.047,-7.43,-0.93,1.99,-6.03,-4.95,3.70,
2.047,-7.43,-0.93,1.99,-6.03,-4.95,3.70,
2.054,-7.43,-0.93,1.99,-6.37,-5.82,3.68,
2.056,-7.43,-0.93,1.99,-6.37,-5.82,3.68,
2.056,-6.71,-1.17,0.32,-6.37,-5.82,3.68,
2.057,-6.71,-1.17,0.32,-6.37,-5.82,3.68,
2.064,-6.71,-1.17,0.32,-5.53,-5.54,3.94,
2.065,-6.71,-1.17,0.32,-5.53,-5.54,3.94,
2.065,-5.99,-1.29,-0.10,-5.53,-5.54,3.94,
2.066,-5.99,-1.29,-0.10,-5.53,-5.54,3.94,
2.073,-5.99,-1.29,-0.10,-4.18,-4.75,4.35,
2.074,-5.99,-1.29,-0.10,-4.18,-4.75,4.35,
2.074,-4.39,-1.02,-0.38,-4.18,-4.75,4.35,
2.074,-4.39,-1.02,-0.38,-4.18,-4.75,4.35,
2.083,-4.39,-1.02,-0.38,-2.97,-3.92,4.54,
2.084,-4.39,-1.02,-0.38,-2.97,-3.92,4.54,
2.084,-3.94,0.69,-0.27,-2.97,-3.92,4.54,
2.084,-3.94,0.69,-0.27,-2.97,-3.92,4.54,
2.092,-3.94,0.69,-0.27,-2.14,-3.23,4.28,
2.093,-3.94,0.69,-0.27,-2.14,-3.23,4.28,
2.093,-3.33,1.09,0.01,-2.14,-3.23,4.28,
2.094,-3.33,1.09,0.01,-2.14,-3.23,4.28,
2.102,-3.33,1.09,0.01,-1.60,-2.70,3.67,
2.103,-3.33,1.09,0.01,-1.60,-2.70,3.67,
2.104,-3.11,-1.16,0.57,-1.60,-2.70,3.67,
2.104,-3.11,-1.16,0.57,-1.60,-2.70,3.67,
2.111,-3.11,-1.16,0.57,-1.19,-2.28,2.91,
2.112,-3.11,-1.16,0.57,-1.19,-2.28,2.91,
2.113,-6.51,-8.20,2.58,-1.19,-2.28,2.91,
2.113,-6.51,-8.20,2.58,-1.19,-2.28,2.91,
2.121,-6.51,-8.20,2.58,-0.73,-1.93,2.24,
2.122,-6.51,-8.20,2.58,-0.73,-1.93,2.24,
2.122,-8.39,-16.21,2.99,-0.73,-1.93,2.24,
2.123,-8.39,-16.21,2.99,-0.73,-1.93,2.24,
2.13,-8.39,-16.21,2.99,-0.13,-1.59,1.85,
2.131,-8.39,-16.21,2.99,-0.13,-1.59,1.85,
2.132,-6.61,-21.16,3.31,-0.13,-1.59,1.85,
2.132,-6.61,-21.16,3.31,-0.13,-1.59,1.85,
2.146,-6.61,-21.16,3.31,0.48,-1.29,1.70,
2.147,-6.61,-21.16,3.31,0.48,-1.29,1.70,
2.147,-1.19,-19.37,3.11,0.48,-1.29,1.70,
2.148,-1.19,-19.37,3.11,0.48,-1.29,1.70,
2.155,-1.19,-19.37,3.11,0.87,-1.07,1.51,
2.155,-1.19,-19.37,3.11,0.87,-1.07,1.51,
2.156,4.74,-11.87,1.48,0.87,-1.07,1.51,
2.156,4.74,-11.87,1.48,0.87,-1.07,1.51,
2.159,4.74,-11.87,1.48,0.99,-0.92,0.93,
2.16,4.74,-11.87,1.48,0.99,-0.92,0.93,
2.16,6.91,-3.84,-0.65,0.99,-0.92,0.93,
2.16,6.91,-3.84,-0.65,0.99,-0.92,0.93,
2.169,6.91,-3.84,-0.65,0.89,-0.82,-0.06,
2.17,6.91,-3.84,-0.65,0.89,-0.82,-0.06,
2.17,3.95,1.25,-0.79,0.89,-0.82,-0.06,
2.17,3.95,1.25,-0.79,0.89,-0.82,-0.06,
2.178,3.95,1.25,-0.79,0.66,-0.78,-1.19,
2.179,3.95,1.25,-0.79,0.66,-0.78,-1.19,
2.179,-1.11,3.01,-0.51,0.66,-0.78,-1.19,
2.18,-1.11,3.01,-0.51,0.66,-0.78,-1.19,
2.188,-1.11,3.01,-0.51,0.35,-0.82,-2.14,
2.189,-1.11,3.01,-0.51,0.35,-0.82,-2.14,
2.19,-4.34,2.93,0.04,0.35,-0.82,-2.14,
2.19,-4.34,2.93,0.04,0.35,-0.82,-2.14,
2.197,-4.34,2.93,0.04,0.08,-0.91,-2.56,
2.198,-4.34,2.93,0.04,0.08,-0.91,-2.56,
2.198,-4.53,2.77,1.83,0.08,-0.91,-2.56,
2.199,-4.53,2.77,1.83,0.08,-0.91,-2.56,
2.206,-4.53,2.77,1.83,-0.05,-0.98,-2.25,
2.207,-4.53,2.77,1.83,-0.05,-0.98,-2.25,
2.208,-4.54,2.42,2.31,-0.05,-0.98,-2.25,
2.208,-4.54,2.42,2.31,-0.05,-0.98,-2.25,
2.216,-4.54,2.42,2.31,0.05,-0.97,-1.34,
2.217,-4.54,2.42,2.31,0.05,-0.97,-1.34,
2.218,-4.33,1.93,2.73,0.05,-0.97,-1.34,
2.218,-4.33,1.93,2.73,0.05,-0.97,-1.34,
2.225,-4.33,1.93,2.73,0.40,-0.83,-0.21,
2.226,-4.33,1.93,2.73,0.40,-0.83,-0.21,
2.227,-4.10,1.32,2.87,0.40,-0.83,-0.21,
2.227,-4.10,1.32,2.87,0.40,-0.83,-0.21,
2.236,-4.10,1.32,2.87,0.90,-0.58,0.79,
2.236,-4.10,1.32,2.87,0.90,-0.58,0.79,
2.237,-3.79,0.77,2.64,0.90,-0.58,0.79,
2.238,-3.79,0.77,2.64,0.90,-0.58,0.79,
2.246,-3.79,0.77,2.64,0.90,-0.58,0.79,
2.247,-3.79,0.77,2.64,0.90,-0.58,0.79,
2.247,-3.79,0.77,2.64,0.90,-0.58,0.79,
2.248,-3.79,0.77,2.64,0.90,-0.58,0.79,
2.255,-3.79,0.77,2.64,1.39,-0.31,1.52,
2.256,-3.79,0.77,2.64,1.39,-0.31,1.52,
2.257,-3.08,0.14,1.55,1.39,-0.31,1.52,
2.257,-3.08,0.14,1.55,1.39,-0.31,1.52,
2.263,-3.08,0.14,1.55,1.71,-0.08,1.94,
2.264,-3.08,0.14,1.55,1.71,-0.08,1.94,
2.264,-2.62,0.06,1.07,1.71,-0.08,1.94,
2.265,-2.62,0.06,1.07,1.71,-0.08,1.94,
2.274,-2.62,0.06,1.07,1.75,0.03,2.07,
2.275,-2.62,0.06,1.07,1.75,0.03,2.07,
2.275,-2.29,0.04,0.75,1.75,0.03,2.07,
2.275,-2.29,0.04,0.75,1.75,0.03,2.07,
2.282,-2.29,0.04,0.75,1.51,0.02,1.97,
2.283,-2.29,0.04,0.75,1.51,0.02,1.97,
2.283,-2.14,0.08,0.53,1.51,0.02,1.97,
2.283,-2.14,0.08,0.53,1.51,0.02,1.97,
2.293,-2.14,0.08,0.53,1.09,-0.09,1.73,
2.293,-2.14,0.08,0.53,1.09,-0.09,1.73,
2.294,-2.14,0.15,0.41,1.09,-0.09,1.73,
2.294,-2.14,0.15,0.41,1.09,-0.09,1.73,
2.302,-2.14,0.15,0.41,0.63,-0.22,1.47,
2.303,-2.14,0.15,0.41,0.63,-0.22,1.47,
2.303,-2.19,0.29,0.41,0.63,-0.22,1.47,
2.304,-2.19,0.29,0.41,0.63,-0.22,1.47,
2.311,-2.19,0.29,0.41,0.24,-0.33,1.24,
2.312,-2.19,0.29,0.41,0.24,-0.33,1.24,
2.313,-2.21,0.50,0.55,0.24,-0.33,1.24,
2.313,-2.21,0.50,0.55,0.24,-0.33,1.24,
2.321,-2.21,0.50,0.55,-0.06,-0.39,1.09,
2.321,-2.21,0.50,0.55,-0.06,-0.39,1.09,
2.322,-2.12,0.65,0.81,-0.06,-0.39,1.09,
2.323,-2.12,0.65,0.81,-0.06,-0.39,1.09,
2.331,-2.12,0.65,0.81,-0.23,-0.41,1.00,
2.332,-2.12,0.65,0.81,-0.23,-0.41,1.00,
2.332,-1.92,0.73,1.08,-0.23,-0.41,1.00,
2.333,-1.92,0.73,1.08,-0.23,-0.41,1.00,
2.341,-1.92,0.73,1.08,-0.27,-0.39,0.96,
2.342,-1.92,0.73,1.08,-0.27,-0.39,0.96,
2.343,-1.72,0.64,1.24,-0.27,-0.39,0.96,
2.343,-1.72,0.64,1.24,-0.27,-0.39,0.96,
2.352,-1.72,0.64,1.24,-0.19,-0.32,0.91,
2.353,-1.72,0.64,1.24,-0.19,-0.32,0.91,
2.353,-1.46,0.42,1.27,-0.19,-0.32,0.91,
2.353,-1.46,0.42,1.27,-0.19,-0.32,0.91,
2.359,-1.46,0.42,1.27,-0.02,-0.21,0.83,
2.359,-1.46,0.42,1.27,-0.02,-0.21,0.83,
2.359,-1.19,0.23,1.24,-0.02,-0.21,0.83,
2.36,-1.19,0.23,1.24,-0.02,-0.21,0.83,
2.369,-1.19,0.23,1.24,0.16,-0.09,0.70,
2.369,-1.19,0.23,1.24,0.16,-0.09,0.70,
2.37,-0.96,0.09,1.10,0.16,-0.09,0.70,
2.37,-0.96,0.09,1.10,0.16,-0.09,0.70,
2.378,-0.96,0.09,1.10,0.31,0.01,0.52,
2.379,-0.96,0.09,1.10,0.31,0.01,0.52,
2.38,-0.75,0.05,0.90,0.31,0.01,0.52,
2.381,-0.75,0.05,0.90,0.31,0.01,0.52,
2.387,-0.75,0.05,0.90,0.39,0.07,0.33,
2.389,-0.75,0.05,0.90,0.39,0.07,0.33,
2.389,-0.62,0.09,0.68,0.39,0.07,0.33,
2.39,-0.62,0.09,0.68,0.39,0.07,0.33,
2.397,-0.62,0.09,0.68,0.40,0.09,0.14,
2.397,-0.62,0.09,0.68,0.40,0.09,0.14,
2.398,-0.56,0.13,0.49,0.40,0.09,0.14,
2.398,-0.56,0.13,0.49,0.40,0.09,0.14,
2.406,-0.56,0.13,0.49,0.33,0.06,-0.02,
2.407,-0.56,0.13,0.49,0.33,0.06,-0.02,
2.408,-0.52,0.17,0.38,0.33,0.06,-0.02,
2.408,-0.52,0.17,0.38,0.33,0.06,-0.02,
2.415,-0.52,0.17,0.38,0.23,-0.01,-0.13,
2.416,-0.52,0.17,0.38,0.23,-0.01,-0.13,
2.417,-0.51,0.27,0.34,0.23,-0.01,-0.13,
2.417,-0.51,0.27,0.34,0.23,-0.01,-0.13,
2.425,-0.51,0.27,0.34,0.11,-0.08,-0.19,
2.426,-0.51,0.27,0.34,0.11,-0.08,-0.19,
2.426,-0.49,0.36,0.37,0.11,-0.08,-0.19,
2.427,-0.49,0.36,0.37,0.11,-0.08,-0.19,
2.436,-0.49,0.36,0.37,0.00,-0.14,-0.20,
2.436,-0.49,0.36,0.37,0.00,-0.14,-0.20,
2.437,-0.48,0.44,0.42,0.00,-0.14,-0.20,
2.437,-0.48,0.44,0.42,0.00,-0.14,-0.20,
2.445,-0.48,0.44,0.42,0.00,-0.14,-0.20,
2.445,-0.48,0.44,0.42,0.00,-0.14,-0.20,
2.446,-0.48,0.44,0.42,0.00,-0.14,-0.20,
2.446,-0.48,0.44,0.42,0.00,-0.14,-0.20,
2.454,-0.48,0.44,0.42,-0.06,-0.16,-0.18,
2.456,-0.48,0.44,0.42,-0.06,-0.16,-0.18,
2.456,-0.48,0.42,0.56,-0.06,-0.16,-0.18,
2.457,-0.48,0.42,0.56,-0.06,-0.16,-0.18,
2.464,-0.48,0.42,0.56,-0.07,-0.16,-0.14,
2.464,-0.48,0.42,0.56,-0.07,-0.16,-0.14,
2.465,-0.44,0.35,0.57,-0.07,-0.16,-0.14,
2.465,-0.44,0.35,0.57,-0.07,-0.16,-0.14,
2.473,-0.44,0.35,0.57,-0.03,-0.14,-0.08,
2.474,-0.44,0.35,0.57,-0.03,-0.14,-0.08,
2.475,-0.41,0.24,0.50,-0.03,-0.14,-0.08,
2.475,-0.41,0.24,0.50,-0.03,-0.14,-0.08,
2.482,-0.41,0.24,0.50,0.02,-0.12,-0.02,
2.483,-0.41,0.24,0.50,0.02,-0.12,-0.02,
2.483,-0.40,0.15,0.40,0.02,-0.12,-0.02,
2.484,-0.40,0.15,0.40,0.02,-0.12,-0.02,
2.492,-0.40,0.15,0.40,0.07,-0.12,0.04,
2.493,-0.40,0.15,0.40,0.07,-0.12,0.04,
2.493,-0.41,0.07,0.28,0.07,-0.12,0.04,
2.494,-0.41,0.07,0.28,0.07,-0.12,0.04,
2.502,-0.41,0.07,0.28,0.09,-0.13,0.10,
2.503,-0.41,0.07,0.28,0.09,-0.13,0.10,
2.504,-0.40,0.03,0.18,0.09,-0.13,0.10,
2.504,-0.40,0.03,0.18,0.09,-0.13,0.10,
2.511,-0.40,0.03,0.18,0.07,-0.15,0.16,
2.512,-0.40,0.03,0.18,0.07,-0.15,0.16,
2.513,-0.38,0.09,0.15,0.07,-0.15,0.16,
2.513,-0.38,0.09,0.15,0.07,-0.15,0.16,
2.521,-0.38,0.09,0.15,0.03,-0.18,0.22,
2.522,-0.38,0.09,0.15,0.03,-0.18,0.22,
2.523,-0.37,0.17,0.13,0.03,-0.18,0.22,
2.523,-0.37,0.17,0.13,0.03,-0.18,0.22,
2.53,-0.37,0.17,0.13,-0.02,-0.20,0.28,
2.531,-0.37,0.17,0.13,-0.02,-0.20,0.28,
2.532,-0.41,0.28,0.14,-0.02,-0.20,0.28,
2.532,-0.41,0.28,0.14,-0.02,-0.20,0.28,
2.54,-0.41,0.28,0.14,-0.07,-0.23,0.33,
2.54,-0.41,0.28,0.14,-0.07,-0.23,0.33,
2.541,-0.48,0.37,0.21,-0.07,-0.23,0.33,
2.541,-0.48,0.37,0.21,-0.07,-0.23,0.33,
2.551,-0.48,0.37,0.21,-0.09,-0.26,0.39,
2.552,-0.48,0.37,0.21,-0.09,-0.26,0.39,
2.552,-0.58,0.43,0.28,-0.09,-0.26,0.39,
2.552,-0.58,0.43,0.28,-0.09,-0.26,0.39,
2.559,-0.58,0.43,0.28,-0.09,-0.29,0.45,
2.559,-0.58,0.43,0.28,-0.09,-0.29,0.45,
2.559,-0.69,0.47,0.36,-0.09,-0.29,0.45,
2.56,-0.69,0.47,0.36,-0.09,-0.29,0.45,
2.568,-0.69,0.47,0.36,-0.06,-0.31,0.52,
2.569,-0.69,0.47,0.36,-0.06,-0.31,0.52,
2.57,-0.78,0.47,0.38,-0.06,-0.31,0.52,
2.57,-0.78,0.47,0.38,-0.06,-0.31,0.52,
2.578,-0.78,0.47,0.38,-0.01,-0.30,0.59,
2.579,-0.78,0.47,0.38,-0.01,-0.30,0.59,
2.58,-0.83,0.46,0.37,-0.01,-0.30,0.59,
2.58,-0.83,0.46,0.37,-0.01,-0.30,0.59,
2.589,-0.83,0.46,0.37,0.06,-0.27,0.66,
2.59,-0.83,0.46,0.37,0.06,-0.27,0.66,
2.591,-0.84,0.40,0.31,0.06,-0.27,0.66,
2.591,-0.84,0.40,0.31,0.06,-0.27,0.66,
2.597,-0.84,0.40,0.31,0.12,-0.22,0.71,
2.597,-0.84,0.40,0.31,0.12,-0.22,0.71,
2.597,-0.82,0.37,0.21,0.12,-0.22,0.71,
2.598,-0.82,0.37,0.21,0.12,-0.22,0.71,
2.606,-0.82,0.37,0.21,0.17,-0.17,0.73,
2.607,-0.82,0.37,0.21,0.17,-0.17,0.73,
2.608,-0.76,0.32,0.13,0.17,-0.17,0.73,
2.608,-0.76,0.32,0.13,0.17,-0.17,0.73,
2.615,-0.76,0.32,0.13,0.18,-0.12,0.72,
2.616,-0.76,0.32,0.13,0.18,-0.12,0.72,
2.616,-0.69,0.27,0.03,0.18,-0.12,0.72,
2.616,-0.69,0.27,0.03,0.18,-0.12,0.72,
2.625,-0.69,0.27,0.03,0.16,-0.10,0.69,
2.626,-0.69,0.27,0.03,0.16,-0.10,0.69,
2.626,-0.59,0.24,-0.06,0.16,-0.10,0.69,
2.627,-0.59,0.24,-0.06,0.16,-0.10,0.69,
2.636,-0.59,0.24,-0.06,0.11,-0.11,0.62,
2.636,-0.59,0.24,-0.06,0.11,-0.11,0.62,
2.637,-0.48,0.16,-0.14,0.11,-0.11,0.62,
2.637,-0.48,0.16,-0.14,0.11,-0.11,0.62,
2.645,-0.48,0.16,-0.14,0.11,-0.11,0.62,
2.645,-0.48,0.16,-0.14,0.11,-0.11,0.62,
2.646,-0.48,0.16,-0.14,0.11,-0.11,0.62,
2.646,-0.48,0.16,-0.14,0.11,-0.11,0.62,
2.654,-0.48,0.16,-0.14,0.03,-0.12,0.53,
2.655,-0.48,0.16,-0.14,0.03,-0.12,0.53,
2.656,-0.16,-0.01,-0.41,0.03,-0.12,0.53,
2.656,-0.16,-0.01,-0.41,0.03,-0.12,0.53,
2.664,-0.16,-0.01,-0.41,-0.05,-0.13,0.41,
2.664,-0.16,-0.01,-0.41,-0.05,-0.13,0.41,
2.665,-0.01,-0.07,-0.52,-0.05,-0.13,0.41,
2.665,-0.01,-0.07,-0.52,-0.05,-0.13,0.41,
2.674,-0.01,-0.07,-0.52,-0.15,-0.13,0.25,
2.676,-0.01,-0.07,-0.52,-0.15,-0.13,0.25,
2.676,0.13,-0.08,-0.61,-0.15,-0.13,0.25,
2.676,0.13,-0.08,-0.61,-0.15,-0.13,0.25,
2.695,0.13,-0.08,-0.61,-0.27,-0.13,0.06,
2.696,0.13,-0.08,-0.61,-0.27,-0.13,0.06,
2.697,0.28,-0.05,-0.67,-0.27,-0.13,0.06,
2.697,0.28,-0.05,-0.67,-0.27,-0.13,0.06,
2.697,0.28,-0.05,-0.67,-0.50,-0.20,-0.31,
2.698,0.28,-0.05,-0.67,-0.50,-0.20,-0.31,
2.698,0.48,-0.02,-0.67,-0.50,-0.20,-0.31,
2.699,0.48,-0.02,-0.67,-0.50,-0.20,-0.31,
2.701,0.48,-0.02,-0.67,-0.50,-0.20,-0.31,
2.703,0.48,-0.02,-0.67,-0.50,-0.20,-0.31,
2.703,0.48,-0.02,-0.67,-0.50,-0.20,-0.31,
2.704,0.48,-0.02,-0.67,-0.50,-0.20,-0.31,
2.711,0.48,-0.02,-0.67,-0.68,-0.26,-0.71,
2.712,0.48,-0.02,-0.67,-0.68,-0.26,-0.71,
2.712,0.92,0.08,-0.66,-0.68,-0.26,-0.71,
2.713,0.92,0.08,-0.66,-0.68,-0.26,-0.71,
2.72,0.92,0.08,-0.66,-0.68,-0.26,-0.71,
2.721,0.92,0.08,-0.66,-0.68,-0.26,-0.71,
2.722,0.92,0.08,-0.66,-0.68,-0.26,-0.71,
2.723,0.92,0.08,-0.66,-0.68,-0.26,-0.71,
2.73,0.92,0.08,-0.66,-0.67,-0.18,-1.08,
2.731,0.92,0.08,-0.66,-0.67,-0.18,-1.08,
2.732,1.08,0.20,-0.62,-0.67,-0.18,-1.08,
2.732,1.08,0.20,-0.62,-0.67,-0.18,-1.08,
2.74,1.08,0.20,-0.62,-0.61,-0.13,-1.18,
2.74,1.08,0.20,-0.62,-0.61,-0.13,-1.18,
2.741,0.99,0.19,-0.53,-0.61,-0.13,-1.18,
2.742,0.99,0.19,-0.53,-0.61,-0.13,-1.18,
2.752,0.99,0.19,-0.53,-0.53,-0.10,-1.20,
2.753,0.99,0.19,-0.53,-0.53,-0.10,-1.20,
2.753,0.76,0.08,-0.35,-0.53,-0.10,-1.20,
2.753,0.76,0.08,-0.35,-0.53,-0.10,-1.20,
2.759,0.76,0.08,-0.35,-0.45,-0.09,-1.16,
2.759,0.76,0.08,-0.35,-0.45,-0.09,-1.16,
2.759,0.60,0.07,-0.23,-0.45,-0.09,-1.16,
2.76,0.60,0.07,-0.23,-0.45,-0.09,-1.16,
2.768,0.60,0.07,-0.23,-0.34,-0.08,-1.07,
2.77,0.60,0.07,-0.23,-0.34,-0.08,-1.07,
2.77,0.47,0.16,-0.21,-0.34,-0.08,-1.07,
2.771,0.47,0.16,-0.21,-0.34,-0.08,-1.07,
2.777,0.47,0.16,-0.21,-0.22,-0.06,-0.90,
2.778,0.47,0.16,-0.21,-0.22,-0.06,-0.90,
2.778,0.26,0.26,-0.20,-0.22,-0.06,-0.90,
2.779,0.26,0.26,-0.20,-0.22,-0.06,-0.90,
2.787,0.26,0.26,-0.20,-0.10,-0.06,-0.70,
2.788,0.26,0.26,-0.20,-0.10,-0.06,-0.70,
2.789,0.10,0.37,-0.23,-0.10,-0.06,-0.70,
2.789,0.10,0.37,-0.23,-0.10,-0.06,-0.70,
2.796,0.10,0.37,-0.23,0.00,-0.08,-0.47,
2.797,0.10,0.37,-0.23,0.00,-0.08,-0.47,
2.797,-0.13,0.31,-0.20,0.00,-0.08,-0.47,
2.798,-0.13,0.31,-0.20,0.00,-0.08,-0.47,
2.806,-0.13,0.31,-0.20,0.07,-0.10,-0.22,
2.807,-0.13,0.31,-0.20,0.07,-0.10,-0.22,
2.807,-0.41,0.19,-0.06,0.07,-0.10,-0.22,
2.808,-0.41,0.19,-0.06,0.07,-0.10,-0.22,
2.815,-0.41,0.19,-0.06,0.12,-0.10,0.02,
2.816,-0.41,0.19,-0.06,0.12,-0.10,0.02,
2.816,-0.56,0.10,0.04,0.12,-0.10,0.02,
2.816,-0.56,0.10,0.04,0.12,-0.10,0.02,
2.826,-0.56,0.10,0.04,0.16,-0.09,0.26,
2.826,-0.56,0.10,0.04,0.16,-0.09,0.26,
2.827,-0.65,0.09,0.13,0.16,-0.09,0.26,
2.827,-0.65,0.09,0.13,0.16,-0.09,0.26,
2.835,-0.65,0.09,0.13,0.21,-0.08,0.49,
2.836,-0.65,0.09,0.13,0.21,-0.08,0.49,
2.837,-0.72,0.15,0.30,0.21,-0.08,0.49,
2.838,-0.72,0.15,0.30,0.21,-0.08,0.49,
2.844,-0.72,0.15,0.30,0.21,-0.08,0.49,
2.845,-0.72,0.15,0.30,0.21,-0.08,0.49,
2.846,-0.72,0.15,0.30,0.21,-0.08,0.49,
2.846,-0.72,0.15,0.30,0.21,-0.08,0.49,
2.861,-0.72,0.15,0.30,0.26,-0.07,0.68,
2.862,-0.72,0.15,0.30,0.26,-0.07,0.68,
2.863,-0.72,0.27,0.63,0.26,-0.07,0.68,
2.863,-0.72,0.27,0.63,0.26,-0.07,0.68,
2.864,-0.72,0.27,0.63,0.33,-0.05,0.82,
2.864,-0.72,0.27,0.63,0.33,-0.05,0.82,
2.865,-0.73,0.31,0.79,0.33,-0.05,0.82,
2.865,-0.73,0.31,0.79,0.33,-0.05,0.82,
2.873,-0.73,0.31,0.79,0.45,-0.01,0.90,
2.874,-0.73,0.31,0.79,0.45,-0.01,0.90,
2.874,-0.75,0.30,0.92,0.45,-0.01,0.90,
2.875,-0.75,0.30,0.92,0.45,-0.01,0.90,
2.882,-0.75,0.30,0.92,0.60,0.08,0.92,
2.883,-0.75,0.30,0.92,0.60,0.08,0.92,
2.883,-0.74,0.31,1.01,0.60,0.08,0.92,
2.883,-0.74,0.31,1.01,0.60,0.08,0.92,
2.892,-0.74,0.31,1.01,0.75,0.19,0.90,
2.893,-0.74,0.31,1.01,0.75,0.19,0.90,
2.893,-0.73,0.33,1.01,0.75,0.19,0.90,
2.894,-0.73,0.33,1.01,0.75,0.19,0.90,
2.902,-0.73,0.33,1.01,0.89,0.29,0.84,
2.903,-0.73,0.33,1.01,0.89,0.29,0.84,
2.903,-0.59,0.34,0.90,0.89,0.29,0.84,
2.904,-0.59,0.34,0.90,0.89,0.29,0.84,
2.911,-0.59,0.34,0.90,0.98,0.39,0.76,
2.912,-0.59,0.34,0.90,0.98,0.39,0.76,
2.913,-0.37,0.35,0.69,0.98,0.39,0.76,
2.913,-0.37,0.35,0.69,0.98,0.39,0.76,
2.921,-0.37,0.35,0.69,1.00,0.46,0.66,
2.922,-0.37,0.35,0.69,1.00,0.46,0.66,
2.922,-0.09,0.34,0.41,1.00,0.46,0.66,
2.923,-0.09,0.34,0.41,1.00,0.46,0.66,
2.93,-0.09,0.34,0.41,0.94,0.51,0.51,
2.93,-0.09,0.34,0.41,0.94,0.51,0.51,
2.931,0.22,0.34,0.18,0.94,0.51,0.51,
2.931,0.22,0.34,0.18,0.94,0.51,0.51,
2.94,0.22,0.34,0.18,0.81,0.52,0.33,
2.94,0.22,0.34,0.18,0.81,0.52,0.33,
2.941,0.50,0.34,0.02,0.81,0.52,0.33,
2.941,0.50,0.34,0.02,0.81,0.52,0.33,
2.951,0.50,0.34,0.02,0.60,0.50,0.11,
2.952,0.50,0.34,0.02,0.60,0.50,0.11,
2.952,0.70,0.38,-0.03,0.60,0.50,0.11,
2.952,0.70,0.38,-0.03,0.60,0.50,0.11,
2.958,0.70,0.38,-0.03,0.36,0.45,-0.14,
2.959,0.70,0.38,-0.03,0.36,0.45,-0.14,
2.959,0.72,0.36,-0.08,0.36,0.45,-0.14,
2.959,0.72,0.36,-0.08,0.36,0.45,-0.14,
2.968,0.72,0.36,-0.08,0.13,0.38,-0.38,
2.969,0.72,0.36,-0.08,0.13,0.38,-0.38,
2.969,0.64,0.25,-0.17,0.13,0.38,-0.38,
2.97,0.64,0.25,-0.17,0.13,0.38,-0.38,
2.977,0.64,0.25,-0.17,-0.07,0.29,-0.59,
2.978,0.64,0.25,-0.17,-0.07,0.29,-0.59,
2.979,0.51,0.07,-0.30,-0.07,0.29,-0.59,
2.979,0.51,0.07,-0.30,-0.07,0.29,-0.59,
2.987,0.51,0.07,-0.30,-0.23,0.20,-0.72,
2.989,0.51,0.07,-0.30,-0.23,0.20,-0.72,
2.989,0.41,-0.19,-0.47,-0.23,0.20,-0.72,
2.99,0.41,-0.19,-0.47,-0.23,0.20,-0.72,
2.997,0.41,-0.19,-0.47,-0.38,0.11,-0.77,
2.997,0.41,-0.19,-0.47,-0.38,0.11,-0.77,
2.998,0.37,-0.39,-0.59,-0.38,0.11,-0.77,
2.998,0.37,-0.39,-0.59,-0.38,0.11,-0.77,
3.006,0.37,-0.39,-0.59,-0.53,0.01,-0.75,
3.007,0.37,-0.39,-0.59,-0.53,0.01,-0.75,
3.008,0.35,-0.49,-0.64,-0.53,0.01,-0.75,
3.008,0.35,-0.49,-0.64,-0.53,0.01,-0.75,
3.016,0.35,-0.49,-0.64,-0.67,-0.07,-0.69,
3.017,0.35,-0.49,-0.64,-0.67,-0.07,-0.69,
3.017,0.28,-0.48,-0.62,-0.67,-0.07,-0.69,
3.018,0.28,-0.48,-0.62,-0.67,-0.07,-0.69,
3.026,0.28,-0.48,-0.62,-0.79,-0.13,-0.61,
3.027,0.28,-0.48,-0.62,-0.79,-0.13,-0.61,
3.027,0.16,-0.34,-0.52,-0.79,-0.13,-0.61,
3.028,0.16,-0.34,-0.52,-0.79,-0.13,-0.61,
3.035,0.16,-0.34,-0.52,-0.79,-0.13,-0.61,
3.036,0.16,-0.34,-0.52,-0.79,-0.13,-0.61,
3.036,0.16,-0.34,-0.52,-0.79,-0.13,-0.61,
3.037,0.16,-0.34,-0.52,-0.79,-0.13,-0.61,
3.044,0.16,-0.34,-0.52,-0.86,-0.17,-0.53,
3.045,0.16,-0.34,-0.52,-0.86,-0.17,-0.53,
3.046,-0.17,0.13,-0.11,-0.86,-0.17,-0.53,
3.046,-0.17,0.13,-0.11,-0.86,-0.17,-0.53,
3.055,-0.17,0.13,-0.11,-0.86,-0.21,-0.42,
3.055,-0.17,0.13,-0.11,-0.86,-0.21,-0.42,
3.056,-0.34,0.37,0.06,-0.86,-0.21,-0.42,
3.056,-0.34,0.37,0.06,-0.86,-0.21,-0.42,
3.063,-0.34,0.37,0.06,-0.77,-0.23,-0.27,
3.064,-0.34,0.37,0.06,-0.77,-0.23,-0.27,
3.064,-0.45,0.48,0.17,-0.77,-0.23,-0.27,
3.064,-0.45,0.48,0.17,-0.77,-0.23,-0.27,
3.073,-0.45,0.48,0.17,-0.59,-0.23,-0.08,
3.073,-0.45,0.48,0.17,-0.59,-0.23,-0.08,
3.074,-0.52,0.48,0.19,-0.59,-0.23,-0.08,
3.074,-0.52,0.48,0.19,-0.59,-0.23,-0.08,
3.082,-0.52,0.48,0.19,-0.37,-0.21,0.13,
3.083,-0.52,0.48,0.19,-0.37,-0.21,0.13,
3.083,-0.50,0.37,0.09,-0.37,-0.21,0.13,
3.083,-0.50,0.37,0.09,-0.37,-0.21,0.13,
3.092,-0.50,0.37,0.09,-0.17,-0.21,0.31,
3.092,-0.50,0.37,0.09,-0.17,-0.21,0.31,
3.093,-0.42,0.22,0.01,-0.17,-0.21,0.31,
3.093,-0.42,0.22,0.01,-0.17,-0.21,0.31,
3.102,-0.42,0.22,0.01,-0.03,-0.22,0.45,
3.102,-0.42,0.22,0.01,-0.03,-0.22,0.45,
3.103,-0.35,0.12,-0.07,-0.03,-0.22,0.45,
3.103,-0.35,0.12,-0.07,-0.03,-0.22,0.45,
3.111,-0.35,0.12,-0.07,0.04,-0.23,0.52,
3.112,-0.35,0.12,-0.07,0.04,-0.23,0.52,
3.112,-0.31,0.08,-0.12,0.04,-0.23,0.52,
3.113,-0.31,0.08,-0.12,0.04,-0.23,0.52,
3.121,-0.31,0.08,-0.12,0.06,-0.23,0.53,
3.122,-0.31,0.08,-0.12,0.06,-0.23,0.53,
3.122,-0.30,0.13,-0.12,0.06,-0.23,0.53,
3.123,-0.30,0.13,-0.12,0.06,-0.23,0.53,
3.13,-0.30,0.13,-0.12,0.04,-0.22,0.50,
3.131,-0.30,0.13,-0.12,0.04,-0.22,0.50,
3.131,-0.31,0.23,-0.09,0.04,-0.22,0.50,
3.131,-0.31,0.23,-0.09,0.04,-0.22,0.50,
3.14,-0.31,0.23,-0.09,0.01,-0.21,0.45,
3.14,-0.31,0.23,-0.09,0.01,-0.21,0.45,
3.141,-0.32,0.36,-0.00,0.01,-0.21,0.45,
3.141,-0.32,0.36,-0.00,0.01,-0.21,0.45,
3.151,-0.32,0.36,-0.00,-0.01,-0.22,0.41,
3.152,-0.32,0.36,-0.00,-0.01,-0.22,0.41,
3.152,-0.32,0.45,0.12,-0.01,-0.22,0.41,
3.152,-0.32,0.45,0.12,-0.01,-0.22,0.41,
3.159,-0.32,0.45,0.12,-0.01,-0.22,0.37,
3.159,-0.32,0.45,0.12,-0.01,-0.22,0.37,
3.159,-0.33,0.47,0.26,-0.01,-0.22,0.37,
3.16,-0.33,0.47,0.26,-0.01,-0.22,0.37,
3.168,-0.33,0.47,0.26,0.03,-0.22,0.35,
3.168,-0.33,0.47,0.26,0.03,-0.22,0.35,
3.168,-0.34,0.46,0.36,0.03,-0.22,0.35,
3.169,-0.34,0.46,0.36,0.03,-0.22,0.35,
3.177,-0.34,0.46,0.36,0.10,-0.21,0.33,
3.178,-0.34,0.46,0.36,0.10,-0.21,0.33,
3.179,-0.31,0.43,0.42,0.10,-0.21,0.33,
3.179,-0.31,0.43,0.42,0.10,-0.21,0.33,
3.188,-0.31,0.43,0.42,0.19,-0.20,0.32,
3.188,-0.31,0.43,0.42,0.19,-0.20,0.32,
3.189,-0.23,0.39,0.45,0.19,-0.20,0.32,
3.189,-0.23,0.39,0.45,0.19,-0.20,0.32,
3.197,-0.23,0.39,0.45,0.27,-0.20,0.30,
3.197,-0.23,0.39,0.45,0.27,-0.20,0.30,
3.198,-0.13,0.35,0.43,0.27,-0.20,0.30,
3.199,-0.13,0.35,0.43,0.27,-0.20,0.30,
3.206,-0.13,0.35,0.43,0.34,-0.19,0.27,
3.207,-0.13,0.35,0.43,0.34,-0.19,0.27,
3.208,-0.05,0.29,0.37,0.34,-0.19,0.27,
3.208,-0.05,0.29,0.37,0.34,-0.19,0.27,
3.216,-0.05,0.29,0.37,0.39,-0.14,0.21,
3.217,-0.05,0.29,0.37,0.39,-0.14,0.21,
3.217,0.02,0.20,0.31,0.39,-0.14,0.21,
3.218,0.02,0.20,0.31,0.39,-0.14,0.21,
3.225,0.02,0.20,0.31,0.41,-0.08,0.13,
3.226,0.02,0.20,0.31,0.41,-0.08,0.13,
3.227,0.04,0.13,0.26,0.41,-0.08,0.13,
3.227,0.04,0.13,0.26,0.41,-0.08,0.13,
3.235,0.04,0.13,0.26,0.41,-0.08,0.13,
3.236,0.04,0.13,0.26,0.41,-0.08,0.13,
3.236,0.04,0.13,0.26,0.41,-0.08,0.13,
3.236,0.04,0.13,0.26,0.41,-0.08,0.13,
3.246,0.04,0.13,0.26,0.34,-0.01,-0.04,
3.246,0.04,0.13,0.26,0.34,-0.01,-0.04,
3.247,-0.00,0.16,0.13,0.34,-0.01,-0.04,
3.247,-0.00,0.16,0.13,0.34,-0.01,-0.04,
3.254,-0.00,0.16,0.13,0.34,-0.01,-0.04,
3.255,-0.00,0.16,0.13,0.34,-0.01,-0.04,
3.256,-0.00,0.16,0.13,0.34,-0.01,-0.04,
3.256,-0.00,0.16,0.13,0.34,-0.01,-0.04,
3.266,-0.00,0.16,0.13,0.27,-0.00,-0.09,
3.267,-0.00,0.16,0.13,0.27,-0.00,-0.09,
3.267,0.00,0.31,-0.04,0.27,-0.00,-0.09,
3.267,0.00,0.31,-0.04,0.27,-0.00,-0.09,
3.273,0.00,0.31,-0.04,0.18,0.00,-0.11,
3.273,0.00,0.31,-0.04,0.18,0.00,-0.11,
3.274,0.06,0.42,-0.13,0.18,0.00,-0.11,
3.275,0.06,0.42,-0.13,0.18,0.00,-0.11,
3.282,0.06,0.42,-0.13,0.08,-0.02,-0.11,
3.282,0.06,0.42,-0.13,0.08,-0.02,-0.11,
3.283,0.11,0.49,-0.21,0.08,-0.02,-0.11,
3.283,0.11,0.49,-0.21,0.08,-0.02,-0.11,
3.292,0.11,0.49,-0.21,-0.02,-0.05,-0.09,
3.293,0.11,0.49,-0.21,-0.02,-0.05,-0.09,
3.293,0.15,0.54,-0.26,-0.02,-0.05,-0.09,
3.294,0.15,0.54,-0.26,-0.02,-0.05,-0.09,
3.301,0.15,0.54,-0.26,-0.12,-0.09,-0.07,
3.302,0.15,0.54,-0.26,-0.12,-0.09,-0.07,
3.303,0.15,0.56,-0.29,-0.12,-0.09,-0.07,
3.303,0.15,0.56,-0.29,-0.12,-0.09,-0.07,
3.311,0.15,0.56,-0.29,-0.21,-0.13,-0.05,
3.312,0.15,0.56,-0.29,-0.21,-0.13,-0.05,
3.312,0.14,0.49,-0.31,-0.21,-0.13,-0.05,
3.313,0.14,0.49,-0.31,-0.21,-0.13,-0.05,
3.32,0.14,0.49,-0.31,-0.28,-0.15,-0.04,
3.321,0.14,0.49,-0.31,-0.28,-0.15,-0.04,
3.322,0.10,0.40,-0.36,-0.28,-0.15,-0.04,
3.323,0.10,0.40,-0.36,-0.28,-0.15,-0.04,
3.333,0.10,0.40,-0.36,-0.33,-0.14,-0.03,
3.334,0.10,0.40,-0.36,-0.33,-0.14,-0.03,
3.335,0.08,0.27,-0.44,-0.33,-0.14,-0.03,
3.335,0.08,0.27,-0.44,-0.33,-0.14,-0.03,
3.339,0.08,0.27,-0.44,-0.36,-0.12,-0.02,
3.34,0.08,0.27,-0.44,-0.36,-0.12,-0.02,
3.34,0.11,0.14,-0.55,-0.36,-0.12,-0.02,
3.341,0.11,0.14,-0.55,-0.36,-0.12,-0.02,
3.349,0.11,0.14,-0.55,-0.39,-0.10,-0.01,
3.351,0.11,0.14,-0.55,-0.39,-0.10,-0.01,
3.351,0.17,0.03,-0.64,-0.39,-0.10,-0.01,
3.351,0.17,0.03,-0.64,-0.39,-0.10,-0.01,
3.358,0.17,0.03,-0.64,-0.44,-0.09,0.00,
3.359,0.17,0.03,-0.64,-0.44,-0.09,0.00,
3.359,0.30,-0.06,-0.66,-0.44,-0.09,0.00,
3.36,0.30,-0.06,-0.66,-0.44,-0.09,0.00,
3.368,0.30,-0.06,-0.66,-0.49,-0.11,-0.00,
3.368,0.30,-0.06,-0.66,-0.49,-0.11,-0.00,
3.369,0.42,-0.12,-0.56,-0.49,-0.11,-0.00,
3.369,0.42,-0.12,-0.56,-0.49,-0.11,-0.00,
3.377,0.42,-0.12,-0.56,-0.54,-0.13,-0.03,
3.378,0.42,-0.12,-0.56,-0.54,-0.13,-0.03,
3.378,0.48,-0.17,-0.43,-0.54,-0.13,-0.03,
3.378,0.48,-0.17,-0.43,-0.54,-0.13,-0.03,
3.387,0.48,-0.17,-0.43,-0.56,-0.15,-0.09,
3.388,0.48,-0.17,-0.43,-0.56,-0.15,-0.09,
3.388,0.49,-0.19,-0.29,-0.56,-0.15,-0.09,
3.389,0.49,-0.19,-0.29,-0.56,-0.15,-0.09,
3.397,0.49,-0.19,-0.29,-0.52,-0.15,-0.16,
3.397,0.49,-0.19,-0.29,-0.52,-0.15,-0.16,
3.398,0.40,-0.17,-0.19,-0.52,-0.15,-0.16,
3.398,0.40,-0.17,-0.19,-0.52,-0.15,-0.16,
3.406,0.40,-0.17,-0.19,-0.44,-0.13,-0.23,
3.407,0.40,-0.17,-0.19,-0.44,-0.13,-0.23,
3.407,0.26,-0.09,-0.21,-0.44,-0.13,-0.23,
3.408,0.26,-0.09,-0.21,-0.44,-0.13,-0.23,
3.416,0.26,-0.09,-0.21,-0.33,-0.09,-0.27,
3.416,0.26,-0.09,-0.21,-0.33,-0.09,-0.27,
3.417,0.09,0.00,-0.29,-0.33,-0.09,-0.27,
3.417,0.09,0.00,-0.29,-0.33,-0.09,-0.27,
3.425,0.09,0.00,-0.29,-0.22,-0.05,-0.26,
3.426,0.09,0.00,-0.29,-0.22,-0.05,-0.26,
3.426,-0.09,0.11,-0.36,-0.22,-0.05,-0.26,
3.427,-0.09,0.11,-0.36,-0.22,-0.05,-0.26,
3.435,-0.09,0.11,-0.36,-0.22,-0.05,-0.26,
3.435,-0.09,0.11,-0.36,-0.22,-0.05,-0.26,
3.436,-0.09,0.11,-0.36,-0.22,-0.05,-0.26,
3.436,-0.09,0.11,-0.36,-0.22,-0.05,-0.26,
3.444,-0.09,0.11,-0.36,-0.14,-0.00,-0.20,
3.445,-0.09,0.11,-0.36,-0.14,-0.00,-0.20,
3.446,-0.32,0.30,-0.39,-0.14,-0.00,-0.20,
3.446,-0.32,0.30,-0.39,-0.14,-0.00,-0.20,
3.455,-0.32,0.30,-0.39,-0.09,0.01,-0.08,
3.457,-0.32,0.30,-0.39,-0.09,0.01,-0.08,
3.458,-0.38,0.42,-0.32,-0.09,0.01,-0.08,
3.459,-0.38,0.42,-0.32,-0.09,0.01,-0.08,
3.463,-0.38,0.42,-0.32,-0.08,-0.01,0.07,
3.464,-0.38,0.42,-0.32,-0.08,-0.01,0.07,
3.464,-0.39,0.51,-0.26,-0.08,-0.01,0.07,
3.465,-0.39,0.51,-0.26,-0.08,-0.01,0.07,
3.473,-0.39,0.51,-0.26,-0.08,-0.06,0.24,
3.474,-0.39,0.51,-0.26,-0.08,-0.06,0.24,
3.474,-0.37,0.58,-0.18,-0.08,-0.06,0.24,
3.475,-0.37,0.58,-0.18,-0.08,-0.06,0.24,
3.482,-0.37,0.58,-0.18,-0.06,-0.11,0.38,
3.482,-0.37,0.58,-0.18,-0.06,-0.11,0.38,
3.483,-0.34,0.61,-0.09,-0.06,-0.11,0.38,
3.483,-0.34,0.61,-0.09,-0.06,-0.11,0.38,
3.492,-0.34,0.61,-0.09,-0.03,-0.13,0.48,
3.492,-0.34,0.61,-0.09,-0.03,-0.13,0.48,
3.493,-0.27,0.62,-0.01,-0.03,-0.13,0.48,
3.493,-0.27,0.62,-0.01,-0.03,-0.13,0.48,
3.501,-0.27,0.62,-0.01,0.02,-0.14,0.53,
3.502,-0.27,0.62,-0.01,0.02,-0.14,0.53,
3.502,-0.18,0.59,0.10,0.02,-0.14,0.53,
3.503,-0.18,0.59,0.10,0.02,-0.14,0.53,
3.511,-0.18,0.59,0.10,0.09,-0.14,0.53,
3.512,-0.18,0.59,0.10,0.09,-0.14,0.53,
3.512,-0.06,0.55,0.16,0.09,-0.14,0.53,
3.513,-0.06,0.55,0.16,0.09,-0.14,0.53,
3.52,-0.06,0.55,0.16,0.16,-0.15,0.49,
3.521,-0.06,0.55,0.16,0.16,-0.15,0.49,
3.521,0.11,0.51,0.18,0.16,-0.15,0.49,
3.522,0.11,0.51,0.18,0.16,-0.15,0.49,
3.53,0.11,0.51,0.18,0.23,-0.14,0.40,
3.531,0.26,0.44,0.16,0.23,-0.14,0.40,
3.531,0.26,0.44,0.16,0.23,-0.14,0.40,
3.532,0.26,0.44,0.16,0.23,-0.14,0.40,
3.539,0.26,0.44,0.16,0.29,-0.12,0.28,
3.54,0.26,0.44,0.16,0.29,-0.12,0.28,
3.54,0.38,0.38,0.07,0.29,-0.12,0.28,
3.541,0.38,0.38,0.07,0.29,-0.12,0.28,
3.552,0.38,0.38,0.07,0.33,-0.09,0.12,
3.553,0.38,0.38,0.07,0.33,-0.09,0.12,
3.553,0.46,0.33,-0.05,0.33,-0.09,0.12,
3.554,0.46,0.33,-0.05,0.33,-0.09,0.12,
3.558,0.46,0.33,-0.05,0.32,-0.06,-0.04,
3.559,0.46,0.33,-0.05,0.32,-0.06,-0.04,
3.559,0.49,0.29,-0.15,0.32,-0.06,-0.04,
3.56,0.49,0.29,-0.15,0.32,-0.06,-0.04,
3.568,0.49,0.29,-0.15,0.27,-0.05,-0.19,
3.568,0.49,0.29,-0.15,0.27,-0.05,-0.19,
3.569,0.52,0.26,-0.17,0.27,-0.05,-0.19,
3.569,0.52,0.26,-0.17,0.27,-0.05,-0.19,
3.577,0.52,0.26,-0.17,0.19,-0.05,-0.32,
3.578,0.52,0.26,-0.17,0.19,-0.05,-0.32,
3.578,0.58,0.28,-0.11,0.19,-0.05,-0.32,
3.579,0.58,0.28,-0.11,0.19,-0.05,-0.32,
3.587,0.58,0.28,-0.11,0.10,-0.04,-0.41,
3.588,0.58,0.28,-0.11,0.10,-0.04,-0.41,
3.589,0.70,0.26,0.05,0.10,-0.04,-0.41,
3.589,0.70,0.26,0.05,0.10,-0.04,-0.41,
3.596,0.70,0.26,0.05,0.03,-0.02,-0.48,
3.597,0.70,0.26,0.05,0.03,-0.02,-0.48,
3.597,0.81,0.22,0.22,0.03,-0.02,-0.48,
3.598,0.81,0.22,0.22,0.03,-0.02,-0.48,
3.606,0.81,0.22,0.22,0.01,0.02,-0.54,
3.607,0.81,0.22,0.22,0.01,0.02,-0.54,
3.608,0.91,0.22,0.34,0.01,0.02,-0.54,
3.608,0.91,0.22,0.34,0.01,0.02,-0.54,
3.615,0.91,0.22,0.34,0.04,0.08,-0.61,
3.616,0.91,0.22,0.34,0.04,0.08,-0.61,
3.616,0.96,0.23,0.42,0.04,0.08,-0.61,
3.617,0.96,0.23,0.42,0.04,0.08,-0.61,
3.625,0.96,0.23,0.42,0.12,0.14,-0.67,
3.626,0.96,0.23,0.42,0.12,0.14,-0.67,
3.626,0.95,0.35,0.44,0.12,0.14,-0.67,
3.627,0.95,0.35,0.44,0.12,0.14,-0.67,
3.634,0.95,0.35,0.44,0.12,0.14,-0.67,
3.635,0.95,0.35,0.44,0.12,0.14,-0.67,
3.635,0.95,0.35,0.44,0.12,0.14,-0.67,
3.636,0.95,0.35,0.44,0.12,0.14,-0.67,
3.644,0.95,0.35,0.44,0.21,0.19,-0.73,
3.645,0.95,0.35,0.44,0.21,0.19,-0.73,
3.646,0.85,0.57,0.46,0.21,0.19,-0.73,
3.647,0.85,0.57,0.46,0.21,0.19,-0.73,
3.654,0.85,0.57,0.46,0.29,0.23,-0.76,
3.655,0.85,0.57,0.46,0.29,0.23,-0.76,
3.656,0.75,0.57,0.53,0.29,0.23,-0.76,
3.656,0.75,0.57,0.53,0.29,0.23,-0.76,
3.669,0.75,0.57,0.53,0.35,0.25,-0.75,
3.67,0.75,0.57,0.53,0.35,0.25,-0.75,
3.671,0.67,0.34,0.65,0.35,0.25,-0.75,
3.671,0.67,0.34,0.65,0.35,0.25,-0.75,
3.672,0.67,0.34,0.65,0.40,0.27,-0.69,
3.673,0.67,0.34,0.65,0.40,0.27,-0.69,
3.673,0.67,0.03,0.76,0.40,0.27,-0.69,
3.673,0.67,0.03,0.76,0.40,0.27,-0.69,
3.694,0.67,0.03,0.76,0.45,0.29,-0.61,
3.696,0.67,0.03,0.76,0.45,0.29,-0.61,
3.696,0.81,-0.31,0.78,0.45,0.29,-0.61,
3.697,0.81,-0.31,0.78,0.45,0.29,-0.61,
3.697,0.81,-0.31,0.78,0.49,0.32,-0.49,
3.698,0.81,-0.31,0.78,0.49,0.32,-0.49,
3.698,1.05,-0.62,0.69,0.49,0.32,-0.49,
3.699,1.05,-0.62,0.69,0.49,0.32,-0.49,
3.702,1.05,-0.62,0.69,0.49,0.32,-0.49,
3.703,1.05,-0.62,0.69,0.49,0.32,-0.49,
3.703,1.05,-0.62,0.69,0.49,0.32,-0.49,
3.704,1.05,-0.62,0.69,0.49,0.32,-0.49,
3.711,1.05,-0.62,0.69,0.42,0.29,-0.61,
3.712,1.05,-0.62,0.69,0.42,0.29,-0.61,
3.712,1.34,-0.95,0.28,0.42,0.29,-0.61,
3.713,1.34,-0.95,0.28,0.42,0.29,-0.61,
3.72,1.34,-0.95,0.28,0.42,0.29,-0.61,
3.721,1.34,-0.95,0.28,0.42,0.29,-0.61,
3.721,1.34,-0.95,0.28,0.42,0.29,-0.61,
3.722,1.34,-0.95,0.28,0.42,0.29,-0.61,
3.729,1.34,-0.95,0.28,0.12,0.16,-0.83,
3.73,1.34,-0.95,0.28,0.12,0.16,-0.83,
3.73,0.92,-0.87,0.31,0.12,0.16,-0.83,
3.731,0.92,-0.87,0.31,0.12,0.16,-0.83,
3.739,0.92,-0.87,0.31,-0.03,0.11,-0.83,
3.74,0.92,-0.87,0.31,-0.03,0.11,-0.83,
3.74,0.57,-0.77,0.55,-0.03,0.11,-0.83,
3.741,0.57,-0.77,0.55,-0.03,0.11,-0.83,
3.75,0.57,-0.77,0.55,-0.10,0.11,-0.74,
3.751,0.57,-0.77,0.55,-0.10,0.11,-0.74,
3.751,0.31,-0.77,0.75,-0.10,0.11,-0.74,
3.751,0.31,-0.77,0.75,-0.10,0.11,-0.74,
3.758,0.31,-0.77,0.75,-0.11,0.13,-0.59,
3.758,0.31,-0.77,0.75,-0.11,0.13,-0.59,
3.759,0.20,-0.93,0.87,-0.11,0.13,-0.59,
3.759,0.20,-0.93,0.87,-0.11,0.13,-0.59,
3.768,0.20,-0.93,0.87,-0.05,0.16,-0.40,
3.769,0.20,-0.93,0.87,-0.05,0.16,-0.40,
3.769,0.31,-1.17,0.89,-0.05,0.16,-0.40,
3.769,0.31,-1.17,0.89,-0.05,0.16,-0.40,
3.777,0.31,-1.17,0.89,0.04,0.19,-0.22,
3.778,0.31,-1.17,0.89,0.04,0.19,-0.22,
3.778,0.59,-1.42,0.89,0.04,0.19,-0.22,
3.779,0.59,-1.42,0.89,0.04,0.19,-0.22,
3.787,0.59,-1.42,0.89,0.14,0.21,-0.08,
3.788,0.59,-1.42,0.89,0.14,0.21,-0.08,
3.788,0.95,-1.49,0.91,0.14,0.21,-0.08,
3.789,0.95,-1.49,0.91,0.14,0.21,-0.08,
3.796,0.95,-1.49,0.91,0.21,0.21,-0.03,
3.797,0.95,-1.49,0.91,0.21,0.21,-0.03,
3.797,1.29,-1.32,0.98,0.21,0.21,-0.03,
3.797,1.29,-1.32,0.98,0.21,0.21,-0.03,
3.806,1.29,-1.32,0.98,0.25,0.21,-0.08,
3.808,1.29,-1.32,0.98,0.25,0.21,-0.08,
3.808,1.53,-0.91,1.14,0.25,0.21,-0.08,
3.809,1.53,-0.91,1.14,0.25,0.21,-0.08,
3.815,1.53,-0.91,1.14,0.29,0.20,-0.22,
3.818,1.53,-0.91,1.14,0.29,0.20,-0.22,
3.818,1.65,-0.31,1.34,0.29,0.20,-0.22,
3.819,1.65,-0.31,1.34,0.29,0.20,-0.22,
3.825,1.65,-0.31,1.34,0.29,0.20,-0.22,
3.825,1.65,-0.31,1.34,0.29,0.20,-0.22,
3.826,1.65,-0.31,1.34,0.29,0.20,-0.22,
3.826,1.65,-0.31,1.34,0.29,0.20,-0.22,
3.834,1.65,-0.31,1.34,0.35,0.17,-0.41,
3.835,1.65,-0.31,1.34,0.35,0.17,-0.41,
3.835,1.68,0.92,1.70,0.35,0.17,-0.41,
3.836,1.68,0.92,1.70,0.35,0.17,-0.41,
3.844,1.68,0.92,1.70,0.46,0.13,-0.59,
3.844,1.68,0.92,1.70,0.46,0.13,-0.59,
3.845,1.58,1.28,1.67,0.46,0.13,-0.59,
3.845,1.58,1.28,1.67,0.46,0.13,-0.59,
3.854,1.58,1.28,1.67,0.63,0.10,-0.73,
3.856,1.58,1.28,1.67,0.63,0.10,-0.73,
3.856,1.37,1.37,1.39,0.63,0.10,-0.73,
3.857,1.37,1.37,1.39,0.63,0.10,-0.73,
3.863,1.37,1.37,1.39,0.84,0.10,-0.81,
3.864,1.37,1.37,1.39,0.84,0.10,-0.81,
3.864,1.01,1.20,0.95,0.84,0.10,-0.81,
3.865,1.01,1.20,0.95,0.84,0.10,-0.81,
3.872,1.01,1.20,0.95,1.01,0.11,-0.81,
3.873,1.01,1.20,0.95,1.01,0.11,-0.81,
3.874,0.56,0.93,0.44,1.01,0.11,-0.81,
3.874,0.56,0.93,0.44,1.01,0.11,-0.81,
3.882,0.56,0.93,0.44,1.04,0.12,-0.72,
3.882,0.56,0.93,0.44,1.04,0.12,-0.72,
3.883,0.07,0.66,-0.07,1.04,0.12,-0.72,
3.883,0.07,0.66,-0.07,1.04,0.12,-0.72,
3.891,0.07,0.66,-0.07,0.88,0.08,-0.52,
3.892,0.07,0.66,-0.07,0.88,0.08,-0.52,
3.892,-0.38,0.51,-0.57,0.88,0.08,-0.52,
3.893,-0.38,0.51,-0.57,0.88,0.08,-0.52,
3.901,-0.38,0.51,-0.57,0.56,-0.01,-0.19,
3.902,-0.38,0.51,-0.57,0.56,-0.01,-0.19,
3.902,-0.70,0.47,-0.99,0.56,-0.01,-0.19,
3.902,-0.70,0.47,-0.99,0.56,-0.01,-0.19,
3.911,-0.70,0.47,-0.99,0.12,-0.14,0.21,
3.912,-0.70,0.47,-0.99,0.12,-0.14,0.21,
3.912,-0.91,0.47,-1.29,0.12,-0.14,0.21,
3.913,-0.91,0.47,-1.29,0.12,-0.14,0.21,
3.922,-0.91,0.47,-1.29,-0.36,-0.28,0.63,
3.924,-0.91,0.47,-1.29,-0.36,-0.28,0.63,
3.924,-0.96,0.49,-1.40,-0.36,-0.28,0.63,
3.925,-0.96,0.49,-1.40,-0.36,-0.28,0.63,
3.929,-0.96,0.49,-1.40,-0.83,-0.41,1.00,
3.93,-0.96,0.49,-1.40,-0.83,-0.41,1.00,
3.93,-0.91,0.50,-1.33,-0.83,-0.41,1.00,
3.931,-0.91,0.50,-1.33,-0.83,-0.41,1.00,
3.939,-0.91,0.50,-1.33,-1.21,-0.49,1.26,
3.94,-0.91,0.50,-1.33,-1.21,-0.49,1.26,
3.94,-0.75,0.46,-1.11,-1.21,-0.49,1.26,
3.941,-0.75,0.46,-1.11,-1.21,-0.49,1.26,
3.95,-0.75,0.46,-1.11,-1.45,-0.52,1.40,
3.951,-0.75,0.46,-1.11,-1.45,-0.52,1.40,
3.951,-0.50,0.37,-0.83,-1.45,-0.52,1.40,
3.951,-0.50,0.37,-0.83,-1.45,-0.52,1.40,
3.958,-0.50,0.37,-0.83,-1.53,-0.49,1.40,
3.958,-0.50,0.37,-0.83,-1.53,-0.49,1.40,
3.959,-0.22,0.28,-0.58,-1.53,-0.49,1.40,
3.959,-0.22,0.28,-0.58,-1.53,-0.49,1.40,
3.967,-0.22,0.28,-0.58,-1.45,-0.41,1.28,
3.968,-0.22,0.28,-0.58,-1.45,-0.41,1.28,
3.968,0.12,0.13,-0.33,-1.45,-0.41,1.28,
3.968,0.12,0.13,-0.33,-1.45,-0.41,1.28,
3.977,0.12,0.13,-0.33,-1.24,-0.30,1.05,
3.978,0.12,0.13,-0.33,-1.24,-0.30,1.05,
3.978,0.46,0.00,-0.13,-1.24,-0.30,1.05,
3.978,0.46,0.00,-0.13,-1.24,-0.30,1.05,
3.987,0.46,0.00,-0.13,-0.95,-0.16,0.72,
3.988,0.46,0.00,-0.13,-0.95,-0.16,0.72,
3.989,0.78,-0.13,-0.04,-0.95,-0.16,0.72,
3.989,0.78,-0.13,-0.04,-0.95,-0.16,0.72,
3.996,0.78,-0.13,-0.04,-0.62,-0.00,0.34,
3.997,0.78,-0.13,-0.04,-0.62,-0.00,0.34,
3.997,1.07,-0.28,-0.02,-0.62,-0.00,0.34,
3.997,1.07,-0.28,-0.02,-0.62,-0.00,0.34,
4.006,1.07,-0.28,-0.02,-0.32,0.15,-0.07,
4.007,1.07,-0.28,-0.02,-0.32,0.15,-0.07,
4.007,1.30,-0.39,-0.08,-0.32,0.15,-0.07,
4.007,1.30,-0.39,-0.08,-0.32,0.15,-0.07,
4.015,1.30,-0.39,-0.08,-0.07,0.28,-0.47,
4.016,1.30,-0.39,-0.08,-0.07,0.28,-0.47,
4.017,1.47,-0.50,-0.15,-0.07,0.28,-0.47,
4.017,1.47,-0.50,-0.15,-0.07,0.28,-0.47,
4.025,1.47,-0.50,-0.15,-0.07,0.28,-0.47,
4.026,1.47,-0.50,-0.15,-0.07,0.28,-0.47,
4.027,1.47,-0.50,-0.15,-0.07,0.28,-0.47,
4.027,1.47,-0.50,-0.15,-0.07,0.28,-0.47,
4.037,1.47,-0.50,-0.15,0.18,0.39,-1.13,
4.037,1.47,-0.50,-0.15,0.18,0.39,-1.13,
4.038,1.62,-0.68,-0.36,0.18,0.39,-1.13,
4.039,1.62,-0.68,-0.36,0.18,0.39,-1.13,
4.045,1.62,-0.68,-0.36,0.18,0.39,-1.13,
4.046,1.62,-0.68,-0.36,0.18,0.39,-1.13,
4.046,1.62,-0.68,-0.36,0.18,0.39,-1.13,
4.047,1.62,-0.68,-0.36,0.18,0.39,-1.13,
4.053,1.62,-0.68,-0.36,0.18,0.39,-1.36,
4.054,1.62,-0.68,-0.36,0.18,0.39,-1.36,
4.055,1.68,-0.95,-0.77,0.18,0.39,-1.36,
4.055,1.68,-0.95,-0.77,0.18,0.39,-1.36,
4.062,1.68,-0.95,-0.77,0.13,0.39,-1.50,
4.063,1.68,-0.95,-0.77,0.13,0.39,-1.50,
4.063,1.76,-1.14,-1.05,0.13,0.39,-1.50,
4.064,1.76,-1.14,-1.05,0.13,0.39,-1.50,
4.072,1.76,-1.14,-1.05,0.01,0.36,-1.57,
4.073,1.76,-1.14,-1.05,0.01,0.36,-1.57,
4.073,1.89,-1.35,-1.38,0.01,0.36,-1.57,
4.074,1.89,-1.35,-1.38,0.01,0.36,-1.57,
4.082,1.89,-1.35,-1.38,-0.16,0.31,-1.57,
4.083,1.89,-1.35,-1.38,-0.16,0.31,-1.57,
4.083,2.05,-1.53,-1.83,-0.16,0.31,-1.57,
4.084,2.05,-1.53,-1.83,-0.16,0.31,-1.57,
4.091,2.05,-1.53,-1.83,-0.38,0.22,-1.55,
4.092,2.05,-1.53,-1.83,-0.38,0.22,-1.55,
4.093,2.20,-1.71,-2.31,-0.38,0.22,-1.55,
4.093,2.20,-1.71,-2.31,-0.38,0.22,-1.55,
4.101,2.20,-1.71,-2.31,-0.64,0.11,-1.51,
4.102,2.20,-1.71,-2.31,-0.64,0.11,-1.51,
4.103,2.33,-1.93,-2.73,-0.64,0.11,-1.51,
4.103,2.33,-1.93,-2.73,-0.64,0.11,-1.51,
4.11,2.33,-1.93,-2.73,-0.93,-0.01,-1.49,
4.111,2.33,-1.93,-2.73,-0.93,-0.01,-1.49,
4.112,2.51,-2.15,-2.87,-0.93,-0.01,-1.49,
4.113,2.51,-2.15,-2.87,-0.93,-0.01,-1.49,
4.12,2.51,-2.15,-2.87,-1.22,-0.11,-1.47,
4.121,2.51,-2.15,-2.87,-1.22,-0.11,-1.47,
4.121,2.75,-2.39,-2.74,-1.22,-0.11,-1.47,
4.122,2.75,-2.39,-2.74,-1.22,-0.11,-1.47,
4.129,2.75,-2.39,-2.74,-1.47,-0.15,-1.46,
4.13,2.75,-2.39,-2.74,-1.47,-0.15,-1.46,
4.13,2.95,-2.60,-2.41,-1.47,-0.15,-1.46,
4.131,2.95,-2.60,-2.41,-1.47,-0.15,-1.46,
4.139,2.95,-2.60,-2.41,-1.61,-0.16,-1.46,
4.14,2.95,-2.60,-2.41,-1.61,-0.16,-1.46,
4.14,3.04,-2.66,-2.07,-1.61,-0.16,-1.46,
4.14,3.04,-2.66,-2.07,-1.61,-0.16,-1.46,
4.151,3.04,-2.66,-2.07,-1.61,-0.18,-1.46,
4.152,3.04,-2.66,-2.07,-1.61,-0.18,-1.46,
4.152,2.87,-2.53,-1.98,-1.61,-0.18,-1.46,
4.153,2.87,-2.53,-1.98,-1.61,-0.18,-1.46,
4.158,2.87,-2.53,-1.98,-1.49,-0.20,-1.45,
4.158,2.87,-2.53,-1.98,-1.49,-0.20,-1.45,
4.159,2.43,-2.23,-2.19,-1.49,-0.20,-1.45,
4.159,2.43,-2.23,-2.19,-1.49,-0.20,-1.45,
4.167,2.43,-2.23,-2.19,-1.30,-0.24,-1.40,
4.168,2.43,-2.23,-2.19,-1.30,-0.24,-1.40,
4.168,1.78,-1.81,-2.65,-1.30,-0.24,-1.40,
4.168,1.78,-1.81,-2.65,-1.30,-0.24,-1.40,
4.177,1.78,-1.81,-2.65,-1.12,-0.27,-1.27,
4.177,1.78,-1.81,-2.65,-1.12,-0.27,-1.27,
4.178,0.14,-1.40,-4.30,-1.12,-0.27,-1.27,
4.178,0.14,-1.40,-4.30,-1.12,-0.27,-1.27,
4.186,0.14,-1.40,-4.30,-1.05,-0.30,-1.03,
4.187,0.14,-1.40,-4.30,-1.05,-0.30,-1.03,
4.188,-0.36,-1.08,-4.41,-1.05,-0.30,-1.03,
4.189,-0.36,-1.08,-4.41,-1.05,-0.30,-1.03,
4.196,-0.36,-1.08,-4.41,-1.17,-0.37,-0.62,
4.197,-0.36,-1.08,-4.41,-1.17,-0.37,-0.62,
4.197,-0.94,-0.88,-4.44,-1.17,-0.37,-0.62,
4.198,-0.94,-0.88,-4.44,-1.17,-0.37,-0.62,
4.206,-0.94,-0.88,-4.44,-1.45,-0.42,-0.25,
4.207,-0.94,-0.88,-4.44,-1.45,-0.42,-0.25,
4.208,-1.44,-0.83,-4.15,-1.45,-0.42,-0.25,
4.208,-1.44,-0.83,-4.15,-1.45,-0.42,-0.25,
4.215,-1.44,-0.83,-4.15,-1.59,-0.45,0.21,
4.216,-1.44,-0.83,-4.15,-1.59,-0.45,0.21,
4.217,-1.76,-0.88,-2.08,-1.59,-0.45,0.21,
4.217,-1.76,-0.88,-2.08,-1.59,-0.45,0.21,
4.225,-1.76,-0.88,-2.08,-1.59,-0.45,0.21,
4.226,-1.76,-0.88,-2.08,-1.59,-0.45,0.21,
4.227,-1.76,-0.88,-2.08,-1.59,-0.45,0.21,
4.227,-1.76,-0.88,-2.08,-1.59,-0.45,0.21,
4.234,-1.76,-0.88,-2.08,-1.61,-0.52,0.81,
4.235,-1.76,-0.88,-2.08,-1.61,-0.52,0.81,
4.236,-1.64,-1.32,1.49,-1.61,-0.52,0.81,
4.236,-1.64,-1.32,1.49,-1.61,-0.52,0.81,
4.244,-1.64,-1.32,1.49,-1.44,-0.56,1.30,
4.244,-1.64,-1.32,1.49,-1.44,-0.56,1.30,
4.245,-1.42,-1.64,1.97,-1.44,-0.56,1.30,
4.246,-1.42,-1.64,1.97,-1.44,-0.56,1.30,
4.253,-1.42,-1.64,1.97,-0.74,-0.49,1.64,
4.254,-1.42,-1.64,1.97,-0.74,-0.49,1.64,
4.255,-1.22,-2.00,2.52,-0.74,-0.49,1.64,
4.256,-1.22,-2.00,2.52,-0.74,-0.49,1.64,
4.268,-1.22,-2.00,2.52,0.35,-0.27,1.82,
4.269,-1.22,-2.00,2.52,0.35,-0.27,1.82,
4.269,-1.18,-2.37,2.79,0.35,-0.27,1.82,
4.269,-1.18,-2.37,2.79,0.35,-0.27,1.82,
4.272,-1.18,-2.37,2.79,1.50,-0.14,1.65,
4.273,-1.18,-2.37,2.79,1.50,-0.14,1.65,
4.273,-1.35,-2.71,2.72,1.50,-0.14,1.65,
4.273,-1.35,-2.71,2.72,1.50,-0.14,1.65,
4.281,-1.35,-2.71,2.72,2.39,-0.25,1.33,
4.282,-1.35,-2.71,2.72,2.39,-0.25,1.33,
4.283,-1.73,-2.98,2.37,2.39,-0.25,1.33,
4.284,-1.73,-2.98,2.37,2.39,-0.25,1.33,
4.291,-1.73,-2.98,2.37,2.91,-0.08,1.13,
4.292,-1.73,-2.98,2.37,2.91,-0.08,1.13,
4.293,-2.25,-3.16,1.90,2.91,-0.08,1.13,
4.294,-2.25,-3.16,1.90,2.91,-0.08,1.13,
4.301,-2.25,-3.16,1.90,3.09,0.36,0.98,
4.303,-2.25,-3.16,1.90,3.09,0.36,0.98,
4.303,-2.87,-3.26,1.53,3.09,0.36,0.98,
4.305,-2.87,-3.26,1.53,3.09,0.36,0.98,
4.311,-2.87,-3.26,1.53,2.98,0.68,0.90,
4.312,-2.87,-3.26,1.53,2.98,0.68,0.90,
4.312,-3.46,-3.23,1.18,2.98,0.68,0.90,
4.313,-3.46,-3.23,1.18,2.98,0.68,0.90,
4.32,-3.46,-3.23,1.18,2.67,0.89,0.92,
4.321,-3.46,-3.23,1.18,2.67,0.89,0.92,
4.322,-3.87,-3.09,0.84,2.67,0.89,0.92,
4.323,-3.87,-3.09,0.84,2.67,0.89,0.92,
4.329,-3.87,-3.09,0.84,2.23,1.01,1.04,
4.33,-3.87,-3.09,0.84,2.23,1.01,1.04,
4.331,-4.00,-2.89,0.48,2.23,1.01,1.04,
4.331,-4.00,-2.89,0.48,2.23,1.01,1.04,
4.339,-4.00,-2.89,0.48,1.75,1.09,1.20,
4.339,-4.00,-2.89,0.48,1.75,1.09,1.20,
4.34,-3.87,-2.61,0.16,1.75,1.09,1.20,
4.34,-3.87,-2.61,0.16,1.75,1.09,1.20,
4.351,-3.87,-2.61,0.16,1.27,1.00,1.34,
4.352,-3.87,-2.61,0.16,1.27,1.00,1.34,
4.353,-3.56,-2.33,0.02,1.27,1.00,1.34,
4.353,-3.56,-2.33,0.02,1.27,1.00,1.34,
4.358,-3.56,-2.33,0.02,0.83,0.91,1.43,
4.358,-3.56,-2.33,0.02,0.83,0.91,1.43,
4.359,-3.23,-2.04,0.16,0.83,0.91,1.43,
4.359,-3.23,-2.04,0.16,0.83,0.91,1.43,
4.367,-3.23,-2.04,0.16,0.44,0.95,1.43,
4.368,-3.23,-2.04,0.16,0.44,0.95,1.43,
4.368,-2.89,-1.68,0.41,0.44,0.95,1.43,
4.368,-2.89,-1.68,0.41,0.44,0.95,1.43,
4.378,-2.89,-1.68,0.41,0.16,1.00,1.33,
4.378,-2.89,-1.68,0.41,0.16,1.00,1.33,
4.379,-2.49,-1.24,0.55,0.16,1.00,1.33,
4.379,-2.49,-1.24,0.55,0.16,1.00,1.33,
4.386,-2.49,-1.24,0.55,0.00,1.07,1.16,
4.387,-2.49,-1.24,0.55,0.00,1.07,1.16,
4.388,-1.97,-0.71,0.54,0.00,1.07,1.16,
4.388,-1.97,-0.71,0.54,0.00,1.07,1.16,
4.397,-1.97,-0.71,0.54,-0.05,1.15,0.93,
4.398,-1.97,-0.71,0.54,-0.05,1.15,0.93,
4.398,-1.44,-0.11,0.37,-0.05,1.15,0.93,
4.399,-1.44,-0.11,0.37,-0.05,1.15,0.93,
4.406,-1.44,-0.11,0.37,-0.05,1.20,0.67,
4.407,-1.44,-0.11,0.37,-0.05,1.20,0.67,
4.407,-1.01,0.52,0.28,-0.05,1.20,0.67,
4.408,-1.01,0.52,0.28,-0.05,1.20,0.67,
4.415,-1.01,0.52,0.28,-0.03,1.20,0.38,
4.416,-1.01,0.52,0.28,-0.03,1.20,0.38,
4.417,-0.73,2.20,0.33,-0.03,1.20,0.38,
4.417,-0.73,2.20,0.33,-0.03,1.20,0.38,
4.425,-0.73,2.20,0.33,-0.03,1.20,0.38,
4.425,-0.73,2.20,0.33,-0.03,1.20,0.38,
4.426,-0.73,2.20,0.33,-0.03,1.20,0.38,
4.427,-0.73,2.20,0.33,-0.03,1.20,0.38,
4.436,-0.73,2.20,0.33,-0.01,1.12,-0.16,
4.437,-0.73,2.20,0.33,-0.01,1.12,-0.16,
4.437,-0.78,2.72,0.26,-0.01,1.12,-0.16,
4.438,-0.78,2.72,0.26,-0.01,1.12,-0.16,
4.444,-0.78,2.72,0.26,-0.01,1.12,-0.16,
4.445,-0.78,2.72,0.26,-0.01,1.12,-0.16,
4.446,-0.78,2.72,0.26,-0.01,1.12,-0.16,
4.446,-0.78,2.72,0.26,-0.01,1.12,-0.16,
4.454,-0.78,2.72,0.26,-0.01,1.04,-0.32,
4.455,-0.78,2.72,0.26,-0.01,1.04,-0.32,
4.456,-1.12,3.53,0.42,-0.01,1.04,-0.32,
4.456,-1.12,3.53,0.42,-0.01,1.04,-0.32,
4.462,-1.12,3.53,0.42,0.01,0.92,-0.39,
4.463,-1.12,3.53,0.42,0.01,0.92,-0.39,
4.463,-1.30,3.95,0.81,0.01,0.92,-0.39,
4.463,-1.30,3.95,0.81,0.01,0.92,-0.39,
4.472,-1.30,3.95,0.81,0.06,0.81,-0.35,
4.472,-1.30,3.95,0.81,0.06,0.81,-0.35,
4.473,-1.54,4.40,1.30,0.06,0.81,-0.35,
4.473,-1.54,4.40,1.30,0.06,0.81,-0.35,
4.481,-1.54,4.40,1.30,0.20,0.77,-0.20,
4.482,-1.54,4.40,1.30,0.20,0.77,-0.20,
4.483,-1.83,4.86,1.71,0.20,0.77,-0.20,
4.483,-1.83,4.86,1.71,0.20,0.77,-0.20,
4.491,-1.83,4.86,1.71,0.50,0.88,0.06,
4.492,-1.83,4.86,1.71,0.50,0.88,0.06,
4.492,-2.17,5.35,2.00,0.50,0.88,0.06,
4.493,-2.17,5.35,2.00,0.50,0.88,0.06,
4.501,-2.17,5.35,2.00,0.97,1.12,0.41,
4.502,-2.17,5.35,2.00,0.97,1.12,0.41,
4.502,-2.49,5.83,2.19,0.97,1.12,0.41,
4.503,-2.49,5.83,2.19,0.97,1.12,0.41,
4.51,-2.49,5.83,2.19,1.60,1.31,0.56,
4.511,-2.49,5.83,2.19,1.60,1.31,0.56,
4.512,-2.69,6.19,2.30,1.60,1.31,0.56,
4.512,-2.69,6.19,2.30,1.60,1.31,0.56,
4.521,-2.69,6.19,2.30,2.33,1.67,0.79,
4.523,-2.69,6.19,2.30,2.33,1.67,0.79,
4.523,-2.72,6.38,2.32,2.33,1.67,0.79,
4.524,-2.72,6.38,2.32,2.33,1.67,0.79,
4.53,-2.72,6.38,2.32,3.13,1.89,0.89,
4.53,-2.72,6.38,2.32,3.13,1.89,0.89,
4.531,-2.53,6.40,2.25,3.13,1.89,0.89,
4.531,-2.53,6.40,2.25,3.13,1.89,0.89,
4.538,-2.53,6.40,2.25,3.96,2.28,0.90,
4.539,-2.53,6.40,2.25,3.96,2.28,0.90,
4.539,-2.17,6.18,2.12,3.96,2.28,0.90,
4.54,-2.17,6.18,2.12,3.96,2.28,0.90,
4.548,-2.17,6.18,2.12,4.72,3.22,1.15,
4.549,-2.17,6.18,2.12,4.72,3.22,1.15,
4.549,-1.68,5.70,1.85,4.72,3.22,1.15,
4.549,-1.68,5.70,1.85,4.72,3.22,1.15,
4.558,-1.68,5.70,1.85,5.24,3.88,1.14,
4.559,-1.68,5.70,1.85,5.24,3.88,1.14,
4.559,-1.14,4.21,1.35,5.24,3.88,1.14,
4.56,-1.14,4.21,1.35,5.24,3.88,1.14,
4.568,-1.14,4.21,1.35,5.20,3.93,0.98,
4.57,-1.14,4.21,1.35,5.20,3.93,0.98,
4.57,-0.58,2.16,-0.39,5.20,3.93,0.98,
4.571,-0.58,2.16,-0.39,5.20,3.93,0.98,
4.576,-0.58,2.16,-0.39,4.12,2.97,0.88,
4.577,-0.58,2.16,-0.39,4.12,2.97,0.88,
4.577,0.03,0.04,-3.98,4.12,2.97,0.88,
4.578,0.03,0.04,-3.98,4.12,2.97,0.88,
4.586,0.03,0.04,-3.98,1.53,2.10,0.70,
4.587,0.03,0.04,-3.98,1.53,2.10,0.70,
4.587,1.93,-2.68,-7.79,1.53,2.10,0.70,
4.588,1.93,-2.68,-7.79,1.53,2.10,0.70,
4.597,1.93,-2.68,-7.79,-2.50,-0.14,0.41,
4.598,1.93,-2.68,-7.79,-2.50,-0.14,0.41,
4.599,3.74,-5.73,-10.98,-2.50,-0.14,0.41,
4.6,3.74,-5.73,-10.98,-2.50,-0.14,0.41,
4.606,3.74,-5.73,-10.98,-6.85,-3.73,-0.54,
4.607,3.74,-5.73,-10.98,-6.85,-3.73,-0.54,
4.608,5.85,-7.91,-12.70,-6.85,-3.73,-0.54,
4.609,5.85,-7.91,-12.70,-6.85,-3.73,-0.54,
4.615,5.85,-7.91,-12.70,-6.85,-3.73,-0.54,
4.616,5.85,-7.91,-12.70,-6.85,-3.73,-0.54,
4.617,5.85,-7.91,-12.70,-6.85,-3.73,-0.54,
4.617,5.85,-7.91,-12.70,-6.85,-3.73,-0.54,
4.625,5.85,-7.91,-12.70,-10.01,-5.34,-2.46,
4.626,5.85,-7.91,-12.70,-10.01,-5.34,-2.46,
4.626,6.67,-7.84,-9.60,-10.01,-5.34,-2.46,
4.627,6.67,-7.84,-9.60,-10.01,-5.34,-2.46,
4.634,6.67,-7.84,-9.60,-11.24,-5.05,-4.27,
4.635,6.67,-7.84,-9.60,-11.24,-5.05,-4.27,
4.635,6.39,-4.61,-7.97,-11.24,-5.05,-4.27,
4.636,6.39,-4.61,-7.97,-11.24,-5.05,-4.27,
4.643,6.39,-4.61,-7.97,-10.88,-4.01,-5.26,
4.644,6.39,-4.61,-7.97,-10.88,-4.01,-5.26,
4.645,4.29,-2.08,-6.00,-10.88,-4.01,-5.26,
4.645,4.29,-2.08,-6.00,-10.88,-4.01,-5.26,
4.654,4.29,-2.08,-6.00,-9.66,-2.98,-5.51,
4.655,4.29,-2.08,-6.00,-9.66,-2.98,-5.51,
4.656,2.11,-0.19,-4.35,-9.66,-2.98,-5.51,
4.656,2.11,-0.19,-4.35,-9.66,-2.98,-5.51,
4.662,2.11,-0.19,-4.35,-8.19,-2.23,-5.21,
4.663,2.11,-0.19,-4.35,-8.19,-2.23,-5.21,
4.664,0.57,0.23,-4.21,-8.19,-2.23,-5.21,
4.664,0.57,0.23,-4.21,-8.19,-2.23,-5.21,
4.672,0.57,0.23,-4.21,-6.72,-1.80,-4.52,
4.673,0.57,0.23,-4.21,-6.72,-1.80,-4.52,
4.673,0.11,0.86,-3.87,-6.72,-1.80,-4.52,
4.673,0.11,0.86,-3.87,-6.72,-1.80,-4.52,
4.696,0.11,0.86,-3.87,-3.29,-1.80,-1.20,
4.697,0.11,0.86,-3.87,-3.29,-1.80,-1.20,
4.698,0.11,0.86,-3.87,-3.29,-1.80,-1.20,
4.698,0.11,0.86,-3.87,-3.29,-1.80,-1.20,
4.699,-1.46,1.43,-1.94,-3.29,-1.80,-1.20,
4.699,-1.46,1.43,-1.94,-3.29,-1.80,-1.20,
4.7,-1.46,1.43,-1.94,-3.29,-1.80,-1.20,
4.7,-1.46,1.43,-1.94,-3.29,-1.80,-1.20,
4.701,-1.46,1.43,-1.94,-3.29,-1.80,-1.20,
4.701,-1.46,1.43,-1.94,-3.29,-1.80,-1.20,
4.701,-1.46,1.43,-1.94,-3.29,-1.80,-1.20,
4.702,-1.46,1.43,-1.94,-3.29,-1.80,-1.20,
4.71,-1.46,1.43,-1.94,-2.19,-1.97,-0.06,
4.711,-1.46,1.43,-1.94,-2.19,-1.97,-0.06,
4.712,-3.78,-0.64,2.23,-2.19,-1.97,-0.06,
4.712,-3.78,-0.64,2.23,-2.19,-1.97,-0.06,
4.72,-3.78,-0.64,2.23,-1.06,-2.09,1.00,
4.721,-3.78,-0.64,2.23,-1.06,-2.09,1.00,
4.721,-4.05,-2.70,2.35,-1.06,-2.09,1.00,
4.722,-4.05,-2.70,2.35,-1.06,-2.09,1.00,
4.73,-4.05,-2.70,2.35,0.25,-2.07,2.00,
4.731,-4.05,-2.70,2.35,0.25,-2.07,2.00,
4.731,-3.68,-3.35,2.30,0.25,-2.07,2.00,
4.731,-3.68,-3.35,2.30,0.25,-2.07,2.00,
4.738,-3.68,-3.35,2.30,1.78,-1.80,2.84,
4.739,-3.68,-3.35,2.30,1.78,-1.80,2.84,
4.74,-0.32,-3.73,0.58,1.78,-1.80,2.84,
4.74,-0.32,-3.73,0.58,1.78,-1.80,2.84,
4.748,-0.32,-3.73,0.58,3.16,-1.25,3.26,
4.749,-0.32,-3.73,0.58,3.16,-1.25,3.26,
4.749,2.84,-3.50,-1.23,3.16,-1.25,3.26,
4.749,2.84,-3.50,-1.23,3.16,-1.25,3.26,
4.757,2.84,-3.50,-1.23,3.89,-0.60,2.97,
4.758,2.84,-3.50,-1.23,3.89,-0.60,2.97,
4.759,4.47,-1.60,-1.74,3.89,-0.60,2.97,
4.76,4.47,-1.60,-1.74,3.89,-0.60,2.97,
4.77,4.47,-1.60,-1.74,3.84,-0.04,2.00,
4.772,4.47,-1.60,-1.74,3.84,-0.04,2.00,
4.772,4.90,-1.25,-2.30,3.84,-0.04,2.00,
4.773,4.90,-1.25,-2.30,3.84,-0.04,2.00,
4.777,4.90,-1.25,-2.30,3.26,0.35,0.64,
4.777,4.90,-1.25,-2.30,3.26,0.35,0.64,
4.778,4.80,-0.73,-2.39,3.26,0.35,0.64,
4.778,4.80,-0.73,-2.39,3.26,0.35,0.64,
4.786,4.80,-0.73,-2.39,2.45,0.56,-0.73,
4.787,4.80,-0.73,-2.39,2.45,0.56,-0.73,
4.787,3.15,-0.19,-1.85,2.45,0.56,-0.73,
4.787,3.15,-0.19,-1.85,2.45,0.56,-0.73,
4.797,3.15,-0.19,-1.85,1.66,0.63,-1.77,
4.798,3.15,-0.19,-1.85,1.66,0.63,-1.77,
4.798,0.82,0.35,0.22,1.66,0.63,-1.77,
4.799,0.82,0.35,0.22,1.66,0.63,-1.77,
4.806,0.82,0.35,0.22,1.08,0.58,-2.28,
4.807,0.82,0.35,0.22,1.08,0.58,-2.28,
4.807,-0.83,0.90,1.98,1.08,0.58,-2.28,
4.807,-0.83,0.90,1.98,1.08,0.58,-2.28,
4.816,-0.83,0.90,1.98,0.88,0.51,-2.13,
4.817,-0.83,0.90,1.98,0.88,0.51,-2.13,
4.817,-1.37,1.30,2.28,0.88,0.51,-2.13,
4.818,-1.37,1.30,2.28,0.88,0.51,-2.13,
4.824,-1.37,1.30,2.28,0.88,0.51,-2.13,
4.825,-1.37,1.30,2.28,0.88,0.51,-2.13,
4.826,-1.37,1.30,2.28,0.88,0.51,-2.13,
4.827,-1.37,1.30,2.28,0.88,0.51,-2.13,
4.833,-1.37,1.30,2.28,1.12,0.52,-1.40,
4.835,-1.37,1.30,2.28,1.12,0.52,-1.40,
4.836,-2.19,1.47,2.62,1.12,0.52,-1.40,
4.836,-2.19,1.47,2.62,1.12,0.52,-1.40,
4.843,-2.19,1.47,2.62,1.69,0.62,-0.32,
4.844,-2.19,1.47,2.62,1.69,0.62,-0.32,
4.844,-2.16,1.24,2.63,1.69,0.62,-0.32,
4.845,-2.16,1.24,2.63,1.69,0.62,-0.32,
4.853,-2.16,1.24,2.63,2.31,0.80,0.77,
4.857,-2.16,1.24,2.63,2.31,0.80,0.77,
4.857,-1.79,0.88,2.59,2.31,0.80,0.77,
4.858,-1.79,0.88,2.59,2.31,0.80,0.77,
4.864,-1.79,0.88,2.59,2.79,0.96,1.66,
4.864,-1.79,0.88,2.59,2.79,0.96,1.66,
4.865,-0.24,0.44,2.52,2.79,0.96,1.66,
4.865,-0.24,0.44,2.52,2.79,0.96,1.66,
4.871,-0.24,0.44,2.52,3.03,1.09,2.17,
4.872,-0.24,0.44,2.52,3.03,1.09,2.17,
4.872,1.63,-0.04,2.35,3.03,1.09,2.17,
4.873,1.63,-0.04,2.35,3.03,1.09,2.17,
4.881,1.63,-0.04,2.35,3.06,1.14,2.16,
4.882,1.63,-0.04,2.35,3.06,1.14,2.16,
4.882,2.01,-0.45,2.01,3.06,1.14,2.16,
4.882,2.01,-0.45,2.01,3.06,1.14,2.16,
4.89,2.01,-0.45,2.01,2.88,1.10,1.62,
4.891,2.01,-0.45,2.01,2.88,1.10,1.62,
4.892,3.62,-0.86,1.51,2.88,1.10,1.62,
4.892,3.62,-0.86,1.51,2.88,1.10,1.62,
4.9,3.62,-0.86,1.51,2.51,0.93,0.70,
4.901,3.62,-0.86,1.51,2.51,0.93,0.70,
4.902,3.66,-1.17,1.04,2.51,0.93,0.70,
4.902,3.66,-1.17,1.04,2.51,0.93,0.70,
4.91,3.66,-1.17,1.04,1.97,0.71,-0.34,
4.911,3.66,-1.17,1.04,1.97,0.71,-0.34,
4.912,3.65,-1.32,0.64,1.97,0.71,-0.34,
4.913,3.65,-1.32,0.64,1.97,0.71,-0.34,
4.919,3.65,-1.32,0.64,1.33,0.38,-1.30,
4.921,3.65,-1.32,0.64,1.33,0.38,-1.30,
4.923,3.51,-1.27,0.42,1.33,0.38,-1.30,
4.923,3.51,-1.27,0.42,1.33,0.38,-1.30,
4.93,3.51,-1.27,0.42,0.68,-0.05,-2.03,
4.931,3.51,-1.27,0.42,0.68,-0.05,-2.03,
4.932,3.32,-0.97,0.38,0.68,-0.05,-2.03,
4.932,3.32,-0.97,0.38,0.68,-0.05,-2.03,
4.938,3.32,-0.97,0.38,0.11,-0.42,-2.45,
4.939,3.32,-0.97,0.38,0.11,-0.42,-2.45,
4.94,3.16,-0.54,0.45,0.11,-0.42,-2.45,
4.94,3.16,-0.54,0.45,0.11,-0.42,-2.45,
4.948,3.16,-0.54,0.45,-0.33,-0.69,-2.59,
4.948,3.16,-0.54,0.45,-0.33,-0.69,-2.59,
4.949,2.99,-0.06,0.68,-0.33,-0.69,-2.59,
4.949,2.99,-0.06,0.68,-0.33,-0.69,-2.59,
4.957,2.99,-0.06,0.68,-0.60,-0.89,-2.55,
4.958,2.99,-0.06,0.68,-0.60,-0.89,-2.55,
4.959,2.77,0.41,1.04,-0.60,-0.89,-2.55,
4.959,2.77,0.41,1.04,-0.60,-0.89,-2.55,
4.969,2.77,0.41,1.04,-0.71,-1.03,-2.38,
4.97,2.77,0.41,1.04,-0.71,-1.03,-2.38,
4.971,2.49,0.83,1.50,-0.71,-1.03,-2.38,
4.971,2.49,0.83,1.50,-0.71,-1.03,-2.38,
4.976,2.49,0.83,1.50,-0.65,-1.12,-2.13,
4.977,2.49,0.83,1.50,-0.65,-1.12,-2.13,
4.978,2.15,1.20,2.01,-0.65,-1.12,-2.13,
4.978,2.15,1.20,2.01,-0.65,-1.12,-2.13,
4.986,2.15,1.20,2.01,-0.45,-1.12,-1.84,
4.988,2.15,1.20,2.01,-0.45,-1.12,-1.84,
4.988,1.80,1.55,2.33,-0.45,-1.12,-1.84,
4.989,1.80,1.55,2.33,-0.45,-1.12,-1.84,
4.996,1.80,1.55,2.33,-0.13,-1.03,-1.52,
4.997,1.80,1.55,2.33,-0.13,-1.03,-1.52,
4.998,1.39,1.80,2.32,-0.13,-1.03,-1.52,
4.999,1.39,1.80,2.32,-0.13,-1.03,-1.52,
5.005,1.39,1.80,2.32,0.27,-0.87,-1.17,
5.007,1.39,1.80,2.32,0.27,-0.87,-1.17,
5.008,0.81,1.92,1.99,0.27,-0.87,-1.17,
5.009,0.81,1.92,1.99,0.27,-0.87,-1.17,
5.015,0.81,1.92,1.99,0.27,-0.87,-1.17,
5.016,0.81,1.92,1.99,0.27,-0.87,-1.17,
5.017,0.81,1.92,1.99,0.27,-0.87,-1.17,
5.017,0.81,1.92,1.99,0.27,-0.87,-1.17,
5.024,0.81,1.92,1.99,0.65,-0.71,-0.79,
5.025,0.81,1.92,1.99,0.65,-0.71,-0.79,
5.025,-1.24,1.74,0.70,0.65,-0.71,-0.79,
5.026,-1.24,1.74,0.70,0.65,-0.71,-0.79,
5.035,-1.24,1.74,0.70,0.88,-0.60,-0.31,
5.036,-1.24,1.74,0.70,0.88,-0.60,-0.31,
5.036,-1.71,1.49,0.14,0.88,-0.60,-0.31,
5.037,-1.71,1.49,0.14,0.88,-0.60,-0.31,
5.043,-1.71,1.49,0.14,0.86,-0.59,0.37,
5.044,-1.71,1.49,0.14,0.86,-0.59,0.37,
5.044,-2.02,1.24,-0.15,0.86,-0.59,0.37,
5.045,-2.02,1.24,-0.15,0.86,-0.59,0.37,
5.053,-2.02,1.24,-0.15,0.53,-0.71,1.23,
5.054,-2.02,1.24,-0.15,0.53,-0.71,1.23,
5.055,-2.00,1.01,-0.15,0.53,-0.71,1.23,
5.056,-2.00,1.01,-0.15,0.53,-0.71,1.23,
5.065,-2.00,1.01,-0.15,0.02,-0.91,2.08,
5.066,-2.00,1.01,-0.15,0.02,-0.91,2.08,
5.066,-1.68,0.84,0.02,0.02,-0.91,2.08,
5.067,-1.68,0.84,0.02,0.02,-0.91,2.08,
5.072,-1.68,0.84,0.02,-0.51,-1.10,2.67,
5.072,-1.68,0.84,0.02,-0.51,-1.10,2.67,
5.073,-1.18,0.68,0.32,-0.51,-1.10,2.67,
5.073,-1.18,0.68,0.32,-0.51,-1.10,2.67,
5.081,-1.18,0.68,0.32,-0.88,-1.22,2.91,
5.083,-1.18,0.68,0.32,-0.88,-1.22,2.91,
5.083,-0.62,0.55,0.66,-0.88,-1.22,2.91,
5.084,-0.62,0.55,0.66,-0.88,-1.22,2.91,
5.091,-0.62,0.55,0.66,-1.03,-1.22,2.80,
5.092,-0.62,0.55,0.66,-1.03,-1.22,2.80,
5.093,-0.11,0.44,0.94,-1.03,-1.22,2.80,
5.093,-0.11,0.44,0.94,-1.03,-1.22,2.80,
5.101,-0.11,0.44,0.94,-0.95,-1.09,2.40,
5.102,-0.11,0.44,0.94,-0.95,-1.09,2.40,
5.103,0.32,0.34,1.15,-0.95,-1.09,2.40,
5.103,0.32,0.34,1.15,-0.95,-1.09,2.40,
5.11,0.32,0.34,1.15,-0.70,-0.88,1.81,
5.111,0.32,0.34,1.15,-0.70,-0.88,1.81,
5.113,0.69,0.26,1.30,-0.70,-0.88,1.81,
5.114,0.69,0.26,1.30,-0.70,-0.88,1.81,
5.119,0.69,0.26,1.30,-0.36,-0.62,1.14,
5.121,0.69,0.26,1.30,-0.36,-0.62,1.14,
5.122,0.98,0.16,1.31,-0.36,-0.62,1.14,
5.124,0.98,0.16,1.31,-0.36,-0.62,1.14,
5.13,0.98,0.16,1.31,-0.01,-0.37,0.45,
5.131,0.98,0.16,1.31,-0.01,-0.37,0.45,
5.131,1.17,0.06,1.16,-0.01,-0.37,0.45,
5.132,1.17,0.06,1.16,-0.01,-0.37,0.45,
5.139,1.17,0.06,1.16,0.29,-0.14,-0.18,
5.139,1.17,0.06,1.16,0.29,-0.14,-0.18,
5.14,1.28,0.01,0.81,0.29,-0.14,-0.18,
5.14,1.28,0.01,0.81,0.29,-0.14,-0.18,
5.148,1.28,0.01,0.81,0.49,0.01,-0.71,
5.149,1.28,0.01,0.81,0.49,0.01,-0.71,
5.149,1.21,0.01,0.31,0.49,0.01,-0.71,
5.15,1.21,0.01,0.31,0.49,0.01,-0.71,
5.157,1.21,0.01,0.31,0.56,0.08,-1.12,
5.158,1.21,0.01,0.31,0.56,0.08,-1.12,
5.159,1.00,0.06,-0.24,0.56,0.08,-1.12,
5.159,1.00,0.06,-0.24,0.56,0.08,-1.12,
5.169,1.00,0.06,-0.24,0.49,0.07,-1.38,
5.17,1.00,0.06,-0.24,0.49,0.07,-1.38,
5.171,0.76,0.11,-0.77,0.49,0.07,-1.38,
5.171,0.76,0.11,-0.77,0.49,0.07,-1.38,
5.176,0.76,0.11,-0.77,0.28,-0.01,-1.48,
5.177,0.76,0.11,-0.77,0.28,-0.01,-1.48,
5.178,0.49,0.11,-1.21,0.28,-0.01,-1.48,
5.178,0.49,0.11,-1.21,0.28,-0.01,-1.48,
5.186,0.49,0.11,-1.21,-0.02,-0.13,-1.45,
5.187,0.49,0.11,-1.21,-0.02,-0.13,-1.45,
5.188,0.37,0.10,-1.51,-0.02,-0.13,-1.45,
5.188,0.37,0.10,-1.51,-0.02,-0.13,-1.45,
5.197,0.37,0.10,-1.51,-0.37,-0.24,-1.31,
5.199,0.37,0.10,-1.51,-0.37,-0.24,-1.31,
5.2,0.43,0.04,-1.65,-0.37,-0.24,-1.31,
5.201,0.43,0.04,-1.65,-0.37,-0.24,-1.31,
5.205,0.43,0.04,-1.65,-0.72,-0.35,-1.13,
5.207,0.43,0.04,-1.65,-0.72,-0.35,-1.13,
5.207,0.65,-0.06,-1.67,-0.72,-0.35,-1.13,
5.208,0.65,-0.06,-1.67,-0.72,-0.35,-1.13,
5.214,0.65,-0.06,-1.67,-0.72,-0.35,-1.13,
5.215,0.65,-0.06,-1.67,-0.72,-0.35,-1.13,
5.216,0.65,-0.06,-1.67,-0.72,-0.35,-1.13,
5.217,0.65,-0.06,-1.67,-0.72,-0.35,-1.13,
5.224,0.65,-0.06,-1.67,-1.02,-0.43,-0.95,
5.225,0.65,-0.06,-1.67,-1.02,-0.43,-0.95,
5.226,1.47,-0.36,-1.44,-1.02,-0.43,-0.95,
5.226,1.47,-0.36,-1.44,-1.02,-0.43,-0.95,
5.234,1.47,-0.36,-1.44,-1.22,-0.46,-0.86,
5.236,1.47,-0.36,-1.44,-1.22,-0.46,-0.86,
5.237,1.85,-0.54,-1.35,-1.22,-0.46,-0.86,
5.238,1.85,-0.54,-1.35,-1.22,-0.46,-0.86,
5.244,1.85,-0.54,-1.35,-1.31,-0.43,-0.90,
5.245,1.85,-0.54,-1.35,-1.31,-0.43,-0.90,
5.246,2.16,-0.72,-1.36,-1.31,-0.43,-0.90,
5.247,2.16,-0.72,-1.36,-1.31,-0.43,-0.90,
5.254,2.16,-0.72,-1.36,-1.29,-0.33,-1.08,
5.255,2.16,-0.72,-1.36,-1.29,-0.33,-1.08,
5.255,2.26,-0.90,-1.61,-1.29,-0.33,-1.08,
5.256,2.26,-0.90,-1.61,-1.29,-0.33,-1.08,
5.268,2.26,-0.90,-1.61,-1.13,-0.12,-1.55,
5.268,2.26,-0.90,-1.61,-1.13,-0.12,-1.55,
5.269,2.07,-1.07,-2.05,-1.13,-0.12,-1.55,
5.269,2.07,-1.07,-2.05,-1.13,-0.12,-1.55,
5.273,2.07,-1.07,-2.05,-1.13,-0.12,-1.55,
5.273,2.07,-1.07,-2.05,-1.13,-0.12,-1.55,
5.274,2.07,-1.07,-2.05,-1.13,-0.12,-1.55,
5.274,2.07,-1.07,-2.05,-1.13,-0.12,-1.55,
5.285,2.07,-1.07,-2.05,-1.11,-0.08,-1.66,
5.286,2.07,-1.07,-2.05,-1.11,-0.08,-1.66,
5.286,0.10,-1.84,-3.24,-1.11,-0.08,-1.66,
5.286,0.10,-1.84,-3.24,-1.11,-0.08,-1.66,
5.291,0.10,-1.84,-3.24,-1.16,-0.09,-1.62,
5.291,0.10,-1.84,-3.24,-1.16,-0.09,-1.62,
5.292,-0.24,-2.45,-3.52,-1.16,-0.09,-1.62,
5.292,-0.24,-2.45,-3.52,-1.16,-0.09,-1.62,
5.301,-0.24,-2.45,-3.52,-1.29,-0.17,-1.34,
5.302,-0.24,-2.45,-3.52,-1.29,-0.17,-1.34,
5.303,-0.57,-3.89,-3.40,-1.29,-0.17,-1.34,
5.303,-0.57,-3.89,-3.40,-1.29,-0.17,-1.34,
5.31,-0.57,-3.89,-3.40,-1.48,-0.28,-0.83,
5.312,-0.57,-3.89,-3.40,-1.48,-0.28,-0.83,
5.313,-0.73,-4.03,-3.06,-1.48,-0.28,-0.83,
5.314,-0.73,-4.03,-3.06,-1.48,-0.28,-0.83,
5.319,-0.73,-4.03,-3.06,-1.64,-0.39,-0.22,
5.321,-0.73,-4.03,-3.06,-1.64,-0.39,-0.22,
5.322,-0.74,-4.00,-2.81,-1.64,-0.39,-0.22,
5.323,-0.74,-4.00,-2.81,-1.64,-0.39,-0.22,
5.329,-0.74,-4.00,-2.81,-1.67,-0.44,0.30,
5.33,-0.74,-4.00,-2.81,-1.67,-0.44,0.30,
5.331,-0.76,-3.80,-2.94,-1.67,-0.44,0.30,
5.331,-0.76,-3.80,-2.94,-1.67,-0.44,0.30,
5.338,-0.76,-3.80,-2.94,-1.58,-0.44,0.67,
5.34,-0.76,-3.80,-2.94,-1.58,-0.44,0.67,
5.341,-0.85,-3.50,-3.47,-1.58,-0.44,0.67,
5.342,-0.85,-3.50,-3.47,-1.58,-0.44,0.67,
5.348,-0.85,-3.50,-3.47,-1.44,-0.40,0.90,
5.349,-0.85,-3.50,-3.47,-1.44,-0.40,0.90,
5.35,-1.04,-3.20,-4.00,-1.44,-0.40,0.90,
5.351,-1.04,-3.20,-4.00,-1.44,-0.40,0.90,
5.357,-1.04,-3.20,-4.00,-1.34,-0.36,1.02,
5.359,-1.04,-3.20,-4.00,-1.34,-0.36,1.02,
5.36,-1.32,-3.08,-4.11,-1.34,-0.36,1.02,
5.361,-1.32,-3.08,-4.11,-1.34,-0.36,1.02,
5.375,-1.32,-3.08,-4.11,-1.33,-0.35,1.08,
5.376,-1.32,-3.08,-4.11,-1.33,-0.35,1.08,
5.377,-1.66,-3.17,-2.13,-1.33,-0.35,1.08,
5.377,-1.66,-3.17,-2.13,-1.33,-0.35,1.08,
5.377,-1.66,-3.17,-2.13,-1.32,-0.35,1.13,
5.378,-1.66,-3.17,-2.13,-1.32,-0.35,1.13,
5.378,-2.08,-3.41,0.70,-1.32,-0.35,1.13,
5.378,-2.08,-3.41,0.70,-1.32,-0.35,1.13,
5.391,-2.08,-3.41,0.70,-1.14,-0.30,1.19,
5.392,-2.08,-3.41,0.70,-1.14,-0.30,1.19,
5.392,-2.54,-3.76,2.44,-1.14,-0.30,1.19,
5.393,-2.54,-3.76,2.44,-1.14,-0.30,1.19,
5.399,-2.54,-3.76,2.44,-0.59,-0.18,1.30,
5.399,-2.54,-3.76,2.44,-0.59,-0.18,1.30,
5.4,-3.06,-4.02,5.03,-0.59,-0.18,1.30,
5.4,-3.06,-4.02,5.03,-0.59,-0.18,1.30,
5.405,-3.06,-4.02,5.03,0.36,0.07,1.44,
5.405,-3.06,-4.02,5.03,0.36,0.07,1.44,
5.406,-3.65,-4.17,7.07,0.36,0.07,1.44,
5.406,-3.65,-4.17,7.07,0.36,0.07,1.44,
5.414,-3.65,-4.17,7.07,0.36,0.07,1.44,
5.415,-3.65,-4.17,7.07,0.36,0.07,1.44,
5.416,-3.65,-4.17,7.07,0.36,0.07,1.44,
5.416,-3.65,-4.17,7.07,0.36,0.07,1.44,
5.424,-3.65,-4.17,7.07,1.61,0.48,1.59,
5.425,-3.65,-4.17,7.07,1.61,0.48,1.59,
5.426,-4.20,-3.82,7.37,1.61,0.48,1.59,
5.426,-4.20,-3.82,7.37,1.61,0.48,1.59,
5.433,-4.20,-3.82,7.37,2.94,1.08,1.70,
5.434,-4.20,-3.82,7.37,2.94,1.08,1.70,
5.435,-3.72,-3.39,4.12,2.94,1.08,1.70,
5.436,-3.72,-3.39,4.12,2.94,1.08,1.70,
5.443,-3.72,-3.39,4.12,4.05,1.11,1.57,
5.444,-3.72,-3.39,4.12,4.05,1.11,1.57,
5.445,-1.54,-2.83,0.23,4.05,1.11,1.57,
5.445,-1.54,-2.83,0.23,4.05,1.11,1.57,
5.453,-1.54,-2.83,0.23,4.55,0.55,1.28,
5.454,-1.54,-2.83,0.23,4.55,0.55,1.28,
5.455,0.32,-2.26,-3.63,4.55,0.55,1.28,
5.456,0.32,-2.26,-3.63,4.55,0.55,1.28,
5.472,0.32,-2.26,-3.63,4.14,0.45,1.05,
5.473,0.32,-2.26,-3.63,4.14,0.45,1.05,
5.473,0.89,-1.75,-5.16,4.14,0.45,1.05,
5.474,0.89,-1.75,-5.16,4.14,0.45,1.05,
5.478,0.89,-1.75,-5.16,2.85,0.46,0.86,
5.479,0.89,-1.75,-5.16,2.85,0.46,0.86,
5.479,1.15,-1.26,-5.50,2.85,0.46,0.86,
5.479,1.15,-1.26,-5.50,2.85,0.46,0.86,
5.481,1.15,-1.26,-5.50,1.04,0.06,0.44,
5.482,1.15,-1.26,-5.50,1.04,0.06,0.44,
5.482,0.83,-0.79,-5.17,1.04,0.06,0.44,
5.483,0.83,-0.79,-5.17,1.04,0.06,0.44,
5.491,0.83,-0.79,-5.17,-0.76,-0.43,-0.21,
5.491,0.83,-0.79,-5.17,-0.76,-0.43,-0.21,
5.492,-0.69,-0.27,-2.75,-0.76,-0.43,-0.21,
5.492,-0.69,-0.27,-2.75,-0.76,-0.43,-0.21,
5.502,-0.69,-0.27,-2.75,-2.14,-0.78,-0.49,
5.504,-0.69,-0.27,-2.75,-2.14,-0.78,-0.49,
5.504,-1.17,0.27,-0.25,-2.14,-0.78,-0.49,
5.505,-1.17,0.27,-0.25,-2.14,-0.78,-0.49,
5.509,-1.17,0.27,-0.25,-2.84,-0.91,-0.46,
5.51,-1.17,0.27,-0.25,-2.84,-0.91,-0.46,
5.511,-1.58,0.79,1.76,-2.84,-0.91,-0.46,
5.511,-1.58,0.79,1.76,-2.84,-0.91,-0.46,
5.519,-1.58,0.79,1.76,-2.77,-0.81,-0.36,
5.52,-1.58,0.79,1.76,-2.77,-0.81,-0.36,
5.521,-1.73,1.30,2.26,-2.77,-0.81,-0.36,
5.521,-1.73,1.30,2.26,-2.77,-0.81,-0.36,
5.53,-1.73,1.30,2.26,-2.04,-0.46,-0.09,
5.531,-1.73,1.30,2.26,-2.04,-0.46,-0.09,
5.532,-1.59,1.76,2.42,-2.04,-0.46,-0.09,
5.532,-1.59,1.76,2.42,-2.04,-0.46,-0.09,
5.538,-1.59,1.76,2.42,-0.95,-0.11,-0.06,
5.539,-1.59,1.76,2.42,-0.95,-0.11,-0.06,
5.539,-1.26,2.18,2.13,-0.95,-0.11,-0.06,
5.54,-1.26,2.18,2.13,-0.95,-0.11,-0.06,
5.548,-1.26,2.18,2.13,0.15,0.36,-0.02,
5.548,-1.26,2.18,2.13,0.15,0.36,-0.02,
5.549,-0.90,2.63,1.58,0.15,0.36,-0.02,
5.55,-0.90,2.63,1.58,0.15,0.36,-0.02,
5.557,-0.90,2.63,1.58,1.01,0.98,0.27,
5.558,-0.90,2.63,1.58,1.01,0.98,0.27,
5.558,-0.52,3.12,1.21,1.01,0.98,0.27,
5.559,-0.52,3.12,1.21,1.01,0.98,0.27,
5.569,-0.52,3.12,1.21,1.53,1.40,0.39,
5.57,-0.52,3.12,1.21,1.53,1.40,0.39,
5.571,-0.28,3.62,1.18,1.53,1.40,0.39,
5.571,-0.28,3.62,1.18,1.53,1.40,0.39,
5.576,-0.28,3.62,1.18,1.72,1.58,0.37,
5.577,-0.28,3.62,1.18,1.72,1.58,0.37,
5.577,-0.24,4.12,1.45,1.72,1.58,0.37,
5.578,-0.24,4.12,1.45,1.72,1.58,0.37,
5.588,-0.24,4.12,1.45,1.69,1.56,0.28,
5.589,-0.24,4.12,1.45,1.69,1.56,0.28,
5.589,-0.45,4.62,1.83,1.69,1.56,0.28,
5.59,-0.45,4.62,1.83,1.69,1.56,0.28,
5.596,-0.45,4.62,1.83,1.62,1.46,0.16,
5.597,-0.45,4.62,1.83,1.62,1.46,0.16,
5.598,-0.85,5.06,2.24,1.62,1.46,0.16,
5.598,-0.85,5.06,2.24,1.62,1.46,0.16,
5.604,-0.85,5.06,2.24,1.62,1.46,0.16,
5.605,-0.85,5.06,2.24,1.62,1.46,0.16,
5.606,-0.85,5.06,2.24,1.62,1.46,0.16,
5.606,-0.85,5.06,2.24,1.62,1.46,0.16,
5.614,-0.85,5.06,2.24,1.66,1.43,0.09,
5.616,-0.85,5.06,2.24,1.66,1.43,0.09,
5.616,-2.90,5.68,2.93,1.66,1.43,0.09,
5.617,-2.90,5.68,2.93,1.66,1.43,0.09,
5.623,-2.90,5.68,2.93,1.88,1.51,0.20,
5.624,-2.90,5.68,2.93,1.88,1.51,0.20,
5.625,-3.18,5.73,3.22,1.88,1.51,0.20,
5.626,-3.18,5.73,3.22,1.88,1.51,0.20,
5.633,-3.18,5.73,3.22,2.34,1.61,0.13,
5.635,-3.18,5.73,3.22,2.34,1.61,0.13,
5.636,-3.45,5.65,3.42,2.34,1.61,0.13,
5.637,-3.45,5.65,3.42,2.34,1.61,0.13,
5.643,-3.45,5.65,3.42,2.56,2.21,-0.23,
5.644,-3.45,5.65,3.42,2.56,2.21,-0.23,
5.645,-3.57,5.46,3.44,2.56,2.21,-0.23,
5.645,-3.57,5.46,3.44,2.56,2.21,-0.23,
5.652,-3.57,5.46,3.44,2.39,3.56,-0.50,
5.653,-3.57,5.46,3.44,2.39,3.56,-0.50,
5.654,-3.50,5.20,3.29,2.39,3.56,-0.50,
5.655,-3.50,5.20,3.29,2.39,3.56,-0.50,
5.667,-3.50,5.20,3.29,2.18,5.26,-0.64,
5.668,-3.50,5.20,3.29,2.18,5.26,-0.64,
5.669,-3.25,4.88,2.98,2.18,5.26,-0.64,
5.669,-3.25,4.88,2.98,2.18,5.26,-0.64,
5.672,-3.25,4.88,2.98,2.81,6.90,-0.66,
5.672,-3.25,4.88,2.98,2.81,6.90,-0.66,
5.673,-2.90,4.40,2.51,2.81,6.90,-0.66,
5.673,-2.90,4.40,2.51,2.81,6.90,-0.66,
5.694,-2.90,4.40,2.51,3.88,7.80,-0.64,
5.695,-2.90,4.40,2.51,3.88,7.80,-0.64,
5.695,-2.53,2.42,0.60,3.88,7.80,-0.64,
5.695,-2.53,2.42,0.60,3.88,7.80,-0.64,
5.696,-2.53,2.42,0.60,3.88,7.80,-0.64,
5.696,-2.53,2.42,0.60,3.88,7.80,-0.64,
5.697,-2.53,2.42,0.60,3.88,7.80,-0.64,
5.697,-2.53,2.42,0.60,3.88,7.80,-0.64,
5.7,-2.53,2.42,0.60,0.54,2.83,1.30,
5.701,-2.53,2.42,0.60,0.54,2.83,1.30,
5.701,-1.49,-2.06,-6.87,0.54,2.83,1.30,
5.702,-1.49,-2.06,-6.87,0.54,2.83,1.30,
5.71,-1.49,-2.06,-6.87,-6.20,-5.39,3.17,
5.71,-1.49,-2.06,-6.87,-6.20,-5.39,3.17,
5.711,0.60,-5.34,-11.23,-6.20,-5.39,3.17,
5.711,0.60,-5.34,-11.23,-6.20,-5.39,3.17,
5.719,0.60,-5.34,-11.23,-11.78,-8.61,3.19,
5.72,0.60,-5.34,-11.23,-11.78,-8.61,3.19,
5.72,4.62,-8.42,-14.59,-11.78,-8.61,3.19,
5.721,4.62,-8.42,-14.59,-11.78,-8.61,3.19,
5.729,4.62,-8.42,-14.59,-14.26,-6.74,2.17,
5.73,4.62,-8.42,-14.59,-14.26,-6.74,2.17,
5.731,7.81,-8.93,-14.80,-14.26,-6.74,2.17,
5.731,7.81,-8.93,-14.80,-14.26,-6.74,2.17,
5.738,7.81,-8.93,-14.80,-14.79,-5.20,1.32,
5.738,7.81,-8.93,-14.80,-14.79,-5.20,1.32,
5.739,9.55,-9.06,-12.14,-14.79,-5.20,1.32,
5.739,9.55,-9.06,-12.14,-14.79,-5.20,1.32,
5.747,9.55,-9.06,-12.14,-14.10,-3.31,-0.06,
5.748,9.50,-6.47,-8.70,-14.10,-3.31,-0.06,
5.748,9.50,-6.47,-8.70,-14.10,-3.31,-0.06,
5.749,9.50,-6.47,-8.70,-14.10,-3.31,-0.06,
5.757,9.50,-6.47,-8.70,-12.63,-1.49,-1.68,
5.758,9.50,-6.47,-8.70,-12.63,-1.49,-1.68,
5.758,6.97,-3.20,-5.61,-12.63,-1.49,-1.68,
5.759,6.97,-3.20,-5.61,-12.63,-1.49,-1.68,
5.768,6.97,-3.20,-5.61,-10.73,-0.78,-2.65,
5.769,6.97,-3.20,-5.61,-10.73,-0.78,-2.65,
5.769,5.32,-1.52,-3.86,-10.73,-0.78,-2.65,
5.77,5.32,-1.52,-3.86,-10.73,-0.78,-2.65,
5.776,5.32,-1.52,-3.86,-8.72,-0.92,-3.09,
5.777,5.32,-1.52,-3.86,-8.72,-0.92,-3.09,
5.777,3.09,0.66,-3.56,-8.72,-0.92,-3.09,
5.778,3.09,0.66,-3.56,-8.72,-0.92,-3.09,
5.786,3.09,0.66,-3.56,-7.17,-0.72,-3.11,
5.786,3.09,0.66,-3.56,-7.17,-0.72,-3.11,
5.787,1.54,2.58,-1.59,-7.17,-0.72,-3.11,
5.787,1.54,2.58,-1.59,-7.17,-0.72,-3.11,
5.796,1.54,2.58,-1.59,-5.79,-0.39,-2.80,
5.796,1.54,2.58,-1.59,-5.79,-0.39,-2.80,
5.797,-0.28,4.00,0.53,-5.79,-0.39,-2.80,
5.797,-0.28,4.00,0.53,-5.79,-0.39,-2.80,
5.805,-0.28,4.00,0.53,-4.22,-0.34,-2.27,
5.806,-0.28,4.00,0.53,-4.22,-0.34,-2.27,
5.807,-2.25,4.07,3.28,-4.22,-0.34,-2.27,
5.807,-2.25,4.07,3.28,-4.22,-0.34,-2.27,
5.814,-2.25,4.07,3.28,-4.22,-0.34,-2.27,
5.815,-2.25,4.07,3.28,-4.22,-0.34,-2.27,
5.816,-2.25,4.07,3.28,-4.22,-0.34,-2.27,
5.817,-2.25,4.07,3.28,-4.22,-0.34,-2.27,
5.824,-2.25,4.07,3.28,-2.71,-0.46,-1.49,
5.825,-2.25,4.07,3.28,-2.71,-0.46,-1.49,
5.825,-6.72,-1.35,5.94,-2.71,-0.46,-1.49,
5.826,-6.72,-1.35,5.94,-2.71,-0.46,-1.49,
5.834,-6.72,-1.35,5.94,-0.92,-0.63,-0.25,
5.835,-6.72,-1.35,5.94,-0.92,-0.63,-0.25,
5.836,-8.30,-4.75,5.99,-0.92,-0.63,-0.25,
5.836,-8.30,-4.75,5.99,-0.92,-0.63,-0.25,
5.843,-8.30,-4.75,5.99,1.39,-0.81,1.67,
5.843,-8.30,-4.75,5.99,1.39,-0.81,1.67,
5.844,-8.02,-6.74,4.00,1.39,-0.81,1.67,
5.845,-8.02,-6.74,4.00,1.39,-0.81,1.67,
5.852,-8.02,-6.74,4.00,3.76,-0.97,3.91,
5.854,-8.02,-6.74,4.00,3.76,-0.97,3.91,
5.854,-4.01,-6.75,0.19,3.76,-0.97,3.91,
5.855,-4.01,-6.75,0.19,3.76,-0.97,3.91,
5.868,-4.01,-6.75,0.19,5.16,-1.14,5.50,
5.869,-4.01,-6.75,0.19,5.16,-1.14,5.50,
5.87,0.12,-6.34,-4.48,5.16,-1.14,5.50,
5.87,0.12,-6.34,-4.48,5.16,-1.14,5.50,
5.871,0.12,-6.34,-4.48,5.07,-1.30,5.80,
5.872,0.12,-6.34,-4.48,5.07,-1.30,5.80,
5.872,2.30,-4.78,-6.35,5.07,-1.30,5.80,
5.873,2.30,-4.78,-6.35,5.07,-1.30,5.80,
5.884,2.30,-4.78,-6.35,3.86,-1.33,4.96,
5.885,2.30,-4.78,-6.35,3.86,-1.33,4.96,
5.886,2.57,-3.08,-6.86,3.86,-1.33,4.96,
5.886,2.57,-3.08,-6.86,3.86,-1.33,4.96,
5.89,2.57,-3.08,-6.86,2.17,-1.17,3.50,
5.89,2.57,-3.08,-6.86,2.17,-1.17,3.50,
5.891,2.40,-1.34,-4.99,2.17,-1.17,3.50,
5.891,2.40,-1.34,-4.99,2.17,-1.17,3.50,
5.9,2.40,-1.34,-4.99,0.54,-0.90,1.98,
5.901,2.40,-1.34,-4.99,0.54,-0.90,1.98,
5.901,0.55,0.46,-0.74,0.54,-0.90,1.98,
5.902,0.55,0.46,-0.74,0.54,-0.90,1.98,
5.909,0.55,0.46,-0.74,-0.58,-0.61,0.79,
5.91,0.55,0.46,-0.74,-0.58,-0.61,0.79,
5.911,-0.02,2.81,2.52,-0.58,-0.61,0.79,
5.911,-0.02,2.81,2.52,-0.58,-0.61,0.79,
5.919,-0.02,2.81,2.52,-0.90,-0.34,0.14,
5.92,-0.02,2.81,2.52,-0.90,-0.34,0.14,
5.921,-1.43,4.36,4.37,-0.90,-0.34,0.14,
5.921,-1.43,4.36,4.37,-0.90,-0.34,0.14,
5.929,-1.43,4.36,4.37,-0.35,-0.07,0.02,
5.93,-1.43,4.36,4.37,-0.35,-0.07,0.02,
5.931,-1.60,4.51,4.74,-0.35,-0.07,0.02,
5.932,-1.60,4.51,4.74,-0.35,-0.07,0.02,
5.938,-1.60,4.51,4.74,0.95,0.28,0.34,
5.939,-1.60,4.51,4.74,0.95,0.28,0.34,
5.939,-1.66,4.27,5.06,0.95,0.28,0.34,
5.94,-1.66,4.27,5.06,0.95,0.28,0.34,
5.948,-1.66,4.27,5.06,2.65,0.79,0.88,
5.948,-1.66,4.27,5.06,2.65,0.79,0.88,
5.949,-1.62,2.64,5.01,2.65,0.79,0.88,
5.949,-1.62,2.64,5.01,2.65,0.79,0.88,
5.957,-1.62,2.64,5.01,4.36,1.49,1.35,
5.958,-1.62,2.64,5.01,4.36,1.49,1.35,
5.958,-1.34,0.77,4.62,4.36,1.49,1.35,
5.959,-1.34,0.77,4.62,4.36,1.49,1.35,
5.966,-1.34,0.77,4.62,5.69,2.30,1.47,
5.967,-1.34,0.77,4.62,5.69,2.30,1.47,
5.968,-0.78,-0.87,3.08,5.69,2.30,1.47,
5.968,-0.78,-0.87,3.08,5.69,2.30,1.47,
5.976,-0.78,-0.87,3.08,6.29,2.54,1.30,
5.976,-0.78,-0.87,3.08,6.29,2.54,1.30,
5.977,0.89,-1.39,1.44,6.29,2.54,1.30,
5.977,0.89,-1.39,1.44,6.29,2.54,1.30,
5.985,0.89,-1.39,1.44,5.92,2.26,0.93,
5.986,0.89,-1.39,1.44,5.92,2.26,0.93,
5.986,2.46,-1.86,1.18,5.92,2.26,0.93,
5.986,2.46,-1.86,1.18,5.92,2.26,0.93,
5.996,2.46,-1.86,1.18,5.92,2.26,0.93,
5.997,2.46,-1.86,1.18,5.92,2.26,0.93,
5.997,2.46,-1.86,1.18,5.92,2.26,0.93,
5.998,2.46,-1.86,1.18,5.92,2.26,0.93,
6.005,2.46,-1.86,1.18,4.73,1.77,0.38,
6.006,2.46,-1.86,1.18,4.73,1.77,0.38,
6.006,3.04,-1.92,0.19,4.73,1.77,0.38,
6.007,3.04,-1.92,0.19,4.73,1.77,0.38,
6.014,3.04,-1.92,0.19,3.19,1.17,0.07,
6.015,3.04,-1.92,0.19,3.19,1.17,0.07,
6.016,3.15,-1.53,-0.42,3.19,1.17,0.07,
6.016,3.15,-1.53,-0.42,3.19,1.17,0.07,
6.024,3.15,-1.53,-0.42,1.70,0.74,0.05,
6.025,3.15,-1.53,-0.42,1.70,0.74,0.05,
6.026,3.02,-1.01,-1.83,1.70,0.74,0.05,
6.026,3.02,-1.01,-1.83,1.70,0.74,0.05,
6.033,3.02,-1.01,-1.83,0.41,0.39,0.03,
6.034,3.02,-1.01,-1.83,0.41,0.39,0.03,
6.035,2.64,-0.51,-2.00,0.41,0.39,0.03,
6.035,2.64,-0.51,-2.00,0.41,0.39,0.03,
6.043,2.64,-0.51,-2.00,-0.69,0.09,0.01,
6.043,2.64,-0.51,-2.00,-0.69,0.09,0.01,
6.044,2.08,-0.15,-1.94,-0.69,0.09,0.01,
6.044,2.08,-0.15,-1.94,-0.69,0.09,0.01,
6.052,2.08,-0.15,-1.94,-1.59,-0.35,-0.23,
6.053,2.08,-0.15,-1.94,-1.59,-0.35,-0.23,
6.053,1.50,0.11,-0.39,-1.59,-0.35,-0.23,
6.054,1.50,0.11,-0.39,-1.59,-0.35,-0.23,
6.068,1.50,0.11,-0.39,-2.21,-0.62,-0.40,
6.069,1.50,0.11,-0.39,-2.21,-0.62,-0.40,
6.069,0.99,0.40,0.03,-2.21,-0.62,-0.40,
6.07,0.99,0.40,0.03,-2.21,-0.62,-0.40,
6.071,0.99,0.40,0.03,-2.43,-0.70,-0.33,
6.071,0.99,0.40,0.03,-2.43,-0.70,-0.33,
6.072,0.67,0.72,1.68,-2.43,-0.70,-0.33,
6.073,0.67,0.72,1.68,-2.43,-0.70,-0.33,
6.083,0.67,0.72,1.68,-2.22,-0.83,-0.24,
6.083,0.67,0.72,1.68,-2.22,-0.83,-0.24,
6.084,0.54,1.08,1.87,-2.22,-0.83,-0.24,
6.084,0.54,1.08,1.87,-2.22,-0.83,-0.24,
6.09,0.54,1.08,1.87,-1.65,-0.79,-0.02,
6.091,0.54,1.08,1.87,-1.65,-0.79,-0.02,
6.091,0.55,1.40,1.92,-1.65,-0.79,-0.02,
6.091,0.55,1.40,1.92,-1.65,-0.79,-0.02,
6.1,0.55,1.40,1.92,-0.91,-0.66,0.24,
6.101,0.55,1.40,1.92,-0.91,-0.66,0.24,
6.101,0.58,1.59,1.67,-0.91,-0.66,0.24,
6.102,0.58,1.59,1.67,-0.91,-0.66,0.24,
6.109,0.58,1.59,1.67,-0.17,-0.52,0.45,
6.11,0.58,1.59,1.67,-0.17,-0.52,0.45,
6.111,0.54,1.60,1.15,-0.17,-0.52,0.45,
6.111,0.54,1.60,1.15,-0.17,-0.52,0.45,
6.119,0.54,1.60,1.15,0.39,-0.41,0.60,
6.12,0.54,1.60,1.15,0.39,-0.41,0.60,
6.121,0.35,1.46,0.49,0.39,-0.41,0.60,
6.121,0.35,1.46,0.49,0.39,-0.41,0.60,
6.129,0.35,1.46,0.49,0.69,-0.36,0.69,
6.13,0.35,1.46,0.49,0.69,-0.36,0.69,
6.131,0.02,1.23,-0.07,0.69,-0.36,0.69,
6.132,0.02,1.23,-0.07,0.69,-0.36,0.69,
6.137,0.02,1.23,-0.07,0.71,-0.39,0.77,
6.138,0.02,1.23,-0.07,0.71,-0.39,0.77,
6.139,-0.35,1.00,-0.34,0.71,-0.39,0.77,
6.139,-0.35,1.00,-0.34,0.71,-0.39,0.77,
6.147,-0.35,1.00,-0.34,0.48,-0.48,0.88,
6.148,-0.35,1.00,-0.34,0.48,-0.48,0.88,
6.149,-0.68,0.88,-0.33,0.48,-0.48,0.88,
6.15,-0.68,0.88,-0.33,0.48,-0.48,0.88,
6.157,-0.68,0.88,-0.33,0.10,-0.61,1.04,
6.157,-0.68,0.88,-0.33,0.10,-0.61,1.04,
6.158,-0.79,0.84,-0.16,0.10,-0.61,1.04,
6.158,-0.79,0.84,-0.16,0.10,-0.61,1.04,
6.166,-0.79,0.84,-0.16,-0.28,-0.73,1.22,
6.167,-0.79,0.84,-0.16,-0.28,-0.73,1.22,
6.168,-0.72,0.89,0.04,-0.28,-0.73,1.22,
6.169,-0.72,0.89,0.04,-0.28,-0.73,1.22,
6.176,-0.72,0.89,0.04,-0.55,-0.82,1.37,
6.177,-0.72,0.89,0.04,-0.55,-0.82,1.37,
6.178,-0.49,0.98,0.16,-0.55,-0.82,1.37,
6.178,-0.49,0.98,0.16,-0.55,-0.82,1.37,
6.187,-0.49,0.98,0.16,-0.69,-0.85,1.45,
6.188,-0.49,0.98,0.16,-0.69,-0.85,1.45,
6.188,-0.18,1.03,0.23,-0.69,-0.85,1.45,
6.188,-0.18,1.03,0.23,-0.69,-0.85,1.45,
6.196,-0.18,1.03,0.23,-0.68,-0.83,1.41,
6.197,-0.18,1.03,0.23,-0.68,-0.83,1.41,
6.198,0.13,1.01,0.35,-0.68,-0.83,1.41,
6.198,0.13,1.01,0.35,-0.68,-0.83,1.41,
6.204,0.13,1.01,0.35,-0.68,-0.83,1.41,
6.206,0.13,1.01,0.35,-0.68,-0.83,1.41,
6.207,0.13,1.01,0.35,-0.68,-0.83,1.41,
6.208,0.13,1.01,0.35,-0.68,-0.83,1.41,
6.215,0.13,1.01,0.35,-0.59,-0.75,1.25,
6.216,0.13,1.01,0.35,-0.59,-0.75,1.25,
6.217,0.69,0.90,0.84,-0.59,-0.75,1.25,
6.218,0.69,0.90,0.84,-0.59,-0.75,1.25,
6.224,0.69,0.90,0.84,-0.42,-0.61,0.97,
6.225,0.69,0.90,0.84,-0.42,-0.61,0.97,
6.225,0.88,0.74,1.11,-0.42,-0.61,0.97,
6.226,0.88,0.74,1.11,-0.42,-0.61,0.97,
6.233,0.88,0.74,1.11,-0.18,-0.41,0.58,
6.234,0.88,0.74,1.11,-0.18,-0.41,0.58,
6.235,1.05,0.54,1.24,-0.18,-0.41,0.58,
6.235,1.05,0.54,1.24,-0.18,-0.41,0.58,
6.242,1.05,0.54,1.24,0.13,-0.19,0.14,
6.243,1.05,0.54,1.24,0.13,-0.19,0.14,
6.243,1.17,0.29,1.17,0.13,-0.19,0.14,
6.244,1.17,0.29,1.17,0.13,-0.19,0.14,
6.252,1.17,0.29,1.17,0.44,0.01,-0.29,
6.253,1.17,0.29,1.17,0.44,0.01,-0.29,
6.253,1.20,0.03,0.84,0.44,0.01,-0.29,
6.254,1.20,0.03,0.84,0.44,0.01,-0.29,
6.268,1.20,0.03,0.84,0.67,0.15,-0.65,
6.271,1.20,0.03,0.84,0.67,0.15,-0.65,
6.272,1.12,-0.16,0.31,0.67,0.15,-0.65,
6.272,1.12,-0.16,0.31,0.67,0.15,-0.65,
6.273,1.12,-0.16,0.31,0.76,0.21,-0.91,
6.274,1.12,-0.16,0.31,0.76,0.21,-0.91,
6.275,0.91,-0.29,-0.32,0.76,0.21,-0.91,
6.276,0.91,-0.29,-0.32,0.76,0.21,-0.91,
6.28,0.91,-0.29,-0.32,0.67,0.17,-1.04,
6.281,0.91,-0.29,-0.32,0.67,0.17,-1.04,
6.281,0.69,-0.42,-0.98,0.67,0.17,-1.04,
6.282,0.69,-0.42,-0.98,0.67,0.17,-1.04,
6.29,0.69,-0.42,-0.98,0.41,0.06,-1.05,
6.29,0.69,-0.42,-0.98,0.41,0.06,-1.05,
6.291,0.59,-0.55,-1.60,0.41,0.06,-1.05,
6.291,0.59,-0.55,-1.60,0.41,0.06,-1.05,
6.299,0.59,-0.55,-1.60,0.02,-0.10,-0.97,
6.301,0.59,-0.55,-1.60,0.02,-0.10,-0.97,
6.302,0.72,-0.72,-2.12,0.02,-0.10,-0.97,
6.303,0.72,-0.72,-2.12,0.02,-0.10,-0.97,
6.309,0.72,-0.72,-2.12,-0.46,-0.27,-0.83,
6.31,0.72,-0.72,-2.12,-0.46,-0.27,-0.83,
6.31,1.06,-0.90,-2.49,-0.46,-0.27,-0.83,
6.311,1.06,-0.90,-2.49,-0.46,-0.27,-0.83,
6.319,1.06,-0.90,-2.49,-0.96,-0.41,-0.70,
6.32,1.06,-0.90,-2.49,-0.96,-0.41,-0.70,
6.321,1.59,-0.99,-2.72,-0.96,-0.41,-0.70,
6.321,1.59,-0.99,-2.72,-0.96,-0.41,-0.70,
6.329,1.59,-0.99,-2.72,-1.43,-0.47,-0.65,
6.33,1.59,-0.99,-2.72,-1.43,-0.47,-0.65,
6.331,2.16,-0.98,-2.77,-1.43,-0.47,-0.65,
6.332,2.16,-0.98,-2.77,-1.43,-0.47,-0.65,
6.337,2.16,-0.98,-2.77,-1.80,-0.46,-0.71,
6.338,2.16,-0.98,-2.77,-1.80,-0.46,-0.71,
6.339,2.66,-0.91,-2.66,-1.80,-0.46,-0.71,
6.339,2.66,-0.91,-2.66,-1.80,-0.46,-0.71,
6.347,2.66,-0.91,-2.66,-2.04,-0.40,-0.89,
6.348,2.66,-0.91,-2.66,-2.04,-0.40,-0.89,
6.349,3.05,-0.88,-2.50,-2.04,-0.40,-0.89,
6.349,3.05,-0.88,-2.50,-2.04,-0.40,-0.89,
6.357,3.05,-0.88,-2.50,-2.13,-0.32,-1.15,
6.358,3.05,-0.88,-2.50,-2.13,-0.32,-1.15,
6.358,3.24,-0.97,-2.40,-2.13,-0.32,-1.15,
6.359,3.24,-0.97,-2.40,-2.13,-0.32,-1.15,
6.368,3.24,-0.97,-2.40,-2.10,-0.23,-1.44,
6.369,3.24,-0.97,-2.40,-2.10,-0.23,-1.44,
6.369,3.16,-1.22,-2.56,-2.10,-0.23,-1.44,
6.37,3.16,-1.22,-2.56,-2.10,-0.23,-1.44,
6.376,3.16,-1.22,-2.56,-1.97,-0.14,-1.69,
6.377,3.16,-1.22,-2.56,-1.97,-0.14,-1.69,
6.378,2.78,-1.67,-2.93,-1.97,-0.14,-1.69,
6.378,2.78,-1.67,-2.93,-1.97,-0.14,-1.69,
6.387,2.78,-1.67,-2.93,-1.81,-0.04,-1.84,
6.388,2.78,-1.67,-2.93,-1.81,-0.04,-1.84,
6.388,2.21,-3.34,-3.35,-1.81,-0.04,-1.84,
6.388,2.21,-3.34,-3.35,-1.81,-0.04,-1.84,
6.395,2.21,-3.34,-3.35,-1.68,0.03,-1.82,
6.396,2.21,-3.34,-3.35,-1.68,0.03,-1.82,
6.397,0.38,-3.58,-3.53,-1.68,0.03,-1.82,
6.397,0.38,-3.58,-3.53,-1.68,0.03,-1.82,
6.404,0.38,-3.58,-3.53,-1.68,0.03,-1.82,
6.405,0.38,-3.58,-3.53,-1.68,0.03,-1.82,
6.405,0.38,-3.58,-3.53,-1.68,0.03,-1.82,
6.406,0.38,-3.58,-3.53,-1.68,0.03,-1.82,
6.414,0.38,-3.58,-3.53,-1.60,0.05,-1.58,
6.415,0.38,-3.58,-3.53,-1.60,0.05,-1.58,
6.416,-0.26,-3.90,-3.05,-1.60,0.05,-1.58,
6.416,-0.26,-3.90,-3.05,-1.60,0.05,-1.58,
6.423,-0.26,-3.90,-3.05,-1.53,0.02,-1.09,
6.424,-0.26,-3.90,-3.05,-1.53,0.02,-1.09,
6.424,-0.51,-3.64,-2.87,-1.53,0.02,-1.09,
6.425,-0.51,-3.64,-2.87,-1.53,0.02,-1.09,
6.433,-0.51,-3.64,-2.87,-1.43,-0.05,-0.43,
6.433,-0.51,-3.64,-2.87,-1.43,-0.05,-0.43,
6.434,-0.54,-3.20,-2.97,-1.43,-0.05,-0.43,
6.434,-0.54,-3.20,-2.97,-1.43,-0.05,-0.43,
6.442,-0.54,-3.20,-2.97,-1.29,-0.13,0.23,
6.443,-0.54,-3.20,-2.97,-1.29,-0.13,0.23,
6.443,-0.34,-2.83,-3.31,-1.29,-0.13,0.23,
6.444,-0.34,-2.83,-3.31,-1.29,-0.13,0.23,
6.452,-0.34,-2.83,-3.31,-1.15,-0.21,0.73,
6.453,-0.34,-2.83,-3.31,-1.15,-0.21,0.73,
6.453,-0.09,-2.66,-3.51,-1.15,-0.21,0.73,
6.454,-0.09,-2.66,-3.51,-1.15,-0.21,0.73,
6.467,-0.09,-2.66,-3.51,-1.05,-0.27,1.02,
6.468,-0.09,-2.66,-3.51,-1.05,-0.27,1.02,
6.468,0.02,-2.70,-3.29,-1.05,-0.27,1.02,
6.469,0.02,-2.70,-3.29,-1.05,-0.27,1.02,
6.471,0.02,-2.70,-3.29,-1.01,-0.28,1.13,
6.472,0.02,-2.70,-3.29,-1.01,-0.28,1.13,
6.472,-0.10,-2.89,-1.25,-1.01,-0.28,1.13,
6.473,-0.10,-2.89,-1.25,-1.01,-0.28,1.13,
6.482,-0.10,-2.89,-1.25,-0.95,-0.24,1.12,
6.483,-0.10,-2.89,-1.25,-0.95,-0.24,1.12,
6.484,-0.47,-3.19,0.78,-0.95,-0.24,1.12,
6.484,-0.47,-3.19,0.78,-0.95,-0.24,1.12,
6.49,-0.47,-3.19,0.78,-0.71,-0.15,1.06,
6.491,-0.47,-3.19,0.78,-0.71,-0.15,1.06,
6.491,-0.99,-3.51,2.95,-0.71,-0.15,1.06,
6.492,-0.99,-3.51,2.95,-0.71,-0.15,1.06,
6.5,-0.99,-3.51,2.95,-0.15,-0.00,1.02,
6.501,-0.99,-3.51,2.95,-0.15,-0.00,1.02,
6.502,-2.67,-3.78,4.88,-0.15,-0.00,1.02,
6.502,-2.67,-3.78,4.88,-0.15,-0.00,1.02,
6.509,-2.67,-3.78,4.88,0.75,0.20,1.06,
6.51,-2.67,-3.78,4.88,0.75,0.20,1.06,
6.511,-2.97,-3.90,5.44,0.75,0.20,1.06,
6.511,-2.97,-3.90,5.44,0.75,0.20,1.06,
6.519,-2.97,-3.90,5.44,1.84,0.46,1.24,
6.52,-2.97,-3.90,5.44,1.84,0.46,1.24,
6.521,-3.44,-3.78,6.14,1.84,0.46,1.24,
6.521,-3.44,-3.78,6.14,1.84,0.46,1.24,
6.529,-3.44,-3.78,6.14,2.90,0.78,1.49,
6.53,-3.44,-3.78,6.14,2.90,0.78,1.49,
6.531,-3.88,-3.46,6.48,2.90,0.78,1.49,
6.532,-3.88,-3.46,6.48,2.90,0.78,1.49,
6.537,-3.88,-3.46,6.48,3.75,0.89,1.46,
6.539,-3.88,-3.46,6.48,3.75,0.89,1.46,
6.539,-4.07,-3.00,6.13,3.75,0.89,1.46,
6.539,-4.07,-3.00,6.13,3.75,0.89,1.46,
6.547,-4.07,-3.00,6.13,4.30,0.75,1.19,
6.548,-4.07,-3.00,6.13,4.30,0.75,1.19,
6.549,-3.87,-2.49,2.74,4.30,0.75,1.19,
6.549,-3.87,-2.49,2.74,4.30,0.75,1.19,
6.558,-3.87,-2.49,2.74,4.49,0.95,1.15,
6.559,-3.87,-2.49,2.74,4.49,0.95,1.15,
6.559,-3.31,-2.02,-0.18,4.49,0.95,1.15,
6.56,-3.31,-2.02,-0.18,4.49,0.95,1.15,
6.568,-3.31,-2.02,-0.18,4.18,1.31,1.25,
6.569,-3.31,-2.02,-0.18,4.18,1.31,1.25,
6.57,-1.84,-1.58,-2.50,4.18,1.31,1.25,
6.57,-1.84,-1.58,-2.50,4.18,1.31,1.25,
6.576,-1.84,-1.58,-2.50,3.26,1.25,1.32,
6.576,-1.84,-1.58,-2.50,3.26,1.25,1.32,
6.577,-1.55,-1.16,-2.84,3.26,1.25,1.32,
6.577,-1.55,-1.16,-2.84,3.26,1.25,1.32,
6.587,-1.55,-1.16,-2.84,1.81,0.80,1.32,
6.587,-1.55,-1.16,-2.84,1.81,0.80,1.32,
6.588,-1.33,-0.81,-2.99,1.81,0.80,1.32,
6.588,-1.33,-0.81,-2.99,1.81,0.80,1.32,
6.595,-1.33,-0.81,-2.99,1.81,0.80,1.32,
6.596,-1.33,-0.81,-2.99,1.81,0.80,1.32,
6.596,-1.33,-0.81,-2.99,1.81,0.80,1.32,
6.597,-1.33,-0.81,-2.99,1.81,0.80,1.32,
6.605,-1.33,-0.81,-2.99,0.18,0.21,1.16,
6.607,-1.33,-0.81,-2.99,0.18,0.21,1.16,
6.608,-1.30,-0.30,0.90,0.18,0.21,1.16,
6.609,-1.30,-0.30,0.90,0.18,0.21,1.16,
6.614,-1.30,-0.30,0.90,-1.13,-0.24,0.86,
6.615,-1.30,-0.30,0.90,-1.13,-0.24,0.86,
6.615,-1.33,-0.14,2.54,-1.13,-0.24,0.86,
6.616,-1.33,-0.14,2.54,-1.13,-0.24,0.86,
6.623,-1.33,-0.14,2.54,-1.74,-0.36,0.54,
6.624,-1.33,-0.14,2.54,-1.74,-0.36,0.54,
6.625,-1.26,0.07,2.85,-1.74,-0.36,0.54,
6.625,-1.26,0.07,2.85,-1.74,-0.36,0.54,
6.633,-1.26,0.07,2.85,-1.55,-0.12,0.27,
6.634,-1.26,0.07,2.85,-1.55,-0.12,0.27,
6.635,-1.10,0.39,2.96,-1.55,-0.12,0.27,
6.636,-1.10,0.39,2.96,-1.55,-0.12,0.27,
6.642,-1.10,0.39,2.96,-0.83,0.38,0.06,
6.643,-1.10,0.39,2.96,-0.83,0.38,0.06,
6.644,-0.86,0.84,2.68,-0.83,0.38,0.06,
6.644,-0.86,0.84,2.68,-0.83,0.38,0.06,
6.652,-0.86,0.84,2.68,-0.01,0.98,-0.12,
6.653,-0.86,0.84,2.68,-0.01,0.98,-0.12,
6.653,-0.64,1.43,2.20,-0.01,0.98,-0.12,
6.654,-0.64,1.43,2.20,-0.01,0.98,-0.12,
6.667,-0.64,1.43,2.20,0.61,1.48,-0.29,
6.668,-0.64,1.43,2.20,0.61,1.48,-0.29,
6.669,-0.58,2.07,1.80,0.61,1.48,-0.29,
6.669,-0.58,2.07,1.80,0.61,1.48,-0.29,
6.671,-0.58,2.07,1.80,0.96,1.77,-0.44,
6.672,-0.58,2.07,1.80,0.96,1.77,-0.44,
6.672,-0.68,3.78,1.68,0.96,1.77,-0.44,
6.673,-0.68,3.78,1.68,0.96,1.77,-0.44,
6.693,-0.68,3.78,1.68,1.07,1.83,-0.53,
6.694,-0.68,3.78,1.68,1.07,1.83,-0.53,
6.694,-0.96,4.01,1.85,1.07,1.83,-0.53,
6.695,-0.96,4.01,1.85,1.07,1.83,-0.53,
6.695,-0.96,4.01,1.85,1.07,1.83,-0.53,
6.696,-0.96,4.01,1.85,1.07,1.83,-0.53,
6.696,-0.96,4.01,1.85,1.07,1.83,-0.53,
6.697,-0.96,4.01,1.85,1.07,1.83,-0.53,
6.699,-0.96,4.01,1.85,1.03,1.60,-0.38,
6.7,-0.96,4.01,1.85,1.03,1.60,-0.38,
6.701,-1.83,4.84,2.71,1.03,1.60,-0.38,
6.701,-1.83,4.84,2.71,1.03,1.60,-0.38,
6.71,-1.83,4.84,2.71,1.16,1.48,-0.07,
6.711,-1.83,4.84,2.71,1.16,1.48,-0.07,
6.711,-2.23,5.24,3.14,1.16,1.48,-0.07,
6.712,-2.23,5.24,3.14,1.16,1.48,-0.07,
6.718,-2.23,5.24,3.14,1.47,1.53,0.37,
6.719,-2.23,5.24,3.14,1.47,1.53,0.37,
6.72,-2.53,5.59,3.50,1.47,1.53,0.37,
6.72,-2.53,5.59,3.50,1.47,1.53,0.37,
6.728,-2.53,5.59,3.50,1.96,1.85,0.83,
6.729,-2.53,5.59,3.50,1.96,1.85,0.83,
6.729,-2.66,5.82,3.74,1.96,1.85,0.83,
6.73,-2.66,5.82,3.74,1.96,1.85,0.83,
6.737,-2.66,5.82,3.74,2.64,2.18,0.73,
6.738,-2.66,5.82,3.74,2.64,2.18,0.73,
6.739,-2.63,5.95,3.84,2.64,2.18,0.73,
6.739,-2.63,5.95,3.84,2.64,2.18,0.73,
6.746,-2.63,5.95,3.84,2.97,3.02,0.30,
6.747,-2.63,5.95,3.84,2.97,3.02,0.30,
6.748,-2.52,5.91,3.82,2.97,3.02,0.30,
6.748,-2.52,5.91,3.82,2.97,3.02,0.30,
6.756,-2.52,5.91,3.82,2.77,4.83,0.16,
6.758,-2.52,5.91,3.82,2.77,4.83,0.16,
6.759,-2.37,5.71,3.67,2.77,4.83,0.16,
6.76,-2.37,5.71,3.67,2.77,4.83,0.16,
6.775,-2.37,5.71,3.67,3.73,7.23,-0.42,
6.776,-2.37,5.71,3.67,3.73,7.23,-0.42,
6.776,-2.18,5.36,3.35,3.73,7.23,-0.42,
6.777,-2.18,5.36,3.35,3.73,7.23,-0.42,
6.777,-2.18,5.36,3.35,4.54,9.61,-0.97,
6.778,-2.18,5.36,3.35,4.54,9.61,-0.97,
6.778,-2.00,4.89,2.84,4.54,9.61,-0.97,
6.779,-2.00,4.89,2.84,4.54,9.61,-0.97,
6.792,-2.00,4.89,2.84,4.04,10.81,-0.95,
6.793,-2.00,4.89,2.84,4.04,10.81,-0.95,
6.793,-1.81,4.32,2.20,4.04,10.81,-0.95,
6.794,-1.81,4.32,2.20,4.04,10.81,-0.95,
6.794,-1.81,4.32,2.20,4.04,10.81,-0.95,
6.794,-1.81,4.32,2.20,4.04,10.81,-0.95,
6.795,-1.81,4.32,2.20,4.04,10.81,-0.95,
6.795,-1.81,4.32,2.20,4.04,10.81,-0.95,
6.804,-1.81,4.32,2.20,3.49,9.91,-0.78,
6.805,-1.81,4.32,2.20,3.49,9.91,-0.78,
6.805,-1.71,0.62,-1.29,3.49,9.91,-0.78,
6.806,-1.71,0.62,-1.29,3.49,9.91,-0.78,
6.815,-1.71,0.62,-1.29,3.05,5.54,-0.70,
6.816,-1.71,0.62,-1.29,3.05,5.54,-0.70,
6.817,-1.72,-1.69,-3.70,3.05,5.54,-0.70,
6.817,-1.72,-1.69,-3.70,3.05,5.54,-0.70,
6.823,-1.72,-1.69,-3.70,2.70,-3.40,-0.88,
6.824,-1.72,-1.69,-3.70,2.70,-3.40,-0.88,
6.824,-1.57,-4.41,-6.89,2.70,-3.40,-0.88,
6.825,-1.57,-4.41,-6.89,2.70,-3.40,-0.88,
6.833,-1.57,-4.41,-6.89,-0.67,-8.03,-1.07,
6.834,-1.57,-4.41,-6.89,-0.67,-8.03,-1.07,
6.834,0.18,-6.66,-10.41,-0.67,-8.03,-1.07,
6.835,0.18,-6.66,-10.41,-0.67,-8.03,-1.07,
6.845,0.18,-6.66,-10.41,-5.54,-6.97,-1.54,
6.846,0.18,-6.66,-10.41,-5.54,-6.97,-1.54,
6.847,2.76,-7.06,-12.47,-5.54,-6.97,-1.54,
6.848,2.76,-7.06,-12.47,-5.54,-6.97,-1.54,
6.853,2.76,-7.06,-12.47,-8.19,-6.16,-2.45,
6.854,2.76,-7.06,-12.47,-8.19,-6.16,-2.45,
6.855,4.47,-7.15,-12.52,-8.19,-6.16,-2.45,
6.856,4.47,-7.15,-12.52,-8.19,-6.16,-2.45,
6.867,4.47,-7.15,-12.52,-9.50,-4.45,-3.44,
6.869,4.47,-7.15,-12.52,-9.50,-4.45,-3.44,
6.87,6.32,-5.45,-10.51,-9.50,-4.45,-3.44,
6.871,6.32,-5.45,-10.51,-9.50,-4.45,-3.44,
6.876,6.32,-5.45,-10.51,-9.78,-2.74,-4.19,
6.876,6.32,-5.45,-10.51,-9.78,-2.74,-4.19,
6.877,6.48,-3.54,-7.74,-9.78,-2.74,-4.19,
6.877,6.48,-3.54,-7.74,-9.78,-2.74,-4.19,
6.882,6.48,-3.54,-7.74,-9.27,-1.31,-4.66,
6.883,6.48,-3.54,-7.74,-9.27,-1.31,-4.66,
6.883,6.04,-3.05,-5.70,-9.27,-1.31,-4.66,
6.884,6.04,-3.05,-5.70,-9.27,-1.31,-4.66,
6.889,6.04,-3.05,-5.70,-8.21,-0.20,-4.84,
6.89,6.04,-3.05,-5.70,-8.21,-0.20,-4.84,
6.89,3.84,-1.49,-5.40,-8.21,-0.20,-4.84,
6.891,3.84,-1.49,-5.40,-8.21,-0.20,-4.84,
6.899,3.84,-1.49,-5.40,-6.86,0.57,-4.77,
6.9,3.84,-1.49,-5.40,-6.86,0.57,-4.77,
6.9,2.14,-0.97,-4.97,-6.86,0.57,-4.77,
6.901,2.14,-0.97,-4.97,-6.86,0.57,-4.77,
6.908,2.14,-0.97,-4.97,-5.47,0.96,-4.42,
6.909,2.14,-0.97,-4.97,-5.47,0.96,-4.42,
6.909,0.45,0.56,-4.51,-5.47,0.96,-4.42,
6.909,0.45,0.56,-4.51,-5.47,0.96,-4.42,
6.918,0.45,0.56,-4.51,-4.22,0.99,-3.78,
6.919,0.45,0.56,-4.51,-4.22,0.99,-3.78,
6.919,0.09,0.73,-2.91,-4.22,0.99,-3.78,
6.92,0.09,0.73,-2.91,-4.22,0.99,-3.78,
6.929,0.09,0.73,-2.91,-3.16,0.73,-2.91,
6.929,0.09,0.73,-2.91,-3.16,0.73,-2.91,
6.93,-1.39,0.56,-2.64,-3.16,0.73,-2.91,
6.93,-1.39,0.56,-2.64,-3.16,0.73,-2.91,
6.937,-1.39,0.56,-2.64,-2.20,0.32,-1.89,
6.938,-1.39,0.56,-2.64,-2.20,0.32,-1.89,
6.939,-1.86,-1.40,-0.84,-2.20,0.32,-1.89,
6.94,-1.86,-1.40,-0.84,-2.20,0.32,-1.89,
6.946,-1.86,-1.40,-0.84,-1.44,0.22,-0.82,
6.947,-1.86,-1.40,-0.84,-1.44,0.22,-0.82,
6.948,-2.25,-3.03,-0.42,-1.44,0.22,-0.82,
6.948,-2.25,-3.03,-0.42,-1.44,0.22,-0.82,
6.956,-2.25,-3.03,-0.42,-0.53,0.45,-0.32,
6.957,-2.25,-3.03,-0.42,-0.53,0.45,-0.32,
6.958,-2.36,-3.37,1.33,-0.53,0.45,-0.32,
6.958,-2.36,-3.37,1.33,-0.53,0.45,-0.32,
6.967,-2.36,-3.37,1.33,0.77,0.34,-0.45,
6.968,-2.36,-3.37,1.33,0.77,0.34,-0.45,
6.969,-2.15,-3.65,1.82,0.77,0.34,-0.45,
6.969,-2.15,-3.65,1.82,0.77,0.34,-0.45,
6.975,-2.15,-3.65,1.82,2.06,0.08,-0.79,
6.976,-2.15,-3.65,1.82,2.06,0.08,-0.79,
6.977,-1.84,-3.64,2.22,2.06,0.08,-0.79,
6.977,-1.84,-3.64,2.22,2.06,0.08,-0.79,
6.985,-1.84,-3.64,2.22,2.06,0.08,-0.79,
6.986,-1.84,-3.64,2.22,2.06,0.08,-0.79,
6.986,-1.84,-3.64,2.22,2.06,0.08,-0.79,
6.986,-1.84,-3.64,2.22,2.06,0.08,-0.79,
6.995,-1.84,-3.64,2.22,3.19,0.09,-1.06,
6.996,-1.84,-3.64,2.22,3.19,0.09,-1.06,
6.996,-1.60,-1.64,0.56,3.19,0.09,-1.06,
6.996,-1.60,-1.64,0.56,3.19,0.09,-1.06,
7.004,-1.60,-1.64,0.56,3.97,0.22,-0.98,
7.005,-1.60,-1.64,0.56,3.97,0.22,-0.98,
7.006,-0.01,-1.10,-5.43,3.97,0.22,-0.98,
7.006,-0.01,-1.10,-5.43,3.97,0.22,-0.98,
7.013,-0.01,-1.10,-5.43,4.15,0.33,-0.67,
7.015,-0.01,-1.10,-5.43,4.15,0.33,-0.67,
7.015,0.53,-0.53,-7.36,4.15,0.33,-0.67,
7.016,0.53,-0.53,-7.36,4.15,0.33,-0.67,
7.023,0.53,-0.53,-7.36,3.44,0.24,-0.36,
7.024,0.53,-0.53,-7.36,3.44,0.24,-0.36,
7.025,2.10,0.06,-7.80,3.44,0.24,-0.36,
7.025,2.10,0.06,-7.80,3.44,0.24,-0.36,
7.033,2.10,0.06,-7.80,1.91,-0.04,-0.32,
7.034,2.10,0.06,-7.80,1.91,-0.04,-0.32,
7.035,2.47,1.74,-7.71,1.91,-0.04,-0.32,
7.035,2.47,1.74,-7.71,1.91,-0.04,-0.32,
7.042,2.47,1.74,-7.71,0.01,-0.27,-0.55,
7.043,2.47,1.74,-7.71,0.01,-0.27,-0.55,
7.044,2.30,2.12,-2.17,0.01,-0.27,-0.55,
7.044,2.30,2.12,-2.17,0.01,-0.27,-0.55,
7.051,2.30,2.12,-2.17,-1.54,-0.27,-0.91,
7.053,2.30,2.12,-2.17,-1.54,-0.27,-0.91,
7.054,0.70,3.73,-0.41,-1.54,-0.27,-0.91,
7.055,0.70,3.73,-0.41,-1.54,-0.27,-0.91,
7.066,0.70,3.73,-0.41,-2.23,-0.11,-1.17,
7.067,0.70,3.73,-0.41,-2.23,-0.11,-1.17,
7.067,-0.94,4.14,0.32,-2.23,-0.11,-1.17,
7.068,-0.94,4.14,0.32,-2.23,-0.11,-1.17,
7.07,-0.94,4.14,0.32,-1.97,0.01,-1.11,
7.071,-0.94,4.14,0.32,-1.97,0.01,-1.11,
7.072,-1.56,4.10,2.18,-1.97,0.01,-1.11,
7.072,-1.56,4.10,2.18,-1.97,0.01,-1.11,
7.083,-1.56,4.10,2.18,-1.00,-0.05,-0.60,
7.084,-1.56,4.10,2.18,-1.00,-0.05,-0.60,
7.084,-2.18,2.10,2.77,-1.00,-0.05,-0.60,
7.085,-2.18,2.10,2.77,-1.00,-0.05,-0.60,
7.09,-2.18,2.10,2.77,0.33,-0.28,0.28,
7.09,-2.18,2.10,2.77,0.33,-0.28,0.28,
7.09,-2.47,0.22,4.92,0.33,-0.28,0.28,
7.091,-2.47,0.22,4.92,0.33,-0.28,0.28,
7.099,-2.47,0.22,4.92,1.83,-0.32,0.61,
7.1,-2.47,0.22,4.92,1.83,-0.32,0.61,
7.101,-2.22,-0.30,6.57,1.83,-0.32,0.61,
7.101,-2.22,-0.30,6.57,1.83,-0.32,0.61,
7.109,-2.22,-0.30,6.57,3.47,-0.08,0.73,
7.11,-2.22,-0.30,6.57,3.47,-0.08,0.73,
7.11,-0.47,-1.76,6.84,3.47,-0.08,0.73,
7.111,-0.47,-1.76,6.84,3.47,-0.08,0.73,
7.119,-0.47,-1.76,6.84,5.09,0.46,0.96,
7.12,-0.47,-1.76,6.84,5.09,0.46,0.96,
