
time,ax,ay,az,wx,wy,wz,
0.002,0.02,-0.11,0.67,-0.27,-0.14,0.05,
0.003,0.02,-0.11,0.67,-0.27,-0.14,0.05,
0.003,-0.01,-0.07,0.49,-0.27,-0.14,0.05,
0.003,-0.01,-0.07,0.49,-0.27,-0.14,0.05,
0.013,-0.01,-0.07,0.49,-0.29,-0.10,0.10,
0.014,-0.01,-0.07,0.49,-0.29,-0.10,0.10,
0.014,-0.00,0.05,0.38,-0.29,-0.10,0.10,
0.015,-0.00,0.05,0.38,-0.29,-0.10,0.10,
0.015,-0.00,0.05,0.38,-0.29,-0.10,0.10,
0.015,-0.00,0.05,0.38,-0.29,-0.10,0.10,
0.016,-0.00,0.05,0.38,-0.29,-0.10,0.10,
0.016,-0.00,0.05,0.38,-0.29,-0.10,0.10,
0.029,-0.00,0.05,0.38,-0.28,-0.04,0.13,
0.03,-0.00,0.05,0.38,-0.28,-0.04,0.13,
0.03,0.15,0.22,0.34,-0.28,-0.04,0.13,
0.031,0.15,0.22,0.34,-0.28,-0.04,0.13,
0.034,0.15,0.22,0.34,-0.23,-0.01,0.13,
0.034,0.15,0.22,0.34,-0.23,-0.01,0.13,
0.035,0.26,0.24,0.31,-0.23,-0.01,0.13,
0.035,0.26,0.24,0.31,-0.23,-0.01,0.13,
0.043,0.26,0.24,0.31,-0.14,-0.00,0.10,
0.044,0.26,0.24,0.31,-0.14,-0.00,0.10,
0.044,0.35,0.20,0.28,-0.14,-0.00,0.10,
0.045,0.35,0.20,0.28,-0.14,-0.00,0.10,
0.053,0.35,0.20,0.28,-0.05,-0.04,0.06,
0.053,0.37,0.14,0.26,-0.05,-0.04,0.06,
0.053,0.37,0.14,0.26,-0.05,-0.04,0.06,
0.053,0.37,0.14,0.26,-0.05,-0.04,0.06,
0.061,0.37,0.14,0.26,0.04,-0.11,0.01,
0.062,0.37,0.14,0.26,0.04,-0.11,0.01,
0.063,0.31,0.08,0.25,0.04,-0.11,0.01,
0.063,0.31,0.08,0.25,0.04,-0.11,0.01,
0.071,0.31,0.08,0.25,0.09,-0.18,-0.04,
0.072,0.31,0.08,0.25,0.09,-0.18,-0.04,
0.072,0.22,-0.01,0.26,0.09,-0.18,-0.04,
0.072,0.22,-0.01,0.26,0.09,-0.18,-0.04,
0.081,0.22,-0.01,0.26,0.11,-0.23,-0.08,
0.082,0.22,-0.01,0.26,0.11,-0.23,-0.08,
0.082,0.10,-0.08,0.25,0.11,-0.23,-0.08,
0.083,0.10,-0.08,0.25,0.11,-0.23,-0.08,
0.097,0.10,-0.08,0.25,0.10,-0.23,-0.08,
0.098,0.10,-0.08,0.25,0.10,-0.23,-0.08,
0.098,0.00,-0.17,0.18,0.10,-0.23,-0.08,
0.099,0.00,-0.17,0.18,0.10,-0.23,-0.08,
0.1,0.00,-0.17,0.18,0.06,-0.19,-0.07,
0.101,0.00,-0.17,0.18,0.06,-0.19,-0.07,
0.101,-0.04,-0.24,0.13,0.06,-0.19,-0.07,
0.102,-0.04,-0.24,0.13,0.06,-0.19,-0.07,
0.11,-0.04,-0.24,0.13,0.01,-0.11,-0.03,
0.112,-0.04,-0.24,0.13,0.01,-0.11,-0.03,
0.113,-0.09,-0.21,0.08,0.01,-0.11,-0.03,
0.113,-0.09,-0.21,0.08,0.01,-0.11,-0.03,
0.118,-0.09,-0.21,0.08,-0.04,-0.02,0.02,
0.119,-0.09,-0.21,0.08,-0.04,-0.02,0.02,
0.12,-0.10,-0.18,0.06,-0.04,-0.02,0.02,
0.12,-0.10,-0.18,0.06,-0.04,-0.02,0.02,
0.128,-0.10,-0.18,0.06,-0.08,0.08,0.08,
0.129,-0.10,-0.18,0.06,-0.08,0.08,0.08,
0.129,-0.08,-0.11,0.10,-0.08,0.08,0.08,
0.13,-0.08,-0.11,0.10,-0.08,0.08,0.08,
0.138,-0.08,-0.11,0.10,-0.10,0.16,0.13,
0.139,-0.08,-0.11,0.10,-0.10,0.16,0.13,
0.139,-0.04,-0.04,0.10,-0.10,0.16,0.13,
0.14,-0.04,-0.04,0.10,-0.10,0.16,0.13,
0.147,-0.04,-0.04,0.10,-0.11,0.21,0.16,
0.148,-0.04,-0.04,0.10,-0.11,0.21,0.16,
0.148,0.02,-0.07,0.06,-0.11,0.21,0.16,
0.149,0.02,-0.07,0.06,-0.11,0.21,0.16,
0.157,0.02,-0.07,0.06,-0.09,0.23,0.17,
0.158,0.02,-0.07,0.06,-0.09,0.23,0.17,
0.159,0.09,-0.07,-0.03,-0.09,0.23,0.17,
0.159,0.09,-0.07,-0.03,-0.09,0.23,0.17,
0.167,0.09,-0.07,-0.03,-0.06,0.22,0.17,
0.167,0.09,-0.07,-0.03,-0.06,0.22,0.17,
0.168,0.13,-0.06,-0.14,-0.06,0.22,0.17,
0.169,0.13,-0.06,-0.14,-0.06,0.22,0.17,
0.175,0.13,-0.06,-0.14,-0.03,0.18,0.15,
0.176,0.13,-0.06,-0.14,-0.03,0.18,0.15,
0.177,0.16,-0.06,-0.21,-0.03,0.18,0.15,
0.178,0.16,-0.06,-0.21,-0.03,0.18,0.15,
0.185,0.16,-0.06,-0.21,0.00,0.12,0.12,
0.186,0.16,-0.06,-0.21,0.00,0.12,0.12,
0.186,0.20,-0.03,-0.17,0.00,0.12,0.12,
0.187,0.20,-0.03,-0.17,0.00,0.12,0.12,
0.197,0.20,-0.03,-0.17,0.03,0.05,0.08,
0.198,0.20,-0.03,-0.17,0.03,0.05,0.08,
0.199,0.19,-0.04,-0.04,0.03,0.05,0.08,
0.199,0.19,-0.04,-0.04,0.03,0.05,0.08,
0.205,0.19,-0.04,-0.04,0.06,-0.01,0.05,
0.206,0.19,-0.04,-0.04,0.06,-0.01,0.05,
0.206,0.18,-0.09,0.11,0.06,-0.01,0.05,
0.207,0.18,-0.09,0.11,0.06,-0.01,0.05,
0.214,0.18,-0.09,0.11,0.06,-0.01,0.05,
0.215,0.18,-0.09,0.11,0.06,-0.01,0.05,
0.216,0.18,-0.09,0.11,0.06,-0.01,0.05,
0.216,0.18,-0.09,0.11,0.06,-0.01,0.05,
0.224,0.18,-0.09,0.11,0.07,-0.05,0.04,
0.225,0.18,-0.09,0.11,0.07,-0.05,0.04,
0.225,0.23,-0.12,0.49,0.07,-0.05,0.04,
0.226,0.23,-0.12,0.49,0.07,-0.05,0.04,
0.233,0.23,-0.12,0.49,0.06,-0.09,0.03,
0.234,0.23,-0.12,0.49,0.06,-0.09,0.03,
0.234,0.29,-0.13,0.66,0.06,-0.09,0.03,
0.235,0.29,-0.13,0.66,0.06,-0.09,0.03,
0.243,0.29,-0.13,0.66,0.01,-0.11,0.04,
0.244,0.29,-0.13,0.66,0.01,-0.11,0.04,
0.245,0.34,-0.13,0.81,0.01,-0.11,0.04,
0.245,0.34,-0.13,0.81,0.01,-0.11,0.04,
0.254,0.34,-0.13,0.81,-0.06,-0.14,0.04,
0.255,0.34,-0.13,0.81,-0.06,-0.14,0.04,
0.255,0.37,-0.20,0.87,-0.06,-0.14,0.04,
0.256,0.37,-0.20,0.87,-0.06,-0.14,0.04,
0.262,0.37,-0.20,0.87,-0.13,-0.18,0.02,
0.263,0.37,-0.20,0.87,-0.13,-0.18,0.02,
0.264,0.34,-0.26,0.84,-0.13,-0.18,0.02,
0.265,0.34,-0.26,0.84,-0.13,-0.18,0.02,
0.271,0.34,-0.26,0.84,-0.20,-0.21,0.01,
0.272,0.34,-0.26,0.84,-0.20,-0.21,0.01,
0.273,0.31,-0.31,0.73,-0.20,-0.21,0.01,
0.274,0.31,-0.31,0.73,-0.20,-0.21,0.01,
0.28,0.31,-0.31,0.73,-0.27,-0.24,0.00,
0.281,0.31,-0.31,0.73,-0.27,-0.24,0.00,
0.282,0.29,-0.31,0.55,-0.27,-0.24,0.00,
0.283,0.29,-0.31,0.55,-0.27,-0.24,0.00,
0.29,0.29,-0.31,0.55,-0.31,-0.23,0.02,
0.291,0.29,-0.31,0.55,-0.31,-0.23,0.02,
0.293,0.27,-0.25,0.35,-0.31,-0.23,0.02,
0.294,0.27,-0.25,0.35,-0.31,-0.23,0.02,
0.3,0.27,-0.25,0.35,-0.33,-0.21,0.04,
0.3,0.27,-0.25,0.35,-0.33,-0.21,0.04,
0.301,0.29,-0.17,0.20,-0.33,-0.21,0.04,
0.301,0.29,-0.17,0.20,-0.33,-0.21,0.04,
0.313,0.29,-0.17,0.20,-0.32,-0.18,0.07,
0.315,0.29,-0.17,0.20,-0.32,-0.18,0.07,
0.316,0.34,-0.07,0.08,-0.32,-0.18,0.07,
0.317,0.34,-0.07,0.08,-0.32,-0.18,0.07,
0.318,0.34,-0.07,0.08,-0.26,-0.16,0.09,
0.319,0.34,-0.07,0.08,-0.26,-0.16,0.09,
0.32,0.38,0.02,-0.01,-0.26,-0.16,0.09,
0.321,0.38,0.02,-0.01,-0.26,-0.16,0.09,
0.333,0.38,0.02,-0.01,-0.18,-0.15,0.08,
0.334,0.38,0.02,-0.01,-0.18,-0.15,0.08,
0.335,0.43,0.09,-0.14,-0.18,-0.15,0.08,
0.336,0.43,0.09,-0.14,-0.18,-0.15,0.08,
0.339,0.43,0.09,-0.14,-0.08,-0.16,0.05,
0.34,0.43,0.09,-0.14,-0.08,-0.16,0.05,
0.34,0.48,0.14,-0.29,-0.08,-0.16,0.05,
0.341,0.48,0.14,-0.29,-0.08,-0.16,0.05,
0.347,0.48,0.14,-0.29,0.04,-0.20,-0.01,
0.348,0.48,0.14,-0.29,0.04,-0.20,-0.01,
0.349,0.53,0.14,-0.46,0.04,-0.20,-0.01,
0.349,0.53,0.14,-0.46,0.04,-0.20,-0.01,
0.357,0.53,0.14,-0.46,0.14,-0.25,-0.09,
0.358,0.53,0.14,-0.46,0.14,-0.25,-0.09,
0.358,0.54,0.13,-0.61,0.14,-0.25,-0.09,
0.359,0.54,0.13,-0.61,0.14,-0.25,-0.09,
0.367,0.54,0.13,-0.61,0.24,-0.30,-0.16,
0.368,0.54,0.13,-0.61,0.24,-0.30,-0.16,
0.368,0.55,0.07,-0.67,0.24,-0.30,-0.16,
0.369,0.55,0.07,-0.67,0.24,-0.30,-0.16,
0.375,0.55,0.07,-0.67,0.32,-0.36,-0.23,
0.376,0.55,0.07,-0.67,0.32,-0.36,-0.23,
0.377,0.56,0.03,-0.65,0.32,-0.36,-0.23,
0.377,0.56,0.03,-0.65,0.32,-0.36,-0.23,
0.385,0.56,0.03,-0.65,0.36,-0.40,-0.27,
0.385,0.56,0.03,-0.65,0.36,-0.40,-0.27,
0.385,0.60,0.02,-0.56,0.36,-0.40,-0.27,
0.386,0.60,0.02,-0.56,0.36,-0.40,-0.27,
0.395,0.60,0.02,-0.56,0.37,-0.43,-0.31,
0.396,0.60,0.02,-0.56,0.37,-0.43,-0.31,
0.396,0.68,0.05,-0.45,0.37,-0.43,-0.31,
0.397,0.68,0.05,-0.45,0.37,-0.43,-0.31,
0.404,0.68,0.05,-0.45,0.37,-0.43,-0.31,
0.405,0.68,0.05,-0.45,0.37,-0.43,-0.31,
0.406,0.68,0.05,-0.45,0.37,-0.43,-0.31,
0.407,0.68,0.05,-0.45,0.37,-0.43,-0.31,
0.414,0.68,0.05,-0.45,0.36,-0.45,-0.33,
0.416,0.68,0.05,-0.45,0.36,-0.45,-0.33,
0.417,0.94,0.23,-0.26,0.36,-0.45,-0.33,
0.418,0.94,0.23,-0.26,0.36,-0.45,-0.33,
0.424,0.94,0.23,-0.26,0.32,-0.49,-0.36,
0.425,0.94,0.23,-0.26,0.32,-0.49,-0.36,
0.426,1.08,0.31,-0.16,0.32,-0.49,-0.36,
0.427,1.08,0.31,-0.16,0.32,-0.49,-0.36,
0.432,1.08,0.31,-0.16,0.29,-0.56,-0.40,
0.433,1.08,0.31,-0.16,0.29,-0.56,-0.40,
0.434,1.20,0.32,-0.10,0.29,-0.56,-0.40,
0.434,1.20,0.32,-0.10,0.29,-0.56,-0.40,
0.442,1.20,0.32,-0.10,0.27,-0.67,-0.48,
0.442,1.20,0.32,-0.10,0.27,-0.67,-0.48,
0.443,1.31,0.29,-0.08,0.27,-0.67,-0.48,
0.443,1.31,0.29,-0.08,0.27,-0.67,-0.48,
0.452,1.31,0.29,-0.08,0.25,-0.82,-0.57,
0.452,1.31,0.29,-0.08,0.25,-0.82,-0.57,
0.453,1.37,0.10,-0.13,0.25,-0.82,-0.57,
0.454,1.37,0.10,-0.13,0.25,-0.82,-0.57,
0.461,1.37,0.10,-0.13,0.21,-0.95,-0.67,
0.463,1.37,0.10,-0.13,0.21,-0.95,-0.67,
0.464,1.32,-0.20,-0.27,0.21,-0.95,-0.67,
0.464,1.32,-0.20,-0.27,0.21,-0.95,-0.67,
0.474,1.32,-0.20,-0.27,0.15,-1.06,-0.73,
0.475,1.32,-0.20,-0.27,0.15,-1.06,-0.73,
0.477,1.25,-0.47,-0.43,0.15,-1.06,-0.73,
0.479,1.25,-0.47,-0.43,0.15,-1.06,-0.73,
0.483,1.25,-0.47,-0.43,0.05,-1.11,-0.76,
0.485,1.25,-0.47,-0.43,0.05,-1.11,-0.76,
0.485,1.16,-0.63,-0.60,0.05,-1.11,-0.76,
0.486,1.16,-0.63,-0.60,0.05,-1.11,-0.76,
0.491,1.16,-0.63,-0.60,-0.08,-1.12,-0.75,
0.491,1.16,-0.63,-0.60,-0.08,-1.12,-0.75,
0.492,1.14,-0.51,-0.75,-0.08,-1.12,-0.75,
0.493,1.14,-0.51,-0.75,-0.08,-1.12,-0.75,
0.499,1.14,-0.51,-0.75,-0.21,-1.07,-0.72,
0.499,1.14,-0.51,-0.75,-0.21,-1.07,-0.72,
0.5,1.26,-0.15,-0.82,-0.21,-1.07,-0.72,
0.5,1.26,-0.15,-0.82,-0.21,-1.07,-0.72,
0.509,1.26,-0.15,-0.82,-0.30,-1.01,-0.69,
0.51,1.26,-0.15,-0.82,-0.30,-1.01,-0.69,
0.51,1.55,0.33,-0.81,-0.30,-1.01,-0.69,
0.51,1.55,0.33,-0.81,-0.30,-1.01,-0.69,
0.518,1.55,0.33,-0.81,-0.31,-0.97,-0.72,
0.519,1.55,0.33,-0.81,-0.31,-0.97,-0.72,
0.519,1.91,0.74,-0.81,-0.31,-0.97,-0.72,
0.52,1.91,0.74,-0.81,-0.31,-0.97,-0.72,
0.528,1.91,0.74,-0.81,-0.21,-1.03,-0.85,
0.529,1.91,0.74,-0.81,-0.21,-1.03,-0.85,
0.529,2.36,1.02,-0.85,-0.21,-1.03,-0.85,
0.53,2.36,1.02,-0.85,-0.21,-1.03,-0.85,
0.537,2.36,1.02,-0.85,-0.03,-1.21,-1.09,
0.538,2.36,1.02,-0.85,-0.03,-1.21,-1.09,
0.539,2.84,1.12,-0.95,-0.03,-1.21,-1.09,
0.539,2.84,1.12,-0.95,-0.03,-1.21,-1.09,
0.547,2.84,1.12,-0.95,0.18,-1.51,-1.40,
0.548,2.84,1.12,-0.95,0.18,-1.51,-1.40,
0.548,3.19,0.95,-1.02,0.18,-1.51,-1.40,
0.549,3.19,0.95,-1.02,0.18,-1.51,-1.40,
0.557,3.19,0.95,-1.02,0.36,-1.90,-1.71,
0.559,3.19,0.95,-1.02,0.36,-1.90,-1.71,
0.56,3.34,0.54,-0.96,0.36,-1.90,-1.71,
0.561,3.34,0.54,-0.96,0.36,-1.90,-1.71,
0.566,3.34,0.54,-0.96,0.44,-2.31,-1.95,
0.567,3.34,0.54,-0.96,0.44,-2.31,-1.95,
0.567,3.22,-1.31,-0.80,0.44,-2.31,-1.95,
0.567,3.22,-1.31,-0.80,0.44,-2.31,-1.95,
0.575,3.22,-1.31,-0.80,0.37,-2.62,-2.00,
0.576,3.22,-1.31,-0.80,0.37,-2.62,-2.00,
0.576,2.86,-1.69,-0.64,0.37,-2.62,-2.00,
0.577,2.86,-1.69,-0.64,0.37,-2.62,-2.00,
0.593,2.86,-1.69,-0.64,0.11,-2.72,-1.75,
0.594,2.86,-1.69,-0.64,0.11,-2.72,-1.75,
0.595,2.45,-2.27,-0.53,0.11,-2.72,-1.75,
0.595,2.45,-2.27,-0.53,0.11,-2.72,-1.75,
0.596,2.45,-2.27,-0.53,-0.31,-2.55,-1.21,
0.596,2.45,-2.27,-0.53,-0.31,-2.55,-1.21,
0.596,2.11,-2.82,-0.55,-0.31,-2.55,-1.21,
0.597,2.11,-2.82,-0.55,-0.31,-2.55,-1.21,
0.604,2.11,-2.82,-0.55,-0.31,-2.55,-1.21,
0.605,2.11,-2.82,-0.55,-0.31,-2.55,-1.21,
0.605,2.11,-2.82,-0.55,-0.31,-2.55,-1.21,
0.606,2.11,-2.82,-0.55,-0.31,-2.55,-1.21,
0.613,2.11,-2.82,-0.55,-0.80,-2.17,-0.52,
0.615,2.11,-2.82,-0.55,-0.80,-2.17,-0.52,
0.616,2.01,-3.14,-0.82,-0.80,-2.17,-0.52,
0.617,2.01,-3.14,-0.82,-0.80,-2.17,-0.52,
0.623,2.01,-3.14,-0.82,-0.96,-1.69,0.17,
0.625,2.01,-3.14,-0.82,-0.96,-1.69,0.17,
0.626,2.14,-2.94,-1.08,-0.96,-1.69,0.17,
0.627,2.14,-2.94,-1.08,-0.96,-1.69,0.17,
0.632,2.14,-2.94,-1.08,-0.77,-1.21,0.76,
0.633,2.14,-2.94,-1.08,-0.77,-1.21,0.76,
0.634,2.31,-2.65,-1.45,-0.77,-1.21,0.76,
0.634,2.31,-2.65,-1.45,-0.77,-1.21,0.76,
0.642,2.31,-2.65,-1.45,-0.56,-0.86,1.20,
0.644,2.31,-2.65,-1.45,-0.56,-0.86,1.20,
0.644,2.44,-2.49,-1.99,-0.56,-0.86,1.20,
0.645,2.44,-2.49,-1.99,-0.56,-0.86,1.20,
0.651,2.44,-2.49,-1.99,-0.36,-0.68,1.42,
0.652,2.44,-2.49,-1.99,-0.36,-0.68,1.42,
0.653,2.47,-2.65,-3.72,-0.36,-0.68,1.42,
0.653,2.47,-2.65,-3.72,-0.36,-0.68,1.42,
0.661,2.47,-2.65,-3.72,-0.35,-0.67,1.45,
0.662,2.47,-2.65,-3.72,-0.35,-0.67,1.45,
0.663,2.39,-3.11,-3.95,-0.35,-0.67,1.45,
0.663,2.39,-3.11,-3.95,-0.35,-0.67,1.45,
0.67,2.39,-3.11,-3.95,-0.48,-0.82,1.34,
0.671,2.39,-3.11,-3.95,-0.48,-0.82,1.34,
0.671,2.28,-3.75,-4.25,-0.48,-0.82,1.34,
0.672,2.28,-3.75,-4.25,-0.48,-0.82,1.34,
0.692,2.28,-3.75,-4.25,-0.58,-1.07,1.20,
0.693,2.28,-3.75,-4.25,-0.58,-1.07,1.20,
0.694,2.15,-4.37,-4.34,-0.58,-1.07,1.20,
0.694,2.15,-4.37,-4.34,-0.58,-1.07,1.20,
0.695,2.15,-4.37,-4.34,-0.58,-1.07,1.20,
0.695,2.15,-4.37,-4.34,-0.58,-1.07,1.20,
0.696,2.15,-4.37,-4.34,-0.58,-1.07,1.20,
0.696,2.15,-4.37,-4.34,-0.58,-1.07,1.20,
0.699,2.15,-4.37,-4.34,-1.01,-1.52,1.32,
0.7,2.15,-4.37,-4.34,-1.01,-1.52,1.32,
0.7,2.05,-4.74,-3.69,-1.01,-1.52,1.32,
0.701,2.05,-4.74,-3.69,-1.01,-1.52,1.32,
0.708,2.05,-4.74,-3.69,-1.35,-1.60,1.67,
0.709,2.05,-4.74,-3.69,-1.35,-1.60,1.67,
0.71,2.15,-4.45,-3.08,-1.35,-1.60,1.67,
0.71,2.15,-4.45,-3.08,-1.35,-1.60,1.67,
0.718,2.15,-4.45,-3.08,-1.65,-1.59,2.07,
0.719,2.15,-4.45,-3.08,-1.65,-1.59,2.07,
0.719,2.44,-3.98,-2.44,-1.65,-1.59,2.07,
0.72,2.44,-3.98,-2.44,-1.65,-1.59,2.07,
0.727,2.44,-3.98,-2.44,-1.78,-1.51,2.39,
0.728,2.44,-3.98,-2.44,-1.78,-1.51,2.39,
0.729,2.94,-3.51,-1.80,-1.78,-1.51,2.39,
0.729,2.94,-3.51,-1.80,-1.78,-1.51,2.39,
0.737,2.94,-3.51,-1.80,-1.68,-1.41,2.51,
0.738,2.94,-3.51,-1.80,-1.68,-1.41,2.51,
0.738,4.42,-3.10,-1.23,-1.68,-1.41,2.51,
0.739,4.42,-3.10,-1.23,-1.68,-1.41,2.51,
0.747,4.42,-3.10,-1.23,-1.38,-1.38,2.38,
0.748,4.42,-3.10,-1.23,-1.38,-1.38,2.38,
0.749,4.82,-2.94,-0.74,-1.38,-1.38,2.38,
0.75,4.82,-2.94,-0.74,-1.38,-1.38,2.38,
0.756,4.82,-2.94,-0.74,-1.00,-1.48,2.03,
0.757,4.82,-2.94,-0.74,-1.00,-1.48,2.03,
0.758,5.25,-3.10,-0.37,-1.00,-1.48,2.03,
0.759,5.25,-3.10,-0.37,-1.00,-1.48,2.03,
0.766,5.25,-3.10,-0.37,-0.66,-1.71,1.56,
0.767,5.25,-3.10,-0.37,-0.66,-1.71,1.56,
0.767,5.37,-3.56,-0.11,-0.66,-1.71,1.56,
0.768,5.37,-3.56,-0.11,-0.66,-1.71,1.56,
0.776,5.37,-3.56,-0.11,-0.43,-1.93,1.14,
0.777,5.37,-3.56,-0.11,-0.43,-1.93,1.14,
0.778,4.87,-4.95,0.28,-0.43,-1.93,1.14,
0.779,4.87,-4.95,0.28,-0.43,-1.93,1.14,
0.786,4.87,-4.95,0.28,-0.34,-2.03,0.95,
0.787,4.87,-4.95,0.28,-0.34,-2.03,0.95,
0.788,3.11,-5.12,0.54,-0.34,-2.03,0.95,
0.789,3.11,-5.12,0.54,-0.34,-2.03,0.95,
0.795,3.11,-5.12,0.54,-0.35,-1.91,1.09,
0.796,3.11,-5.12,0.54,-0.35,-1.91,1.09,
0.797,1.36,-5.17,0.78,-0.35,-1.91,1.09,
0.797,1.36,-5.17,0.78,-0.35,-1.91,1.09,
0.804,1.36,-5.17,0.78,-0.35,-1.91,1.09,
0.804,1.36,-5.17,0.78,-0.35,-1.91,1.09,
0.804,1.36,-5.17,0.78,-0.35,-1.91,1.09,
0.805,1.36,-5.17,0.78,-0.35,-1.91,1.09,
0.813,1.36,-5.17,0.78,-0.37,-1.53,1.56,
0.814,1.36,-5.17,0.78,-0.37,-1.53,1.56,
0.815,1.46,-4.94,0.94,-0.37,-1.53,1.56,
0.816,1.46,-4.94,0.94,-0.37,-1.53,1.56,
0.825,1.46,-4.94,0.94,-0.29,-0.92,2.26,
0.826,1.46,-4.94,0.94,-0.29,-0.92,2.26,
0.827,1.85,-4.73,1.09,-0.29,-0.92,2.26,
0.828,1.85,-4.73,1.09,-0.29,-0.92,2.26,
0.832,1.85,-4.73,1.09,-0.11,-0.24,2.99,
0.833,1.85,-4.73,1.09,-0.11,-0.24,2.99,
0.833,2.35,-4.55,1.39,-0.11,-0.24,2.99,
0.833,2.35,-4.55,1.39,-0.11,-0.24,2.99,
0.842,2.35,-4.55,1.39,0.13,0.28,3.57,
0.843,2.35,-4.55,1.39,0.13,0.28,3.57,
0.843,2.73,-4.42,1.79,0.13,0.28,3.57,
0.844,2.73,-4.42,1.79,0.13,0.28,3.57,
0.853,2.73,-4.42,1.79,0.34,0.53,3.91,
0.855,2.73,-4.42,1.79,0.34,0.53,3.91,
0.855,2.79,-4.38,2.30,0.34,0.53,3.91,
0.856,2.79,-4.38,2.30,0.34,0.53,3.91,
0.861,2.79,-4.38,2.30,0.51,0.56,4.03,
0.862,2.79,-4.38,2.30,0.51,0.56,4.03,
0.862,2.54,-4.57,2.66,0.51,0.56,4.03,
0.863,2.54,-4.57,2.66,0.51,0.56,4.03,
0.87,2.54,-4.57,2.66,0.68,0.46,4.07,
0.872,2.54,-4.57,2.66,0.68,0.46,4.07,
0.873,2.03,-5.03,2.73,0.68,0.46,4.07,
0.874,2.03,-5.03,2.73,0.68,0.46,4.07,
0.88,2.03,-5.03,2.73,0.83,0.36,4.15,
0.881,2.03,-5.03,2.73,0.83,0.36,4.15,
0.882,1.40,-6.46,2.47,0.83,0.36,4.15,
0.883,1.40,-6.46,2.47,0.83,0.36,4.15,
0.896,1.40,-6.46,2.47,0.90,0.28,4.33,
0.897,1.40,-6.46,2.47,0.90,0.28,4.33,
0.897,0.91,-6.61,0.81,0.90,0.28,4.33,
0.897,0.91,-6.61,0.81,0.90,0.28,4.33,
0.899,0.91,-6.61,0.81,0.82,0.24,4.62,
0.9,0.91,-6.61,0.81,0.82,0.24,4.62,
0.9,0.76,-6.62,0.43,0.82,0.24,4.62,
0.9,0.76,-6.62,0.43,0.82,0.24,4.62,
0.908,0.76,-6.62,0.43,0.58,0.18,4.95,
0.909,0.76,-6.62,0.43,0.58,0.18,4.95,
0.909,1.13,-6.25,-1.79,0.58,0.18,4.95,
0.91,1.13,-6.25,-1.79,0.58,0.18,4.95,
0.919,1.13,-6.25,-1.79,0.24,0.04,5.21,
0.92,1.13,-6.25,-1.79,0.24,0.04,5.21,
0.921,3.17,-4.25,-3.75,0.24,0.04,5.21,
0.921,3.17,-4.25,-3.75,0.24,0.04,5.21,
0.927,3.17,-4.25,-3.75,-0.09,-0.28,5.25,
0.928,3.17,-4.25,-3.75,-0.09,-0.28,5.25,
0.929,5.02,-3.55,-5.56,-0.09,-0.28,5.25,
0.929,5.02,-3.55,-5.56,-0.09,-0.28,5.25,
0.937,5.02,-3.55,-5.56,-0.33,-0.93,4.96,
0.938,5.02,-3.55,-5.56,-0.33,-0.93,4.96,
0.938,6.64,-1.58,-5.99,-0.33,-0.93,4.96,
0.938,6.64,-1.58,-5.99,-0.33,-0.93,4.96,
0.947,6.64,-1.58,-5.99,-0.47,-1.99,4.24,
0.947,6.64,-1.58,-5.99,-0.47,-1.99,4.24,
0.948,7.10,-0.98,-6.49,-0.47,-1.99,4.24,
0.948,7.10,-0.98,-6.49,-0.47,-1.99,4.24,
0.956,7.10,-0.98,-6.49,-0.47,-3.37,3.09,
0.957,7.10,-0.98,-6.49,-0.47,-3.37,3.09,
0.959,7.46,-0.54,-6.53,-0.47,-3.37,3.09,
0.96,7.46,-0.54,-6.53,-0.47,-3.37,3.09,
0.965,7.46,-0.54,-6.53,-0.37,-4.80,1.70,
0.966,7.46,-0.54,-6.53,-0.37,-4.80,1.70,
0.967,7.78,-0.37,-6.21,-0.37,-4.80,1.70,
0.967,7.78,-0.37,-6.21,-0.37,-4.80,1.70,
0.975,7.78,-0.37,-6.21,-0.25,-5.96,0.35,
0.976,7.78,-0.37,-6.21,-0.25,-5.96,0.35,
0.976,9.34,-0.36,-5.92,-0.25,-5.96,0.35,
0.977,9.34,-0.36,-5.92,-0.25,-5.96,0.35,
0.991,9.34,-0.36,-5.92,-0.15,-6.68,-0.73,
0.992,9.34,-0.36,-5.92,-0.15,-6.68,-0.73,
0.993,9.69,-0.34,-5.87,-0.15,-6.68,-0.73,
0.993,9.69,-0.34,-5.87,-0.15,-6.68,-0.73,
0.994,9.69,-0.34,-5.87,-0.15,-6.68,-0.73,
0.995,9.69,-0.34,-5.87,-0.15,-6.68,-0.73,
0.995,9.69,-0.34,-5.87,-0.15,-6.68,-0.73,
0.996,9.69,-0.34,-5.87,-0.15,-6.68,-0.73,
1.003,9.69,-0.34,-5.87,-0.07,-6.99,-1.43,
1.005,9.69,-0.34,-5.87,-0.07,-6.99,-1.43,
1.005,11.74,-0.46,-6.56,-0.07,-6.99,-1.43,
1.006,11.74,-0.46,-6.56,-0.07,-6.99,-1.43,
1.013,11.74,-0.46,-6.56,-0.01,-7.00,-1.81,
1.014,11.74,-0.46,-6.56,-0.01,-7.00,-1.81,
1.014,11.88,-0.56,-6.85,-0.01,-7.00,-1.81,
1.015,11.88,-0.56,-6.85,-0.01,-7.00,-1.81,
1.023,11.88,-0.56,-6.85,-0.01,-6.84,-1.93,
1.023,11.88,-0.56,-6.85,-0.01,-6.84,-1.93,
1.024,11.65,-0.87,-6.96,-0.01,-6.84,-1.93,
1.024,11.65,-0.87,-6.96,-0.01,-6.84,-1.93,
1.032,11.65,-0.87,-6.96,-0.05,-6.60,-1.87,
1.033,11.65,-0.87,-6.96,-0.05,-6.60,-1.87,
1.033,11.18,-1.23,-7.00,-0.05,-6.60,-1.87,
1.034,11.18,-1.23,-7.00,-0.05,-6.60,-1.87,
1.042,11.18,-1.23,-7.00,-0.07,-6.26,-1.65,
1.043,11.18,-1.23,-7.00,-0.07,-6.26,-1.65,
1.043,10.76,-1.52,-7.11,-0.07,-6.26,-1.65,
1.044,10.76,-1.52,-7.11,-0.07,-6.26,-1.65,
1.051,10.76,-1.52,-7.11,0.02,-5.83,-1.31,
1.052,10.76,-1.52,-7.11,0.02,-5.83,-1.31,
1.052,10.56,-1.64,-7.40,0.02,-5.83,-1.31,
1.053,10.56,-1.64,-7.40,0.02,-5.83,-1.31,
1.061,10.56,-1.64,-7.40,0.20,-5.34,-0.89,
1.062,10.56,-1.64,-7.40,0.20,-5.34,-0.89,
1.063,10.56,-1.54,-7.89,0.20,-5.34,-0.89,
1.063,10.56,-1.54,-7.89,0.20,-5.34,-0.89,
1.07,10.56,-1.54,-7.89,0.41,-4.87,-0.48,
1.071,10.56,-1.54,-7.89,0.41,-4.87,-0.48,
1.072,10.48,-1.34,-8.42,0.41,-4.87,-0.48,
1.072,10.48,-1.34,-8.42,0.41,-4.87,-0.48,
1.08,10.48,-1.34,-8.42,0.58,-4.46,-0.14,
1.081,10.48,-1.34,-8.42,0.58,-4.46,-0.14,
1.081,10.05,-1.21,-8.77,0.58,-4.46,-0.14,
1.082,10.05,-1.21,-8.77,0.58,-4.46,-0.14,
1.091,10.05,-1.21,-8.77,0.67,-4.15,0.10,
1.092,10.05,-1.21,-8.77,0.67,-4.15,0.10,
1.093,9.24,-1.22,-8.86,0.67,-4.15,0.10,
1.093,9.24,-1.22,-8.86,0.67,-4.15,0.10,
1.099,9.24,-1.22,-8.86,0.66,-3.91,0.24,
1.1,9.24,-1.22,-8.86,0.66,-3.91,0.24,
1.1,7.36,-1.37,-8.64,0.66,-3.91,0.24,
1.101,7.36,-1.37,-8.64,0.66,-3.91,0.24,
1.11,7.36,-1.37,-8.64,0.63,-3.70,0.33,
1.111,7.36,-1.37,-8.64,0.63,-3.70,0.33,
1.111,6.72,-1.58,-8.19,0.63,-3.70,0.33,
1.112,6.72,-1.58,-8.19,0.63,-3.70,0.33,
1.119,6.72,-1.58,-8.19,0.66,-3.49,0.43,
1.12,6.72,-1.58,-8.19,0.66,-3.49,0.43,
1.12,6.09,-1.83,-7.72,0.66,-3.49,0.43,
1.121,6.09,-1.83,-7.72,0.66,-3.49,0.43,
1.128,6.09,-1.83,-7.72,0.85,-3.26,0.58,
1.128,6.09,-1.83,-7.72,0.85,-3.26,0.58,
1.129,5.55,-2.03,-7.34,0.85,-3.26,0.58,
1.129,5.55,-2.03,-7.34,0.85,-3.26,0.58,
1.137,5.55,-2.03,-7.34,1.23,-3.01,0.77,
1.138,5.55,-2.03,-7.34,1.23,-3.01,0.77,
1.139,4.99,-2.20,-7.09,1.23,-3.01,0.77,
1.139,4.99,-2.20,-7.09,1.23,-3.01,0.77,
1.147,4.99,-2.20,-7.09,1.73,-2.76,0.98,
1.148,4.99,-2.20,-7.09,1.73,-2.76,0.98,
1.148,4.33,-2.30,-6.97,1.73,-2.76,0.98,
1.149,4.33,-2.30,-6.97,1.73,-2.76,0.98,
1.156,4.33,-2.30,-6.97,2.21,-2.53,1.19,
1.157,4.33,-2.30,-6.97,2.21,-2.53,1.19,
1.158,3.62,-2.37,-6.84,2.21,-2.53,1.19,
1.158,3.62,-2.37,-6.84,2.21,-2.53,1.19,
1.167,3.62,-2.37,-6.84,2.59,-2.33,1.38,
1.168,3.62,-2.37,-6.84,2.59,-2.33,1.38,
1.168,2.94,-2.40,-6.62,2.59,-2.33,1.38,
1.169,2.94,-2.40,-6.62,2.59,-2.33,1.38,
1.176,2.94,-2.40,-6.62,2.82,-2.16,1.54,
1.177,2.94,-2.40,-6.62,2.82,-2.16,1.54,
1.178,2.33,-2.39,-6.30,2.82,-2.16,1.54,
1.179,2.33,-2.39,-6.30,2.82,-2.16,1.54,
1.19,2.33,-2.39,-6.30,2.95,-2.04,1.68,
1.191,2.33,-2.39,-6.30,2.95,-2.04,1.68,
1.192,1.88,-2.29,-5.89,2.95,-2.04,1.68,
1.192,1.88,-2.29,-5.89,2.95,-2.04,1.68,
1.194,1.88,-2.29,-5.89,2.95,-2.04,1.68,
1.196,1.88,-2.29,-5.89,2.95,-2.04,1.68,
1.196,1.88,-2.29,-5.89,2.95,-2.04,1.68,
1.197,1.88,-2.29,-5.89,2.95,-2.04,1.68,
1.204,1.88,-2.29,-5.89,3.04,-1.94,1.78,
1.205,1.88,-2.29,-5.89,3.04,-1.94,1.78,
1.205,1.78,-1.95,-5.38,3.04,-1.94,1.78,
1.205,1.78,-1.95,-5.38,3.04,-1.94,1.78,
1.213,1.78,-1.95,-5.38,3.15,-1.87,1.82,
1.214,1.78,-1.95,-5.38,3.15,-1.87,1.82,
1.215,1.72,-1.68,-5.18,3.15,-1.87,1.82,
1.215,1.72,-1.68,-5.18,3.15,-1.87,1.82,
1.223,1.72,-1.68,-5.18,3.30,-1.81,1.79,
1.224,1.72,-1.68,-5.18,3.30,-1.81,1.79,
1.224,1.36,-1.33,-6.70,3.30,-1.81,1.79,
1.225,1.36,-1.33,-6.70,3.30,-1.81,1.79,
1.232,1.36,-1.33,-6.70,3.43,-1.80,1.66,
1.233,1.36,-1.33,-6.70,3.43,-1.80,1.66,
1.234,0.63,-0.82,-8.76,3.43,-1.80,1.66,
1.234,0.63,-0.82,-8.76,3.43,-1.80,1.66,
1.242,0.63,-0.82,-8.76,3.27,-1.90,1.44,
1.243,0.63,-0.82,-8.76,3.27,-1.90,1.44,
1.244,-1.16,-0.50,-8.87,3.27,-1.90,1.44,
1.244,-1.16,-0.50,-8.87,3.27,-1.90,1.44,
1.253,-1.16,-0.50,-8.87,2.51,-2.14,1.19,
1.254,-1.16,-0.50,-8.87,2.51,-2.14,1.19,
1.254,-1.44,-0.56,-8.59,2.51,-2.14,1.19,
1.255,-1.44,-0.56,-8.59,2.51,-2.14,1.19,
1.26,-1.44,-0.56,-8.59,1.12,-2.45,0.99,
1.261,-1.44,-0.56,-8.59,1.12,-2.45,0.99,
1.262,-1.34,-1.01,-6.53,1.12,-2.45,0.99,
1.263,-1.34,-1.01,-6.53,1.12,-2.45,0.99,
1.27,-1.34,-1.01,-6.53,-0.44,-2.69,0.93,
1.271,-1.34,-1.01,-6.53,-0.44,-2.69,0.93,
1.272,-1.02,-2.60,-4.13,-0.44,-2.69,0.93,
1.272,-1.02,-2.60,-4.13,-0.44,-2.69,0.93,
1.279,-1.02,-2.60,-4.13,-1.34,-2.74,0.98,
1.281,-1.02,-2.60,-4.13,-1.34,-2.74,0.98,
1.281,-0.79,-2.90,-3.51,-1.34,-2.74,0.98,
1.282,-0.79,-2.90,-3.51,-1.34,-2.74,0.98,
1.294,-0.79,-2.90,-3.51,-1.00,-2.62,1.01,
1.295,-0.79,-2.90,-3.51,-1.00,-2.62,1.01,
1.296,-0.89,-3.02,-3.17,-1.00,-2.62,1.01,
1.297,-0.89,-3.02,-3.17,-1.00,-2.62,1.01,
1.299,-0.89,-3.02,-3.17,0.30,-2.37,1.03,
1.299,-0.89,-3.02,-3.17,0.30,-2.37,1.03,
1.3,-1.24,-2.96,-2.91,0.30,-2.37,1.03,
1.3,-1.24,-2.96,-2.91,0.30,-2.37,1.03,
1.308,-1.24,-2.96,-2.91,1.71,-2.04,1.09,
1.309,-1.24,-2.96,-2.91,1.71,-2.04,1.09,
1.31,-1.57,-2.79,-2.51,1.71,-2.04,1.09,
1.31,-1.57,-2.79,-2.51,1.71,-2.04,1.09,
1.319,-1.57,-2.79,-2.51,2.69,-1.70,1.19,
1.32,-1.57,-2.79,-2.51,2.69,-1.70,1.19,
1.32,-1.67,-2.67,-2.09,2.69,-1.70,1.19,
1.32,-1.67,-2.67,-2.09,2.69,-1.70,1.19,
1.328,-1.67,-2.67,-2.09,3.21,-1.41,1.26,
1.329,-1.67,-2.67,-2.09,3.21,-1.41,1.26,
1.329,-1.67,-2.63,-1.74,3.21,-1.41,1.26,
1.33,-1.67,-2.63,-1.74,3.21,-1.41,1.26,
1.337,-1.67,-2.63,-1.74,3.46,-1.16,1.29,
1.338,-1.67,-2.63,-1.74,3.46,-1.16,1.29,
1.338,-1.66,-2.66,-1.46,3.46,-1.16,1.29,
1.339,-1.66,-2.66,-1.46,3.46,-1.16,1.29,
1.346,-1.66,-2.66,-1.46,3.55,-0.96,1.26,
1.347,-1.66,-2.66,-1.46,3.55,-0.96,1.26,
1.348,-1.76,-2.70,-1.33,3.55,-0.96,1.26,
1.348,-1.76,-2.70,-1.33,3.55,-0.96,1.26,
1.356,-1.76,-2.70,-1.33,3.54,-0.80,1.21,
1.358,-1.76,-2.70,-1.33,3.54,-0.80,1.21,
1.358,-1.97,-2.59,-1.27,3.54,-0.80,1.21,
1.359,-1.97,-2.59,-1.27,3.54,-0.80,1.21,
1.366,-1.97,-2.59,-1.27,3.41,-0.68,1.15,
1.366,-1.97,-2.59,-1.27,3.41,-0.68,1.15,
1.367,-2.19,-2.39,-1.22,3.41,-0.68,1.15,
1.368,-2.19,-2.39,-1.22,3.41,-0.68,1.15,
1.377,-2.19,-2.39,-1.22,3.18,-0.60,1.09,
1.377,-2.19,-2.39,-1.22,3.18,-0.60,1.09,
1.378,-2.38,-2.18,-1.17,3.18,-0.60,1.09,
1.379,-2.38,-2.18,-1.17,3.18,-0.60,1.09,
1.39,-2.38,-2.18,-1.17,2.87,-0.55,1.03,
1.392,-2.38,-2.18,-1.17,2.87,-0.55,1.03,
1.392,-2.54,-2.14,-1.11,2.87,-0.55,1.03,
1.392,-2.54,-2.14,-1.11,2.87,-0.55,1.03,
1.394,-2.54,-2.14,-1.11,2.87,-0.55,1.03,
1.395,-2.54,-2.14,-1.11,2.87,-0.55,1.03,
1.395,-2.54,-2.14,-1.11,2.87,-0.55,1.03,
1.396,-2.54,-2.14,-1.11,2.87,-0.55,1.03,
1.404,-2.54,-2.14,-1.11,2.52,-0.51,0.98,
1.405,-2.54,-2.14,-1.11,2.52,-0.51,0.98,
1.405,-2.59,-2.71,-0.89,2.52,-0.51,0.98,
1.405,-2.59,-2.71,-0.89,2.52,-0.51,0.98,
1.414,-2.59,-2.71,-0.89,2.15,-0.46,0.94,
1.414,-2.59,-2.71,-0.89,2.15,-0.46,0.94,
1.415,-2.29,-3.16,-0.68,2.15,-0.46,0.94,
1.415,-2.29,-3.16,-0.68,2.15,-0.46,0.94,
1.424,-2.29,-3.16,-0.68,1.77,-0.37,0.97,
1.425,-2.29,-3.16,-0.68,1.77,-0.37,0.97,
1.426,-2.02,-3.54,-0.56,1.77,-0.37,0.97,
1.427,-2.02,-3.54,-0.56,1.77,-0.37,0.97,
1.432,-2.02,-3.54,-0.56,1.37,-0.29,1.08,
1.433,-2.02,-3.54,-0.56,1.37,-0.29,1.08,
1.433,-1.78,-3.81,-0.52,1.37,-0.29,1.08,
1.434,-1.78,-3.81,-0.52,1.37,-0.29,1.08,
1.442,-1.78,-3.81,-0.52,0.99,-0.26,1.25,
1.443,-1.78,-3.81,-0.52,0.99,-0.26,1.25,
1.443,-1.72,-3.85,-0.56,0.99,-0.26,1.25,
1.443,-1.72,-3.85,-0.56,0.99,-0.26,1.25,
1.451,-1.72,-3.85,-0.56,0.66,-0.12,1.42,
1.451,-1.72,-3.85,-0.56,0.66,-0.12,1.42,
1.452,-1.75,-3.75,-0.49,0.66,-0.12,1.42,
1.452,-1.75,-3.75,-0.49,0.66,-0.12,1.42,
1.46,-1.75,-3.75,-0.49,0.39,0.07,1.53,
1.461,-1.75,-3.75,-0.49,0.39,0.07,1.53,
1.462,-1.58,-3.58,-0.19,0.39,0.07,1.53,
1.462,-1.58,-3.58,-0.19,0.39,0.07,1.53,
1.47,-1.58,-3.58,-0.19,0.18,0.21,1.56,
1.471,-1.58,-3.58,-0.19,0.18,0.21,1.56,
1.471,-1.23,-3.46,0.23,0.18,0.21,1.56,
1.471,-1.23,-3.46,0.23,0.18,0.21,1.56,
1.479,-1.23,-3.46,0.23,0.06,0.29,1.52,
1.48,-1.23,-3.46,0.23,0.06,0.29,1.52,
1.481,-1.04,-3.54,0.52,0.06,0.29,1.52,
1.481,-1.04,-3.54,0.52,0.06,0.29,1.52,
1.489,-1.04,-3.54,0.52,0.10,0.33,1.40,
1.49,-1.04,-3.54,0.52,0.10,0.33,1.40,
1.491,-0.93,-3.69,0.68,0.10,0.33,1.40,
1.491,-0.93,-3.69,0.68,0.10,0.33,1.40,
1.498,-0.93,-3.69,0.68,0.25,0.34,1.24,
1.499,-0.93,-3.69,0.68,0.25,0.34,1.24,
1.499,-1.00,-3.87,0.68,0.25,0.34,1.24,
1.5,-1.00,-3.87,0.68,0.25,0.34,1.24,
1.509,-1.00,-3.87,0.68,0.44,0.34,1.10,
1.51,-1.00,-3.87,0.68,0.44,0.34,1.10,
1.51,-1.23,-4.06,0.58,0.44,0.34,1.10,
1.511,-1.23,-4.06,0.58,0.44,0.34,1.10,
1.519,-1.23,-4.06,0.58,0.54,0.37,1.02,
1.52,-1.23,-4.06,0.58,0.54,0.37,1.02,
1.521,-1.27,-4.10,0.48,0.54,0.37,1.02,
1.521,-1.27,-4.10,0.48,0.54,0.37,1.02,
1.528,-1.27,-4.10,0.48,0.50,0.44,1.02,
1.528,-1.27,-4.10,0.48,0.50,0.44,1.02,
1.529,-1.21,-4.00,0.35,0.50,0.44,1.02,
1.529,-1.21,-4.00,0.35,0.50,0.44,1.02,
1.537,-1.21,-4.00,0.35,0.35,0.53,1.06,
1.538,-1.21,-4.00,0.35,0.35,0.53,1.06,
1.538,-1.03,-3.76,0.29,0.35,0.53,1.06,
1.539,-1.03,-3.76,0.29,0.35,0.53,1.06,
1.546,-1.03,-3.76,0.29,0.16,0.59,1.10,
1.547,-1.03,-3.76,0.29,0.16,0.59,1.10,
1.547,-0.82,-3.41,0.27,0.16,0.59,1.10,
1.548,-0.82,-3.41,0.27,0.16,0.59,1.10,
1.556,-0.82,-3.41,0.27,-0.00,0.59,1.09,
1.557,-0.82,-3.41,0.27,-0.00,0.59,1.09,
1.557,-0.80,-3.12,0.35,-0.00,0.59,1.09,
1.558,-0.80,-3.12,0.35,-0.00,0.59,1.09,
1.565,-0.80,-3.12,0.35,-0.10,0.53,1.01,
1.566,-0.80,-3.12,0.35,-0.10,0.53,1.01,
1.566,-0.99,-3.06,0.61,-0.10,0.53,1.01,
1.567,-0.99,-3.06,0.61,-0.10,0.53,1.01,
1.575,-0.99,-3.06,0.61,-0.11,0.43,0.89,
1.576,-0.99,-3.06,0.61,-0.11,0.43,0.89,
1.577,-2.72,-3.26,1.06,-0.11,0.43,0.89,
1.577,-2.72,-3.26,1.06,-0.11,0.43,0.89,
1.593,-2.72,-3.26,1.06,-0.11,0.43,0.89,
1.594,-2.72,-3.26,1.06,-0.11,0.43,0.89,
1.594,-2.72,-3.26,1.06,-0.11,0.43,0.89,
1.595,-2.72,-3.26,1.06,-0.11,0.43,0.89,
1.595,-2.72,-3.26,1.06,-0.06,0.35,0.81,
1.596,-2.72,-3.26,1.06,-0.06,0.35,0.81,
1.596,-16.39,-9.08,3.08,-0.06,0.35,0.81,
1.596,-16.39,-9.08,3.08,-0.06,0.35,0.81,
1.603,-16.39,-9.08,3.08,-0.13,0.33,1.21,
1.604,-16.39,-9.08,3.08,-0.13,0.33,1.21,
1.605,-14.12,-9.05,2.96,-0.13,0.33,1.21,
1.605,-14.12,-9.05,2.96,-0.13,0.33,1.21,
1.612,-14.12,-9.05,2.96,-0.44,1.00,2.70,
1.613,-14.12,-9.05,2.96,-0.44,1.00,2.70,
1.613,-9.45,-7.23,3.25,-0.44,1.00,2.70,
1.614,-9.45,-7.23,3.25,-0.44,1.00,2.70,
1.622,-9.45,-7.23,3.25,-0.64,2.33,5.10,
1.623,-9.45,-7.23,3.25,-0.64,2.33,5.10,
1.624,3.06,-2.02,4.87,-0.64,2.33,5.10,
1.624,3.06,-2.02,4.87,-0.64,2.33,5.10,
1.632,3.06,-2.02,4.87,-0.39,3.09,6.90,
1.633,3.06,-2.02,4.87,-0.39,3.09,6.90,
1.633,9.12,2.46,2.63,-0.39,3.09,6.90,
1.634,9.12,2.46,2.63,-0.39,3.09,6.90,
1.642,9.12,2.46,2.63,0.22,2.66,6.37,
1.643,9.12,2.46,2.63,0.22,2.66,6.37,
1.643,7.70,4.55,2.19,0.22,2.66,6.37,
1.644,7.70,4.55,2.19,0.22,2.66,6.37,
1.652,7.70,4.55,2.19,1.17,0.92,3.52,
1.653,7.70,4.55,2.19,1.17,0.92,3.52,
1.654,5.12,4.50,0.10,1.17,0.92,3.52,
1.654,5.12,4.50,0.10,1.17,0.92,3.52,
1.661,5.12,4.50,0.10,0.54,-1.92,2.28,
1.661,5.12,4.50,0.10,0.54,-1.92,2.28,
1.662,3.24,2.96,-1.84,0.54,-1.92,2.28,
1.662,3.24,2.96,-1.84,0.54,-1.92,2.28,
1.67,3.24,2.96,-1.84,-1.65,-4.97,3.37,
1.671,3.24,2.96,-1.84,-1.65,-4.97,3.37,
1.671,2.85,2.69,-2.00,-1.65,-4.97,3.37,
1.672,2.85,2.69,-2.00,-1.65,-4.97,3.37,
1.692,2.85,2.69,-2.00,-1.10,-7.24,2.71,
1.693,2.85,2.69,-2.00,-1.10,-7.24,2.71,
1.693,1.02,2.19,-1.78,-1.10,-7.24,2.71,
1.694,1.02,2.19,-1.78,-1.10,-7.24,2.71,
1.695,1.02,2.19,-1.78,-1.10,-7.24,2.71,
1.695,1.02,2.19,-1.78,-1.10,-7.24,2.71,
1.696,1.02,2.19,-1.78,-1.10,-7.24,2.71,
1.696,1.02,2.19,-1.78,-1.10,-7.24,2.71,
1.699,1.02,2.19,-1.78,2.31,-8.79,0.32,
1.7,1.02,2.19,-1.78,2.31,-8.79,0.32,
1.7,0.10,1.75,-1.73,2.31,-8.79,0.32,
1.701,0.10,1.75,-1.73,2.31,-8.79,0.32,
1.709,0.10,1.75,-1.73,2.47,-8.48,0.15,
1.71,0.10,1.75,-1.73,2.47,-8.48,0.15,
1.711,-1.30,1.55,-1.31,2.47,-8.48,0.15,
1.711,-1.30,1.55,-1.31,2.47,-8.48,0.15,
1.719,-1.30,1.55,-1.31,2.24,-7.74,0.12,
1.72,-1.30,1.55,-1.31,2.24,-7.74,0.12,
1.72,-1.34,1.47,-0.76,2.24,-7.74,0.12,
1.721,-1.34,1.47,-0.76,2.24,-7.74,0.12,
1.727,-1.34,1.47,-0.76,1.54,-6.71,0.05,
1.728,-1.34,1.47,-0.76,1.54,-6.71,0.05,
1.729,-1.04,1.41,-0.34,1.54,-6.71,0.05,
1.729,-1.04,1.41,-0.34,1.54,-6.71,0.05,
1.737,-1.04,1.41,-0.34,0.60,-5.46,0.15,
1.738,-1.04,1.41,-0.34,0.60,-5.46,0.15,
1.738,-0.65,1.40,-0.03,0.60,-5.46,0.15,
1.739,-0.65,1.40,-0.03,0.60,-5.46,0.15,
1.746,-0.65,1.40,-0.03,-0.36,-4.47,0.23,
1.747,-0.65,1.40,-0.03,-0.36,-4.47,0.23,
1.748,-0.43,1.34,0.36,-0.36,-4.47,0.23,
1.748,-0.43,1.34,0.36,-0.36,-4.47,0.23,
1.755,-0.43,1.34,0.36,-1.06,-3.48,0.26,
1.757,-0.43,1.34,0.36,-1.06,-3.48,0.26,
1.757,-1.90,1.02,0.78,-1.06,-3.48,0.26,
1.758,-1.90,1.02,0.78,-1.06,-3.48,0.26,
1.766,-1.90,1.02,0.78,-1.27,-2.21,0.49,
1.767,-1.90,1.02,0.78,-1.27,-2.21,0.49,
1.767,-3.70,-0.60,1.29,-1.27,-2.21,0.49,
1.768,-3.70,-0.60,1.29,-1.27,-2.21,0.49,
1.775,-3.70,-0.60,1.29,-1.27,-2.21,0.49,
1.776,-3.70,-0.60,1.29,-1.27,-2.21,0.49,
1.776,-3.70,-0.60,1.29,-1.27,-2.21,0.49,
1.777,-3.70,-0.60,1.29,-1.27,-2.21,0.49,
1.79,-3.70,-0.60,1.29,-1.40,-0.93,0.59,
1.791,-3.70,-0.60,1.29,-1.40,-0.93,0.59,
1.791,-7.19,-5.05,0.92,-1.40,-0.93,0.59,
1.792,-7.19,-5.05,0.92,-1.40,-0.93,0.59,
1.794,-7.19,-5.05,0.92,-2.59,-0.09,0.69,
1.794,-7.19,-5.05,0.92,-2.59,-0.09,0.69,
1.795,-7.06,-6.91,0.68,-2.59,-0.09,0.69,
1.795,-7.06,-6.91,0.68,-2.59,-0.09,0.69,
1.803,-7.06,-6.91,0.68,-4.95,1.84,1.92,
1.804,-7.06,-6.91,0.68,-4.95,1.84,1.92,
1.805,-6.39,-7.15,0.62,-4.95,1.84,1.92,
1.805,-6.39,-7.15,0.62,-4.95,1.84,1.92,
1.813,-6.39,-7.15,0.62,-6.91,5.01,4.30,
1.813,-6.39,-7.15,0.62,-6.91,5.01,4.30,
1.814,-4.90,-7.02,0.79,-6.91,5.01,4.30,
1.814,-4.90,-7.02,0.79,-6.91,5.01,4.30,
1.823,-4.90,-7.02,0.79,-7.36,6.88,6.26,
1.825,-4.90,-7.02,0.79,-7.36,6.88,6.26,
1.825,-4.51,-6.56,0.97,-7.36,6.88,6.26,
1.826,-4.51,-6.56,0.97,-7.36,6.88,6.26,
1.832,-4.51,-6.56,0.97,-6.67,7.17,7.15,
1.832,-4.51,-6.56,0.97,-6.67,7.17,7.15,
1.833,-4.25,-6.02,0.99,-6.67,7.17,7.15,
1.833,-4.25,-6.02,0.99,-6.67,7.17,7.15,
1.841,-4.25,-6.02,0.99,-5.60,6.41,7.03,
1.842,-4.25,-6.02,0.99,-5.60,6.41,7.03,
1.843,-3.98,-5.59,0.79,-5.60,6.41,7.03,
1.843,-3.98,-5.59,0.79,-5.60,6.41,7.03,
1.852,-3.98,-5.59,0.79,-4.53,5.31,6.37,
1.853,-3.98,-5.59,0.79,-4.53,5.31,6.37,
1.853,-3.63,-5.42,0.59,-4.53,5.31,6.37,
1.854,-3.63,-5.42,0.59,-4.53,5.31,6.37,
1.86,-3.63,-5.42,0.59,-3.61,4.31,5.53,
1.861,-3.63,-5.42,0.59,-3.61,4.31,5.53,
1.862,-3.25,-5.36,0.46,-3.61,4.31,5.53,
1.863,-3.25,-5.36,0.46,-3.61,4.31,5.53,
1.87,-3.25,-5.36,0.46,-2.85,3.36,4.66,
1.871,-3.25,-5.36,0.46,-2.85,3.36,4.66,
1.872,-2.83,-5.16,0.22,-2.85,3.36,4.66,
1.872,-2.83,-5.16,0.22,-2.85,3.36,4.66,
1.879,-2.83,-5.16,0.22,-2.26,2.47,3.83,
1.88,-2.83,-5.16,0.22,-2.26,2.47,3.83,
1.881,-2.63,-4.75,-0.04,-2.26,2.47,3.83,
1.882,-2.63,-4.75,-0.04,-2.26,2.47,3.83,
1.889,-2.63,-4.75,-0.04,-1.78,1.61,3.05,
1.89,-2.63,-4.75,-0.04,-1.78,1.61,3.05,
1.89,-2.79,-4.19,0.09,-1.78,1.61,3.05,
1.891,-2.79,-4.19,0.09,-1.78,1.61,3.05,
1.899,-2.79,-4.19,0.09,-1.38,0.82,2.36,
1.9,-2.79,-4.19,0.09,-1.38,0.82,2.36,
1.901,-3.15,-2.32,1.62,-1.38,0.82,2.36,
1.902,-3.15,-2.32,1.62,-1.38,0.82,2.36,
1.913,-3.15,-2.32,1.62,-0.99,0.11,1.77,
1.914,-3.15,-2.32,1.62,-0.99,0.11,1.77,
1.914,-3.56,-1.69,2.09,-0.99,0.11,1.77,
1.915,-3.56,-1.69,2.09,-0.99,0.11,1.77,
1.919,-3.56,-1.69,2.09,-0.49,-0.57,1.30,
1.921,-3.56,-1.69,2.09,-0.49,-0.57,1.30,
1.921,-3.63,-1.24,2.13,-0.49,-0.57,1.30,
1.922,-3.63,-1.24,2.13,-0.49,-0.57,1.30,
1.928,-3.63,-1.24,2.13,0.17,-1.23,0.96,
1.928,-3.63,-1.24,2.13,0.17,-1.23,0.96,
1.929,-3.67,-1.03,1.82,0.17,-1.23,0.96,
1.929,-3.67,-1.03,1.82,0.17,-1.23,0.96,
1.937,-3.67,-1.03,1.82,0.88,-1.78,0.74,
1.938,-3.67,-1.03,1.82,0.88,-1.78,0.74,
1.938,-3.66,-1.19,0.18,0.88,-1.78,0.74,
1.939,-3.66,-1.19,0.18,0.88,-1.78,0.74,
1.945,-3.66,-1.19,0.18,1.39,-2.09,0.60,
1.946,-3.66,-1.19,0.18,1.39,-2.09,0.60,
1.947,-3.51,-1.46,-0.20,1.39,-2.09,0.60,
1.947,-3.51,-1.46,-0.20,1.39,-2.09,0.60,
1.955,-3.51,-1.46,-0.20,1.51,-2.14,0.51,
1.956,-3.51,-1.46,-0.20,1.51,-2.14,0.51,
1.956,-3.49,-1.47,-0.06,1.51,-2.14,0.51,
1.957,-3.49,-1.47,-0.06,1.51,-2.14,0.51,
1.965,-3.49,-1.47,-0.06,1.26,-1.97,0.43,
1.965,-3.49,-1.47,-0.06,1.26,-1.97,0.43,
1.966,-3.38,-1.32,0.24,1.26,-1.97,0.43,
1.966,-3.38,-1.32,0.24,1.26,-1.97,0.43,
1.975,-3.38,-1.32,0.24,0.83,-1.71,0.37,
1.975,-3.38,-1.32,0.24,0.83,-1.71,0.37,
1.976,-3.33,-1.28,0.54,0.83,-1.71,0.37,
1.976,-3.33,-1.28,0.54,0.83,-1.71,0.37,
1.99,-3.33,-1.28,0.54,0.83,-1.71,0.37,
1.992,-3.33,-1.28,0.54,0.83,-1.71,0.37,
1.992,-3.33,-1.28,0.54,0.83,-1.71,0.37,
1.993,-3.33,-1.28,0.54,0.83,-1.71,0.37,
1.994,-3.33,-1.28,0.54,0.48,-1.46,0.35,
1.995,-3.33,-1.28,0.54,0.48,-1.46,0.35,
1.996,-3.70,-1.54,0.99,0.48,-1.46,0.35,
1.996,-3.70,-1.54,0.99,0.48,-1.46,0.35,
2.003,-3.70,-1.54,0.99,0.31,-1.28,0.36,
2.004,-3.70,-1.54,0.99,0.31,-1.28,0.36,
2.004,-3.85,-1.59,0.94,0.31,-1.28,0.36,
2.005,-3.85,-1.59,0.94,0.31,-1.28,0.36,
2.012,-3.85,-1.59,0.94,0.31,-1.12,0.43,
2.013,-3.85,-1.59,0.94,0.31,-1.12,0.43,
2.014,-3.88,-1.59,0.89,0.31,-1.12,0.43,
2.014,-3.88,-1.59,0.89,0.31,-1.12,0.43,
2.022,-3.88,-1.59,0.89,0.37,-0.93,0.57,
2.024,-3.88,-1.59,0.89,0.37,-0.93,0.57,
2.024,-3.83,-1.58,0.73,0.37,-0.93,0.57,
2.025,-3.83,-1.58,0.73,0.37,-0.93,0.57,
2.031,-3.83,-1.58,0.73,0.42,-0.68,0.76,
2.032,-3.83,-1.58,0.73,0.42,-0.68,0.76,
2.033,-3.76,-1.55,0.49,0.42,-0.68,0.76,
2.034,-3.76,-1.55,0.49,0.42,-0.68,0.76,
2.041,-3.76,-1.55,0.49,0.40,-0.43,0.92,
2.042,-3.76,-1.55,0.49,0.40,-0.43,0.92,
2.043,-3.71,-1.40,0.27,0.40,-0.43,0.92,
2.043,-3.71,-1.40,0.27,0.40,-0.43,0.92,
2.052,-3.71,-1.40,0.27,0.31,-0.20,1.04,
2.053,-3.71,-1.40,0.27,0.31,-0.20,1.04,
2.054,-3.63,-1.00,0.04,0.31,-0.20,1.04,
2.054,-3.63,-1.00,0.04,0.31,-0.20,1.04,
2.06,-3.63,-1.00,0.04,0.17,-0.00,1.11,
2.061,-3.63,-1.00,0.04,0.17,-0.00,1.11,
2.062,-3.52,0.74,-0.21,0.17,-0.00,1.11,
2.062,-3.52,0.74,-0.21,0.17,-0.00,1.11,
2.07,-3.52,0.74,-0.21,0.00,0.14,1.13,
2.071,-3.52,0.74,-0.21,0.00,0.14,1.13,
2.071,-3.35,4.05,-0.44,0.00,0.14,1.13,
2.072,-3.35,4.05,-0.44,0.00,0.14,1.13,
2.079,-3.35,4.05,-0.44,-0.15,0.19,1.06,
2.08,-3.35,4.05,-0.44,-0.15,0.19,1.06,
2.08,-3.05,7.02,-0.48,-0.15,0.19,1.06,
2.081,-3.05,7.02,-0.48,-0.15,0.19,1.06,
2.089,-3.05,7.02,-0.48,-0.21,0.07,0.85,
2.09,-3.05,7.02,-0.48,-0.21,0.07,0.85,
2.09,-2.72,9.00,-0.18,-0.21,0.07,0.85,
2.091,-2.72,9.00,-0.18,-0.21,0.07,0.85,
2.098,-2.72,9.00,-0.18,-0.13,-0.32,0.44,
2.099,-2.72,9.00,-0.18,-0.13,-0.32,0.44,
2.1,-2.54,11.05,1.42,-0.13,-0.32,0.44,
2.1,-2.54,11.05,1.42,-0.13,-0.32,0.44,
2.108,-2.54,11.05,1.42,0.31,-1.13,-0.22,
2.11,-2.54,11.05,1.42,0.31,-1.13,-0.22,
2.11,-2.60,11.30,1.88,0.31,-1.13,-0.22,
2.111,-2.60,11.30,1.88,0.31,-1.13,-0.22,
2.118,-2.60,11.30,1.88,1.51,-2.48,-1.16,
2.119,-2.60,11.30,1.88,1.51,-2.48,-1.16,
2.119,-2.97,10.96,2.17,1.51,-2.48,-1.16,
2.12,-2.97,10.96,2.17,1.51,-2.48,-1.16,
2.126,-2.97,10.96,2.17,3.92,-3.10,-1.67,
2.127,-2.97,10.96,2.17,3.92,-3.10,-1.67,
2.128,-4.40,7.45,2.25,3.92,-3.10,-1.67,
2.128,-4.40,7.45,2.25,3.92,-3.10,-1.67,
2.136,-4.40,7.45,2.25,7.17,-2.78,-1.56,
2.137,-4.40,7.45,2.25,7.17,-2.78,-1.56,
2.137,-4.58,4.54,2.10,7.17,-2.78,-1.56,
2.138,-4.58,4.54,2.10,7.17,-2.78,-1.56,
2.146,-4.58,4.54,2.10,9.46,-2.66,-1.40,
2.147,-4.58,4.54,2.10,9.46,-2.66,-1.40,
2.147,-4.68,1.86,1.87,9.46,-2.66,-1.40,
2.148,-4.68,1.86,1.87,9.46,-2.66,-1.40,
2.155,-4.68,1.86,1.87,9.09,-1.25,-1.24,
2.156,-4.68,1.86,1.87,9.09,-1.25,-1.24,
2.157,-4.71,-0.41,1.39,9.09,-1.25,-1.24,
2.157,-4.71,-0.41,1.39,9.09,-1.25,-1.24,
2.165,-4.71,-0.41,1.39,6.27,1.28,-0.04,
2.166,-4.71,-0.41,1.39,6.27,1.28,-0.04,
2.167,-4.53,-0.86,-0.85,6.27,1.28,-0.04,
2.167,-4.53,-0.86,-0.85,6.27,1.28,-0.04,
2.175,-4.53,-0.86,-0.85,6.27,1.28,-0.04,
2.176,-4.53,-0.86,-0.85,6.27,1.28,-0.04,
2.176,-4.53,-0.86,-0.85,6.27,1.28,-0.04,
2.177,-4.53,-0.86,-0.85,6.27,1.28,-0.04,
2.183,-4.53,-0.86,-0.85,2.64,3.02,1.72,
2.184,-4.53,-0.86,-0.85,2.64,3.02,1.72,
2.185,-3.66,-1.72,-2.98,2.64,3.02,1.72,
2.185,-3.66,-1.72,-2.98,2.64,3.02,1.72,
2.193,-3.66,-1.72,-2.98,-0.58,3.94,2.53,
2.194,-3.66,-1.72,-2.98,-0.58,3.94,2.53,
2.195,-3.21,-1.85,-2.91,-0.58,3.94,2.53,
2.195,-3.21,-1.85,-2.91,-0.58,3.94,2.53,
2.203,-3.21,-1.85,-2.91,-3.12,4.36,2.58,
2.204,-3.21,-1.85,-2.91,-3.12,4.36,2.58,
2.204,-3.04,-1.91,-1.08,-3.12,4.36,2.58,
2.204,-3.04,-1.91,-1.08,-3.12,4.36,2.58,
2.212,-3.04,-1.91,-1.08,-4.80,4.47,2.24,
2.213,-3.04,-1.91,-1.08,-4.80,4.47,2.24,
2.213,-3.01,-2.02,0.67,-4.80,4.47,2.24,
2.213,-3.01,-2.02,0.67,-4.80,4.47,2.24,
2.222,-3.01,-2.02,0.67,-5.40,4.19,1.81,
2.223,-3.01,-2.02,0.67,-5.40,4.19,1.81,
2.223,-3.22,-2.22,0.82,-5.40,4.19,1.81,
2.224,-3.22,-2.22,0.82,-5.40,4.19,1.81,
2.231,-3.22,-2.22,0.82,-4.98,3.47,1.47,
2.232,-3.22,-2.22,0.82,-4.98,3.47,1.47,
2.233,-3.28,-2.38,1.08,-4.98,3.47,1.47,
2.233,-3.28,-2.38,1.08,-4.98,3.47,1.47,
2.241,-3.28,-2.38,1.08,-3.99,2.53,1.24,
2.242,-3.28,-2.38,1.08,-3.99,2.53,1.24,
2.243,-3.29,-2.34,1.38,-3.99,2.53,1.24,
2.243,-3.29,-2.34,1.38,-3.99,2.53,1.24,
2.252,-3.29,-2.34,1.38,-2.93,1.63,1.13,
2.253,-3.29,-2.34,1.38,-2.93,1.63,1.13,
2.254,-3.42,-1.96,1.59,-2.93,1.63,1.13,
2.254,-3.42,-1.96,1.59,-2.93,1.63,1.13,
2.26,-3.42,-1.96,1.59,-2.02,0.91,1.08,
2.261,-3.42,-1.96,1.59,-2.02,0.91,1.08,
2.261,-3.48,-0.28,1.74,-2.02,0.91,1.08,
2.262,-3.48,-0.28,1.74,-2.02,0.91,1.08,
2.269,-3.48,-0.28,1.74,-1.28,0.34,1.07,
2.271,-3.48,-0.28,1.74,-1.28,0.34,1.07,
2.271,-3.41,1.93,1.65,-1.28,0.34,1.07,
2.271,-3.41,1.93,1.65,-1.28,0.34,1.07,
2.279,-3.41,1.93,1.65,-0.67,-0.10,1.10,
2.28,-3.41,1.93,1.65,-0.67,-0.10,1.10,
2.281,-3.22,1.94,-0.18,-0.67,-0.10,1.10,
2.281,-3.22,1.94,-0.18,-0.67,-0.10,1.10,
2.288,-3.22,1.94,-0.18,-0.19,-0.42,0.92,
2.289,-3.22,1.94,-0.18,-0.19,-0.42,0.92,
2.29,-4.73,-5.75,-0.51,-0.19,-0.42,0.92,
2.291,-4.73,-5.75,-0.51,-0.19,-0.42,0.92,
2.298,-4.73,-5.75,-0.51,0.01,-0.54,0.80,
2.299,-4.73,-5.75,-0.51,0.01,-0.54,0.80,
2.299,-6.10,-13.89,-0.75,0.01,-0.54,0.80,
2.3,-6.10,-13.89,-0.75,0.01,-0.54,0.80,
2.308,-6.10,-13.89,-0.75,-0.19,-0.39,0.94,
2.309,-6.10,-13.89,-0.75,-0.19,-0.39,0.94,
2.309,-4.37,-18.69,-1.14,-0.19,-0.39,0.94,
2.31,-4.37,-18.69,-1.14,-0.19,-0.39,0.94,
2.318,-4.37,-18.69,-1.14,-0.74,-0.07,1.00,
2.319,-4.37,-18.69,-1.14,-0.74,-0.07,1.00,
2.32,-1.67,-18.62,-1.40,-0.74,-0.07,1.00,
2.32,-1.67,-18.62,-1.40,-0.74,-0.07,1.00,
2.327,-1.67,-18.62,-1.40,-1.29,0.07,0.89,
2.327,-1.67,-18.62,-1.40,-1.29,0.07,0.89,
2.328,2.23,-9.47,-1.36,-1.29,0.07,0.89,
2.328,2.23,-9.47,-1.36,-1.29,0.07,0.89,
2.336,2.23,-9.47,-1.36,-1.63,-0.25,0.54,
2.337,2.23,-9.47,-1.36,-1.63,-0.25,0.54,
2.337,4.58,-0.35,-1.02,-1.63,-0.25,0.54,
2.338,4.58,-0.35,-1.02,-1.63,-0.25,0.54,
2.346,4.58,-0.35,-1.02,-1.75,-1.10,-0.05,
2.346,4.58,-0.35,-1.02,-1.75,-1.10,-0.05,
2.347,4.47,4.57,0.72,-1.75,-1.10,-0.05,
2.348,4.47,4.57,0.72,-1.75,-1.10,-0.05,
2.355,4.47,4.57,0.72,-1.62,-2.47,-0.83,
2.357,4.47,4.57,0.72,-1.62,-2.47,-0.83,
2.357,1.15,4.87,2.37,-1.62,-2.47,-0.83,
2.358,1.15,4.87,2.37,-1.62,-2.47,-0.83,
2.365,1.15,4.87,2.37,-1.19,-4.14,-1.66,
2.366,1.15,4.87,2.37,-1.19,-4.14,-1.66,
2.367,-0.51,4.52,2.36,-1.19,-4.14,-1.66,
2.368,-0.51,4.52,2.36,-1.19,-4.14,-1.66,
2.374,-0.51,4.52,2.36,-1.19,-4.14,-1.66,
2.375,-0.51,4.52,2.36,-1.19,-4.14,-1.66,
2.376,-0.51,4.52,2.36,-1.19,-4.14,-1.66,
2.377,-0.51,4.52,2.36,-1.19,-4.14,-1.66,
2.39,-0.51,4.52,2.36,-0.40,-5.55,-2.27,
2.39,-0.51,4.52,2.36,-0.40,-5.55,-2.27,
2.391,-3.33,0.81,1.53,-0.40,-5.55,-2.27,
2.391,-3.33,0.81,1.53,-0.40,-5.55,-2.27,
2.393,-3.33,0.81,1.53,0.53,-5.95,-2.36,
2.394,-3.33,0.81,1.53,0.53,-5.95,-2.36,
2.394,-3.55,0.36,0.85,0.53,-5.95,-2.36,
2.394,-3.55,0.36,0.85,0.53,-5.95,-2.36,
2.403,-3.55,0.36,0.85,1.23,-5.11,-2.20,
2.404,-3.55,0.36,0.85,1.23,-5.11,-2.20,
2.404,-3.20,0.00,0.23,1.23,-5.11,-2.20,
2.404,-3.20,0.00,0.23,1.23,-5.11,-2.20,
2.412,-3.20,0.00,0.23,1.46,-3.50,-2.18,
2.413,-3.20,0.00,0.23,1.46,-3.50,-2.18,
2.413,-2.55,-0.18,-0.27,1.46,-3.50,-2.18,
2.414,-2.55,-0.18,-0.27,1.46,-3.50,-2.18,
2.422,-2.55,-0.18,-0.27,1.32,-1.80,-2.29,
2.423,-2.55,-0.18,-0.27,1.32,-1.80,-2.29,
2.423,-1.88,-0.26,-0.67,1.32,-1.80,-2.29,
2.424,-1.88,-0.26,-0.67,1.32,-1.80,-2.29,
2.431,-1.88,-0.26,-0.67,1.10,-0.48,-2.36,
2.432,-1.88,-0.26,-0.67,1.10,-0.48,-2.36,
2.433,-1.42,-0.32,-0.92,1.10,-0.48,-2.36,
2.433,-1.42,-0.32,-0.92,1.10,-0.48,-2.36,
2.441,-1.42,-0.32,-0.92,0.94,0.35,-2.29,
2.442,-1.42,-0.32,-0.92,0.94,0.35,-2.29,
2.442,-1.17,-0.38,-1.02,0.94,0.35,-2.29,
2.443,-1.17,-0.38,-1.02,0.94,0.35,-2.29,
2.451,-1.17,-0.38,-1.02,0.63,0.78,-1.94,
2.452,-1.17,-0.38,-1.02,0.63,0.78,-1.94,
2.453,-1.08,-0.38,-1.00,0.63,0.78,-1.94,
2.453,-1.08,-0.38,-1.00,0.63,0.78,-1.94,
2.46,-1.08,-0.38,-1.00,0.19,0.95,-1.48,
2.461,-1.08,-0.38,-1.00,0.19,0.95,-1.48,
2.461,-1.13,-0.39,-0.88,0.19,0.95,-1.48,
2.462,-1.13,-0.39,-0.88,0.19,0.95,-1.48,
2.469,-1.13,-0.39,-0.88,-0.14,0.98,-1.17,
2.471,-1.13,-0.39,-0.88,-0.14,0.98,-1.17,
2.471,-1.09,-0.22,-0.65,-0.14,0.98,-1.17,
2.472,-1.09,-0.22,-0.65,-0.14,0.98,-1.17,
2.479,-1.09,-0.22,-0.65,-0.36,0.98,-0.94,
2.48,-1.09,-0.22,-0.65,-0.36,0.98,-0.94,
2.48,-1.04,-0.03,-0.44,-0.36,0.98,-0.94,
2.481,-1.04,-0.03,-0.44,-0.36,0.98,-0.94,
2.489,-1.04,-0.03,-0.44,-0.45,0.97,-0.73,
2.49,-1.04,-0.03,-0.44,-0.45,0.97,-0.73,
2.49,-1.00,0.10,-0.32,-0.45,0.97,-0.73,
2.491,-1.00,0.10,-0.32,-0.45,0.97,-0.73,
2.498,-1.00,0.10,-0.32,-0.43,0.95,-0.54,
2.499,-1.00,0.10,-0.32,-0.43,0.95,-0.54,
2.499,-0.91,0.21,-0.26,-0.43,0.95,-0.54,
2.5,-0.91,0.21,-0.26,-0.43,0.95,-0.54,
2.508,-0.91,0.21,-0.26,-0.35,0.91,-0.38,
2.51,-0.91,0.21,-0.26,-0.35,0.91,-0.38,
2.51,-0.86,0.16,-0.32,-0.35,0.91,-0.38,
2.511,-0.86,0.16,-0.32,-0.35,0.91,-0.38,
2.523,-0.86,0.16,-0.32,-0.24,0.86,-0.25,
2.524,-0.86,0.16,-0.32,-0.24,0.86,-0.25,
2.524,-0.75,0.13,-0.36,-0.24,0.86,-0.25,
2.524,-0.75,0.13,-0.36,-0.24,0.86,-0.25,
2.527,-0.75,0.13,-0.36,-0.14,0.80,-0.14,
2.527,-0.75,0.13,-0.36,-0.14,0.80,-0.14,
2.527,-0.58,0.14,-0.31,-0.14,0.80,-0.14,
2.528,-0.58,0.14,-0.31,-0.14,0.80,-0.14,
2.536,-0.58,0.14,-0.31,-0.07,0.74,-0.07,
2.537,-0.58,0.14,-0.31,-0.07,0.74,-0.07,
2.537,-0.37,0.20,-0.18,-0.07,0.74,-0.07,
2.538,-0.37,0.20,-0.18,-0.07,0.74,-0.07,
2.545,-0.37,0.20,-0.18,-0.02,0.66,-0.03,
2.546,-0.37,0.20,-0.18,-0.02,0.66,-0.03,
2.547,-0.20,0.23,-0.08,-0.02,0.66,-0.03,
2.547,-0.20,0.23,-0.08,-0.02,0.66,-0.03,
2.556,-0.20,0.23,-0.08,0.03,0.56,-0.02,
2.557,-0.20,0.23,-0.08,0.03,0.56,-0.02,
2.557,-0.13,0.19,0.00,0.03,0.56,-0.02,
2.558,-0.13,0.19,0.00,0.03,0.56,-0.02,
2.565,-0.13,0.19,0.00,0.08,0.43,-0.04,
2.566,-0.13,0.19,0.00,0.08,0.43,-0.04,
2.566,-0.13,0.18,0.06,0.08,0.43,-0.04,
2.567,-0.13,0.18,0.06,0.08,0.43,-0.04,
2.575,-0.13,0.18,0.06,0.08,0.43,-0.04,
2.576,-0.13,0.18,0.06,0.08,0.43,-0.04,
2.576,-0.13,0.18,0.06,0.08,0.43,-0.04,
2.577,-0.13,0.18,0.06,0.08,0.43,-0.04,
2.589,-0.13,0.18,0.06,0.13,0.29,-0.07,
2.591,-0.13,0.18,0.06,0.13,0.29,-0.07,
2.591,-0.26,0.15,0.12,0.13,0.29,-0.07,
2.592,-0.26,0.15,0.12,0.13,0.29,-0.07,
2.593,-0.26,0.15,0.12,0.19,0.17,-0.09,
2.594,-0.26,0.15,0.12,0.19,0.17,-0.09,
2.595,-0.24,0.22,0.11,0.19,0.17,-0.09,
2.595,-0.24,0.22,0.11,0.19,0.17,-0.09,
2.603,-0.24,0.22,0.11,0.24,0.09,-0.08,
2.604,-0.24,0.22,0.11,0.24,0.09,-0.08,
2.604,-0.17,0.23,0.20,0.24,0.09,-0.08,
2.605,-0.17,0.23,0.20,0.24,0.09,-0.08,
2.612,-0.17,0.23,0.20,0.27,0.04,-0.05,
2.613,-0.17,0.23,0.20,0.27,0.04,-0.05,
2.613,-0.08,0.20,0.34,0.27,0.04,-0.05,
2.614,-0.08,0.20,0.34,0.27,0.04,-0.05,
2.622,-0.08,0.20,0.34,0.30,-0.01,-0.02,
2.623,-0.08,0.20,0.34,0.30,-0.01,-0.02,
2.623,0.03,0.13,0.45,0.30,-0.01,-0.02,
2.624,0.03,0.13,0.45,0.30,-0.01,-0.02,
2.631,0.03,0.13,0.45,0.33,-0.08,0.00,
2.632,0.03,0.13,0.45,0.33,-0.08,0.00,
2.633,0.08,0.04,0.52,0.33,-0.08,0.00,
2.633,0.08,0.04,0.52,0.33,-0.08,0.00,
2.641,0.08,0.04,0.52,0.37,-0.16,-0.01,
2.642,0.08,0.04,0.52,0.37,-0.16,-0.01,
2.643,0.12,0.05,0.50,0.37,-0.16,-0.01,
2.643,0.12,0.05,0.50,0.37,-0.16,-0.01,
2.652,0.12,0.05,0.50,0.41,-0.26,-0.03,
2.653,0.12,0.05,0.50,0.41,-0.26,-0.03,
2.653,0.03,0.09,0.47,0.41,-0.26,-0.03,
2.654,0.03,0.09,0.47,0.41,-0.26,-0.03,
2.66,0.03,0.09,0.47,0.45,-0.34,-0.05,
2.66,0.03,0.09,0.47,0.45,-0.34,-0.05,
2.661,-0.13,0.18,0.57,0.45,-0.34,-0.05,
2.661,-0.13,0.18,0.57,0.45,-0.34,-0.05,
2.669,-0.13,0.18,0.57,0.46,-0.39,-0.05,
2.67,-0.13,0.18,0.57,0.46,-0.39,-0.05,
2.671,-0.26,0.27,0.76,0.46,-0.39,-0.05,
2.672,-0.26,0.27,0.76,0.46,-0.39,-0.05,
2.692,-0.26,0.27,0.76,0.49,-0.34,0.04,
2.693,-0.26,0.27,0.76,0.49,-0.34,0.04,
2.694,-0.26,0.27,0.76,0.49,-0.34,0.04,
2.694,-0.26,0.27,0.76,0.49,-0.34,0.04,
2.695,-0.38,0.30,0.97,0.49,-0.34,0.04,
2.695,-0.38,0.30,0.97,0.49,-0.34,0.04,
2.696,-0.38,0.30,0.97,0.49,-0.34,0.04,
2.697,-0.38,0.30,0.97,0.49,-0.34,0.04,
2.698,-0.38,0.30,0.97,0.54,-0.25,0.12,
2.698,-0.38,0.30,0.97,0.54,-0.25,0.12,
2.699,-0.40,0.39,1.21,0.54,-0.25,0.12,
2.699,-0.40,0.39,1.21,0.54,-0.25,0.12,
2.707,-0.40,0.39,1.21,0.59,-0.16,0.21,
2.709,-0.40,0.39,1.21,0.59,-0.16,0.21,
2.709,-0.36,0.37,1.27,0.59,-0.16,0.21,
2.71,-0.36,0.37,1.27,0.59,-0.16,0.21,
2.719,-0.36,0.37,1.27,0.65,-0.10,0.28,
2.72,-0.36,0.37,1.27,0.65,-0.10,0.28,
2.721,-0.33,0.33,1.27,0.65,-0.10,0.28,
2.721,-0.33,0.33,1.27,0.65,-0.10,0.28,
2.727,-0.33,0.33,1.27,0.70,-0.07,0.33,
2.727,-0.33,0.33,1.27,0.70,-0.07,0.33,
2.727,-0.36,0.26,1.24,0.70,-0.07,0.33,
2.728,-0.36,0.26,1.24,0.70,-0.07,0.33,
2.735,-0.36,0.26,1.24,0.73,-0.07,0.35,
2.736,-0.36,0.26,1.24,0.73,-0.07,0.35,
2.736,-0.44,0.22,1.18,0.73,-0.07,0.35,
2.737,-0.44,0.22,1.18,0.73,-0.07,0.35,
2.745,-0.44,0.22,1.18,0.73,-0.06,0.35,
2.746,-0.44,0.22,1.18,0.73,-0.06,0.35,
2.746,-0.59,0.21,1.13,0.73,-0.06,0.35,
2.747,-0.59,0.21,1.13,0.73,-0.06,0.35,
2.756,-0.59,0.21,1.13,0.68,-0.04,0.35,
2.757,-0.59,0.21,1.13,0.68,-0.04,0.35,
2.758,-0.75,0.24,1.08,0.68,-0.04,0.35,
2.759,-0.75,0.24,1.08,0.68,-0.04,0.35,
2.764,-0.75,0.24,1.08,0.68,-0.04,0.35,
2.765,-0.75,0.24,1.08,0.68,-0.04,0.35,
2.766,-0.75,0.24,1.08,0.68,-0.04,0.35,
2.767,-0.75,0.24,1.08,0.68,-0.04,0.35,
2.774,-0.75,0.24,1.08,0.62,0.01,0.35,
2.775,-0.75,0.24,1.08,0.62,0.01,0.35,
2.776,-0.95,0.33,1.04,0.62,0.01,0.35,
2.777,-0.95,0.33,1.04,0.62,0.01,0.35,
2.785,-0.95,0.33,1.04,0.54,0.10,0.38,
2.786,-0.95,0.33,1.04,0.54,0.10,0.38,
2.786,-0.96,0.36,0.93,0.54,0.10,0.38,
2.787,-0.96,0.36,0.93,0.54,0.10,0.38,
2.793,-0.96,0.36,0.93,0.47,0.22,0.44,
2.794,-0.96,0.36,0.93,0.47,0.22,0.44,
2.795,-0.88,0.38,0.78,0.47,0.22,0.44,
2.795,-0.88,0.38,0.78,0.47,0.22,0.44,
2.806,-0.88,0.38,0.78,0.41,0.33,0.49,
2.807,-0.88,0.38,0.78,0.41,0.33,0.49,
2.807,-0.72,0.38,0.61,0.41,0.33,0.49,
2.808,-0.72,0.38,0.61,0.41,0.33,0.49,
2.814,-0.72,0.38,0.61,0.33,0.42,0.52,
2.814,-0.72,0.38,0.61,0.33,0.42,0.52,
2.815,-0.52,0.36,0.48,0.33,0.42,0.52,
2.815,-0.52,0.36,0.48,0.33,0.42,0.52,
2.822,-0.52,0.36,0.48,0.23,0.46,0.50,
2.822,-0.52,0.36,0.48,0.23,0.46,0.50,
2.823,-0.35,0.34,0.39,0.23,0.46,0.50,
2.823,-0.35,0.34,0.39,0.23,0.46,0.50,
2.831,-0.35,0.34,0.39,0.11,0.44,0.43,
2.832,-0.35,0.34,0.39,0.11,0.44,0.43,
2.833,-0.25,0.29,0.38,0.11,0.44,0.43,
2.834,-0.25,0.29,0.38,0.11,0.44,0.43,
2.84,-0.25,0.29,0.38,-0.01,0.36,0.32,
2.841,-0.25,0.29,0.38,-0.01,0.36,0.32,
2.841,-0.24,0.24,0.40,-0.01,0.36,0.32,
2.842,-0.24,0.24,0.40,-0.01,0.36,0.32,
2.851,-0.24,0.24,0.40,-0.12,0.24,0.20,
2.852,-0.24,0.24,0.40,-0.12,0.24,0.20,
2.853,-0.31,0.21,0.34,-0.12,0.24,0.20,
2.853,-0.31,0.21,0.34,-0.12,0.24,0.20,
2.859,-0.31,0.21,0.34,-0.20,0.12,0.09,
2.86,-0.31,0.21,0.34,-0.20,0.12,0.09,
2.86,-0.39,0.16,0.23,-0.20,0.12,0.09,
2.861,-0.39,0.16,0.23,-0.20,0.12,0.09,
2.869,-0.39,0.16,0.23,-0.24,0.04,0.00,
2.87,-0.39,0.16,0.23,-0.24,0.04,0.00,
2.87,-0.42,0.12,0.02,-0.24,0.04,0.00,
2.871,-0.42,0.12,0.02,-0.24,0.04,0.00,
2.878,-0.42,0.12,0.02,-0.28,0.01,-0.04,
2.879,-0.42,0.12,0.02,-0.28,0.01,-0.04,
2.88,-0.41,0.08,-0.28,-0.28,0.01,-0.04,
2.88,-0.41,0.08,-0.28,-0.28,0.01,-0.04,
2.888,-0.41,0.08,-0.28,-0.32,0.03,-0.06,
2.889,-0.41,0.08,-0.28,-0.32,0.03,-0.06,
2.889,-0.29,0.04,-0.54,-0.32,0.03,-0.06,
2.89,-0.29,0.04,-0.54,-0.32,0.03,-0.06,
2.897,-0.29,0.04,-0.54,-0.40,0.09,-0.06,
2.898,-0.29,0.04,-0.54,-0.40,0.09,-0.06,
2.899,-0.07,0.01,-0.76,-0.40,0.09,-0.06,
2.9,-0.07,0.01,-0.76,-0.40,0.09,-0.06,
2.908,-0.07,0.01,-0.76,-0.52,0.15,-0.07,
2.909,-0.07,0.01,-0.76,-0.52,0.15,-0.07,
2.91,0.14,-0.00,-0.87,-0.52,0.15,-0.07,
2.911,0.14,-0.00,-0.87,-0.52,0.15,-0.07,
2.918,0.14,-0.00,-0.87,-0.66,0.18,-0.11,
2.919,0.14,-0.00,-0.87,-0.66,0.18,-0.11,
2.919,0.34,-0.04,-0.86,-0.66,0.18,-0.11,
2.919,0.34,-0.04,-0.86,-0.66,0.18,-0.11,
2.926,0.34,-0.04,-0.86,-0.79,0.15,-0.19,
2.927,0.34,-0.04,-0.86,-0.79,0.15,-0.19,
2.927,0.50,-0.05,-0.84,-0.79,0.15,-0.19,
2.928,0.50,-0.05,-0.84,-0.79,0.15,-0.19,
2.939,0.50,-0.05,-0.84,-0.89,0.06,-0.30,
2.94,0.50,-0.05,-0.84,-0.89,0.06,-0.30,
2.941,0.59,-0.07,-0.81,-0.89,0.06,-0.30,
2.941,0.59,-0.07,-0.81,-0.89,0.06,-0.30,
2.958,0.59,-0.07,-0.81,-0.92,-0.21,-0.51,
2.959,0.59,-0.07,-0.81,-0.92,-0.21,-0.51,
2.959,0.59,-0.07,-0.81,-0.92,-0.21,-0.51,
2.959,0.59,-0.07,-0.81,-0.92,-0.21,-0.51,
2.96,0.63,-0.09,-0.76,-0.92,-0.21,-0.51,
2.96,0.63,-0.09,-0.76,-0.92,-0.21,-0.51,
2.961,0.63,-0.09,-0.76,-0.92,-0.21,-0.51,
2.961,0.63,-0.09,-0.76,-0.92,-0.21,-0.51,
2.965,0.63,-0.09,-0.76,-0.86,-0.33,-0.59,
2.965,0.63,-0.09,-0.76,-0.86,-0.33,-0.59,
2.966,0.60,-0.06,-0.62,-0.86,-0.33,-0.59,
2.966,0.60,-0.06,-0.62,-0.86,-0.33,-0.59,
2.973,0.60,-0.06,-0.62,-0.86,-0.33,-0.59,
2.974,0.60,-0.06,-0.62,-0.86,-0.33,-0.59,
2.975,0.60,-0.06,-0.62,-0.86,-0.33,-0.59,
2.975,0.60,-0.06,-0.62,-0.86,-0.33,-0.59,
2.984,0.60,-0.06,-0.62,-0.78,-0.42,-0.63,
2.985,0.60,-0.06,-0.62,-0.78,-0.42,-0.63,
2.986,0.65,-0.01,-0.43,-0.78,-0.42,-0.63,
2.986,0.65,-0.01,-0.43,-0.78,-0.42,-0.63,
2.993,0.65,-0.01,-0.43,-0.66,-0.49,-0.64,
2.993,0.65,-0.01,-0.43,-0.66,-0.49,-0.64,
2.994,0.63,-0.04,-0.35,-0.66,-0.49,-0.64,
2.994,0.63,-0.04,-0.35,-0.66,-0.49,-0.64,
3.002,0.63,-0.04,-0.35,-0.52,-0.55,-0.61,
3.002,0.63,-0.04,-0.35,-0.52,-0.55,-0.61,
3.003,0.49,-0.10,-0.31,-0.52,-0.55,-0.61,
3.003,0.49,-0.10,-0.31,-0.52,-0.55,-0.61,
3.012,0.49,-0.10,-0.31,-0.35,-0.59,-0.56,
3.013,0.49,-0.10,-0.31,-0.35,-0.59,-0.56,
3.013,0.16,-0.17,-0.10,-0.35,-0.59,-0.56,
3.014,0.16,-0.17,-0.10,-0.35,-0.59,-0.56,
3.023,0.16,-0.17,-0.10,-0.19,-0.60,-0.48,
3.024,0.16,-0.17,-0.10,-0.19,-0.60,-0.48,
3.025,-0.19,-0.20,0.17,-0.19,-0.60,-0.48,
3.026,-0.19,-0.20,0.17,-0.19,-0.60,-0.48,
3.031,-0.19,-0.20,0.17,-0.02,-0.53,-0.35,
3.031,-0.19,-0.20,0.17,-0.02,-0.53,-0.35,
3.032,-0.51,-0.15,0.35,-0.02,-0.53,-0.35,
3.032,-0.51,-0.15,0.35,-0.02,-0.53,-0.35,
3.04,-0.51,-0.15,0.35,0.16,-0.38,-0.17,
3.041,-0.51,-0.15,0.35,0.16,-0.38,-0.17,
3.041,-0.63,-0.09,0.30,0.16,-0.38,-0.17,
3.042,-0.63,-0.09,0.30,0.16,-0.38,-0.17,
3.052,-0.63,-0.09,0.30,0.34,-0.17,0.05,
3.053,-0.63,-0.09,0.30,0.34,-0.17,0.05,
3.053,-0.47,0.03,-0.06,0.34,-0.17,0.05,
3.054,-0.47,0.03,-0.06,0.34,-0.17,0.05,
3.059,-0.47,0.03,-0.06,0.50,0.05,0.27,
3.06,-0.47,0.03,-0.06,0.50,0.05,0.27,
3.061,-0.30,0.12,-0.44,0.50,0.05,0.27,
3.061,-0.30,0.12,-0.44,0.50,0.05,0.27,
3.069,-0.30,0.12,-0.44,0.57,0.24,0.43,
3.07,-0.30,0.12,-0.44,0.57,0.24,0.43,
3.071,-0.12,0.17,-0.61,0.57,0.24,0.43,
3.071,-0.12,0.17,-0.61,0.57,0.24,0.43,
3.078,-0.12,0.17,-0.61,0.53,0.37,0.51,
3.079,-0.12,0.17,-0.61,0.53,0.37,0.51,
3.08,-0.09,0.23,-0.47,0.53,0.37,0.51,
3.081,-0.09,0.23,-0.47,0.53,0.37,0.51,
3.088,-0.09,0.23,-0.47,0.41,0.45,0.51,
3.089,-0.09,0.23,-0.47,0.41,0.45,0.51,
3.089,-0.10,0.32,-0.28,0.41,0.45,0.51,
3.09,-0.10,0.32,-0.28,0.41,0.45,0.51,
3.097,-0.10,0.32,-0.28,0.27,0.47,0.46,
3.098,-0.10,0.32,-0.28,0.27,0.47,0.46,
3.098,0.02,0.44,-0.14,0.27,0.47,0.46,
3.099,0.02,0.44,-0.14,0.27,0.47,0.46,
3.107,0.02,0.44,-0.14,0.17,0.43,0.39,
3.109,0.02,0.44,-0.14,0.17,0.43,0.39,
3.109,0.10,0.51,-0.05,0.17,0.43,0.39,
3.11,0.10,0.51,-0.05,0.17,0.43,0.39,
3.118,0.10,0.51,-0.05,0.13,0.34,0.33,
3.118,0.10,0.51,-0.05,0.13,0.34,0.33,
3.119,0.12,0.51,0.11,0.13,0.34,0.33,
3.119,0.12,0.51,0.11,0.13,0.34,0.33,
3.126,0.12,0.51,0.11,0.15,0.23,0.27,
3.126,0.12,0.51,0.11,0.15,0.23,0.27,
3.127,-0.10,0.38,0.49,0.15,0.23,0.27,
3.127,-0.10,0.38,0.49,0.15,0.23,0.27,
3.135,-0.10,0.38,0.49,0.21,0.11,0.21,
3.136,-0.10,0.38,0.49,0.21,0.11,0.21,
3.136,-0.43,0.22,0.85,0.21,0.11,0.21,
3.137,-0.43,0.22,0.85,0.21,0.11,0.21,
3.145,-0.43,0.22,0.85,0.31,0.02,0.18,
3.146,-0.43,0.22,0.85,0.31,0.02,0.18,
3.146,-0.68,0.13,1.09,0.31,0.02,0.18,
3.147,-0.68,0.13,1.09,0.31,0.02,0.18,
3.156,-0.68,0.13,1.09,0.46,-0.01,0.21,
3.157,-0.68,0.13,1.09,0.46,-0.01,0.21,
3.157,-0.81,0.08,1.19,0.46,-0.01,0.21,
3.158,-0.81,0.08,1.19,0.46,-0.01,0.21,
3.164,-0.81,0.08,1.19,0.46,-0.01,0.21,
3.165,-0.81,0.08,1.19,0.46,-0.01,0.21,
3.166,-0.81,0.08,1.19,0.46,-0.01,0.21,
3.167,-0.81,0.08,1.19,0.46,-0.01,0.21,
3.174,-0.81,0.08,1.19,0.64,0.02,0.29,
3.175,-0.81,0.08,1.19,0.64,0.02,0.29,
3.176,-0.75,0.14,0.96,0.64,0.02,0.29,
3.177,-0.75,0.14,0.96,0.64,0.02,0.29,
3.183,-0.75,0.14,0.96,0.81,0.10,0.39,
3.184,-0.75,0.14,0.96,0.81,0.10,0.39,
3.185,-0.65,0.21,0.75,0.81,0.10,0.39,
3.186,-0.65,0.21,0.75,0.81,0.10,0.39,
3.194,-0.65,0.21,0.75,0.89,0.20,0.47,
3.195,-0.65,0.21,0.75,0.89,0.20,0.47,
3.195,-0.51,0.27,0.41,0.89,0.20,0.47,
3.196,-0.51,0.27,0.41,0.89,0.20,0.47,
3.207,-0.51,0.27,0.41,0.88,0.28,0.49,
3.208,-0.51,0.27,0.41,0.88,0.28,0.49,
3.208,-0.23,0.34,0.04,0.88,0.28,0.49,
3.209,-0.23,0.34,0.04,0.88,0.28,0.49,
3.212,-0.23,0.34,0.04,0.77,0.35,0.46,
3.212,-0.23,0.34,0.04,0.77,0.35,0.46,
3.213,0.06,0.38,-0.22,0.77,0.35,0.46,
3.213,0.06,0.38,-0.22,0.77,0.35,0.46,
3.221,0.06,0.38,-0.22,0.56,0.37,0.37,
3.222,0.06,0.38,-0.22,0.56,0.37,0.37,
3.222,0.26,0.33,-0.28,0.56,0.37,0.37,
3.222,0.26,0.33,-0.28,0.56,0.37,0.37,
3.231,0.26,0.33,-0.28,0.29,0.35,0.23,
3.231,0.26,0.33,-0.28,0.29,0.35,0.23,
3.232,0.33,0.29,-0.10,0.29,0.35,0.23,
3.232,0.33,0.29,-0.10,0.29,0.35,0.23,
3.241,0.33,0.29,-0.10,0.03,0.26,0.05,
3.242,0.33,0.29,-0.10,0.03,0.26,0.05,
3.242,0.30,0.25,0.23,0.03,0.26,0.05,
3.243,0.30,0.25,0.23,0.03,0.26,0.05,
3.25,0.30,0.25,0.23,-0.17,0.12,-0.11,
3.251,0.30,0.25,0.23,-0.17,0.12,-0.11,
3.251,0.18,0.16,0.55,-0.17,0.12,-0.11,
3.252,0.18,0.16,0.55,-0.17,0.12,-0.11,
3.259,0.18,0.16,0.55,-0.27,-0.04,-0.24,
3.259,0.18,0.16,0.55,-0.27,-0.04,-0.24,
3.26,0.09,0.13,0.72,-0.27,-0.04,-0.24,
3.26,0.09,0.13,0.72,-0.27,-0.04,-0.24,
3.269,0.09,0.13,0.72,-0.24,-0.19,-0.30,
3.269,0.09,0.13,0.72,-0.24,-0.19,-0.30,
3.27,0.01,0.09,0.70,-0.24,-0.19,-0.30,
3.27,0.01,0.09,0.70,-0.24,-0.19,-0.30,
3.278,0.01,0.09,0.70,-0.14,-0.29,-0.31,
3.279,0.01,0.09,0.70,-0.14,-0.29,-0.31,
3.28,-0.09,0.04,0.51,-0.14,-0.29,-0.31,
3.28,-0.09,0.04,0.51,-0.14,-0.29,-0.31,
3.288,-0.09,0.04,0.51,-0.02,-0.34,-0.28,
3.289,-0.09,0.04,0.51,-0.02,-0.34,-0.28,
3.29,-0.16,-0.03,0.20,-0.02,-0.34,-0.28,
3.29,-0.16,-0.03,0.20,-0.02,-0.34,-0.28,
3.297,-0.16,-0.03,0.20,0.06,-0.33,-0.21,
3.298,-0.16,-0.03,0.20,0.06,-0.33,-0.21,
3.299,-0.21,-0.08,-0.11,0.06,-0.33,-0.21,
3.299,-0.21,-0.08,-0.11,0.06,-0.33,-0.21,
3.31,-0.21,-0.08,-0.11,0.05,-0.25,-0.15,
3.311,-0.21,-0.08,-0.11,0.05,-0.25,-0.15,
3.311,-0.19,-0.11,-0.38,0.05,-0.25,-0.15,
3.311,-0.19,-0.11,-0.38,0.05,-0.25,-0.15,
3.32,-0.19,-0.11,-0.38,-0.04,-0.12,-0.09,
3.321,-0.19,-0.11,-0.38,-0.04,-0.12,-0.09,
3.321,-0.11,-0.11,-0.51,-0.04,-0.12,-0.09,
3.322,-0.11,-0.11,-0.51,-0.04,-0.12,-0.09,
3.326,-0.11,-0.11,-0.51,-0.19,0.04,-0.05,
3.327,-0.11,-0.11,-0.51,-0.19,0.04,-0.05,
3.328,-0.04,-0.02,-0.58,-0.19,0.04,-0.05,
3.328,-0.04,-0.02,-0.58,-0.19,0.04,-0.05,
3.335,-0.04,-0.02,-0.58,-0.36,0.17,-0.02,
3.336,-0.04,-0.02,-0.58,-0.36,0.17,-0.02,
3.336,-0.03,0.05,-0.59,-0.36,0.17,-0.02,
3.336,-0.03,0.05,-0.59,-0.36,0.17,-0.02,
3.345,-0.03,0.05,-0.59,-0.52,0.27,-0.02,
3.346,-0.03,0.05,-0.59,-0.52,0.27,-0.02,
3.346,-0.07,0.13,-0.53,-0.52,0.27,-0.02,
3.346,-0.07,0.13,-0.53,-0.52,0.27,-0.02,
3.355,-0.07,0.13,-0.53,-0.62,0.33,-0.03,
3.356,-0.07,0.13,-0.53,-0.62,0.33,-0.03,
3.357,-0.13,0.16,-0.50,-0.62,0.33,-0.03,
3.357,-0.13,0.16,-0.50,-0.62,0.33,-0.03,
3.364,-0.13,0.16,-0.50,-0.62,0.33,-0.03,
3.365,-0.13,0.16,-0.50,-0.62,0.33,-0.03,
3.365,-0.13,0.16,-0.50,-0.62,0.33,-0.03,
3.366,-0.13,0.16,-0.50,-0.62,0.33,-0.03,
3.373,-0.13,0.16,-0.50,-0.66,0.37,-0.04,
3.375,-0.13,0.16,-0.50,-0.66,0.37,-0.04,
3.375,-0.09,0.13,-0.40,-0.66,0.37,-0.04,
3.376,-0.09,0.13,-0.40,-0.66,0.37,-0.04,
3.385,-0.09,0.13,-0.40,-0.65,0.38,-0.03,
3.386,-0.09,0.13,-0.40,-0.65,0.38,-0.03,
3.387,0.02,0.10,-0.43,-0.65,0.38,-0.03,
3.387,0.02,0.10,-0.43,-0.65,0.38,-0.03,
3.392,0.02,0.10,-0.43,-0.61,0.37,-0.02,
3.393,0.02,0.10,-0.43,-0.61,0.37,-0.02,
3.393,0.17,0.09,-0.49,-0.61,0.37,-0.02,
3.394,0.17,0.09,-0.49,-0.61,0.37,-0.02,
3.402,0.17,0.09,-0.49,-0.55,0.33,-0.02,
3.403,0.17,0.09,-0.49,-0.55,0.33,-0.02,
3.403,0.32,0.05,-0.55,-0.55,0.33,-0.02,
3.404,0.32,0.05,-0.55,-0.55,0.33,-0.02,
3.411,0.32,0.05,-0.55,-0.49,0.24,-0.05,
3.412,0.32,0.05,-0.55,-0.49,0.24,-0.05,
3.413,0.44,0.04,-0.63,-0.49,0.24,-0.05,
3.414,0.44,0.04,-0.63,-0.49,0.24,-0.05,
3.423,0.44,0.04,-0.63,-0.46,0.11,-0.10,
3.424,0.44,0.04,-0.63,-0.46,0.11,-0.10,
3.424,0.53,0.02,-0.65,-0.46,0.11,-0.10,
3.425,0.53,0.02,-0.65,-0.46,0.11,-0.10,
3.43,0.53,0.02,-0.65,-0.44,-0.03,-0.18,
3.431,0.53,0.02,-0.65,-0.44,-0.03,-0.18,
3.431,0.58,-0.02,-0.62,-0.44,-0.03,-0.18,
3.432,0.58,-0.02,-0.62,-0.44,-0.03,-0.18,
3.44,0.58,-0.02,-0.62,-0.43,-0.16,-0.26,
3.441,0.58,-0.02,-0.62,-0.43,-0.16,-0.26,
3.442,0.56,-0.04,-0.60,-0.43,-0.16,-0.26,
3.442,0.56,-0.04,-0.60,-0.43,-0.16,-0.26,
3.45,0.56,-0.04,-0.60,-0.43,-0.28,-0.32,
3.451,0.56,-0.04,-0.60,-0.43,-0.28,-0.32,
3.451,0.52,-0.05,-0.55,-0.43,-0.28,-0.32,
3.452,0.52,-0.05,-0.55,-0.43,-0.28,-0.32,
3.459,0.52,-0.05,-0.55,-0.40,-0.37,-0.37,
3.46,0.52,-0.05,-0.55,-0.40,-0.37,-0.37,
3.461,0.47,-0.02,-0.55,-0.40,-0.37,-0.37,
3.461,0.47,-0.02,-0.55,-0.40,-0.37,-0.37,
3.468,0.47,-0.02,-0.55,-0.37,-0.43,-0.38,
3.469,0.47,-0.02,-0.55,-0.37,-0.43,-0.38,
3.469,0.43,0.04,-0.56,-0.37,-0.43,-0.38,
3.47,0.43,0.04,-0.56,-0.37,-0.43,-0.38,
3.478,0.43,0.04,-0.56,-0.32,-0.44,-0.37,
3.479,0.43,0.04,-0.56,-0.32,-0.44,-0.37,
3.48,0.42,0.08,-0.54,-0.32,-0.44,-0.37,
3.48,0.42,0.08,-0.54,-0.32,-0.44,-0.37,
3.487,0.42,0.08,-0.54,-0.27,-0.41,-0.33,
3.488,0.42,0.08,-0.54,-0.27,-0.41,-0.33,
3.489,0.41,0.11,-0.48,-0.27,-0.41,-0.33,
3.49,0.41,0.11,-0.48,-0.27,-0.41,-0.33,
3.497,0.41,0.11,-0.48,-0.23,-0.34,-0.28,
3.498,0.41,0.11,-0.48,-0.23,-0.34,-0.28,
3.498,0.38,0.12,-0.39,-0.23,-0.34,-0.28,
3.499,0.38,0.12,-0.39,-0.23,-0.34,-0.28,
3.506,0.38,0.12,-0.39,-0.19,-0.28,-0.23,
3.507,0.38,0.12,-0.39,-0.19,-0.28,-0.23,
3.508,0.31,0.10,-0.28,-0.19,-0.28,-0.23,
3.508,0.31,0.10,-0.28,-0.19,-0.28,-0.23,
3.517,0.31,0.10,-0.28,-0.14,-0.23,-0.19,
3.518,0.31,0.10,-0.28,-0.14,-0.23,-0.19,
3.518,0.20,0.10,-0.17,-0.14,-0.23,-0.19,
3.518,0.20,0.10,-0.17,-0.14,-0.23,-0.19,
3.525,0.20,0.10,-0.17,-0.07,-0.19,-0.14,
3.526,0.20,0.10,-0.17,-0.07,-0.19,-0.14,
3.527,0.09,0.10,-0.12,-0.07,-0.19,-0.14,
3.527,0.09,0.10,-0.12,-0.07,-0.19,-0.14,
3.535,0.09,0.10,-0.12,0.00,-0.15,-0.08,
3.536,0.09,0.10,-0.12,0.00,-0.15,-0.08,
3.536,-0.00,0.08,-0.12,0.00,-0.15,-0.08,
3.537,-0.00,0.08,-0.12,0.00,-0.15,-0.08,
3.545,-0.00,0.08,-0.12,0.08,-0.09,-0.01,
3.546,-0.00,0.08,-0.12,0.08,-0.09,-0.01,
3.546,-0.04,0.10,-0.15,0.08,-0.09,-0.01,
3.547,-0.04,0.10,-0.15,0.08,-0.09,-0.01,
3.554,-0.04,0.10,-0.15,0.08,-0.09,-0.01,
3.556,-0.04,0.10,-0.15,0.08,-0.09,-0.01,
3.557,-0.04,0.10,-0.15,0.08,-0.09,-0.01,
3.557,-0.04,0.10,-0.15,0.08,-0.09,-0.01,
3.563,-0.04,0.10,-0.15,0.14,-0.01,0.06,
3.564,-0.04,0.10,-0.15,0.14,-0.01,0.06,
3.565,0.06,0.13,-0.22,0.14,-0.01,0.06,
3.566,0.06,0.13,-0.22,0.14,-0.01,0.06,
3.573,0.06,0.13,-0.22,0.18,0.08,0.13,
3.575,0.06,0.13,-0.22,0.18,0.08,0.13,
3.575,0.15,0.16,-0.18,0.18,0.08,0.13,
3.576,0.15,0.16,-0.18,0.18,0.08,0.13,
3.583,0.15,0.16,-0.18,0.18,0.15,0.16,
3.584,0.15,0.16,-0.18,0.18,0.15,0.16,
3.585,0.18,0.18,-0.12,0.18,0.15,0.16,
3.586,0.18,0.18,-0.12,0.18,0.15,0.16,
3.592,0.18,0.18,-0.12,0.17,0.18,0.17,
3.594,0.18,0.18,-0.12,0.17,0.18,0.17,
3.595,0.17,0.20,-0.06,0.17,0.18,0.17,
3.596,0.17,0.20,-0.06,0.17,0.18,0.17,
3.602,0.17,0.20,-0.06,0.15,0.17,0.15,
3.603,0.17,0.20,-0.06,0.15,0.17,0.15,
3.604,0.13,0.21,-0.03,0.15,0.17,0.15,
3.604,0.13,0.21,-0.03,0.15,0.17,0.15,
3.611,0.13,0.21,-0.03,0.13,0.13,0.12,
3.612,0.13,0.21,-0.03,0.13,0.13,0.12,
3.613,0.05,0.22,-0.04,0.13,0.13,0.12,
3.613,0.05,0.22,-0.04,0.13,0.13,0.12,
3.621,0.05,0.22,-0.04,0.13,0.10,0.09,
3.622,0.05,0.22,-0.04,0.13,0.10,0.09,
3.623,-0.00,0.22,-0.04,0.13,0.10,0.09,
3.624,-0.00,0.22,-0.04,0.13,0.10,0.09,
3.63,-0.00,0.22,-0.04,0.12,0.10,0.08,
3.631,-0.00,0.22,-0.04,0.12,0.10,0.08,
3.631,-0.02,0.21,-0.04,0.12,0.10,0.08,
3.631,-0.02,0.21,-0.04,0.12,0.10,0.08,
3.639,-0.02,0.21,-0.04,0.11,0.13,0.09,
3.64,-0.02,0.21,-0.04,0.11,0.13,0.09,
3.641,-0.01,0.19,-0.04,0.11,0.13,0.09,
3.641,-0.01,0.19,-0.04,0.11,0.13,0.09,
3.65,-0.01,0.19,-0.04,0.10,0.16,0.10,
3.651,-0.01,0.19,-0.04,0.10,0.16,0.10,
3.652,0.03,0.17,-0.03,0.10,0.16,0.10,
3.652,0.03,0.17,-0.03,0.10,0.16,0.10,
3.658,0.03,0.17,-0.03,0.08,0.18,0.10,
3.659,0.03,0.17,-0.03,0.08,0.18,0.10,
3.66,0.08,0.15,-0.03,0.08,0.18,0.10,
3.66,0.08,0.15,-0.03,0.08,0.18,0.10,
3.668,0.08,0.15,-0.03,0.05,0.18,0.10,
3.669,0.08,0.15,-0.03,0.05,0.18,0.10,
3.67,0.12,0.13,-0.06,0.05,0.18,0.10,
3.67,0.12,0.13,-0.06,0.05,0.18,0.10,
3.69,0.12,0.13,-0.06,0.03,0.16,0.08,
3.691,0.12,0.13,-0.06,0.03,0.16,0.08,
3.692,0.15,0.12,-0.11,0.03,0.16,0.08,
3.692,0.15,0.12,-0.11,0.03,0.16,0.08,
3.693,0.15,0.12,-0.11,0.03,0.16,0.08,
3.693,0.15,0.12,-0.11,0.03,0.16,0.08,
3.694,0.15,0.12,-0.11,0.03,0.16,0.08,
3.694,0.15,0.12,-0.11,0.03,0.16,0.08,
3.696,0.15,0.12,-0.11,-0.03,0.07,0.01,
3.697,0.15,0.12,-0.11,-0.03,0.07,0.01,
3.698,0.22,0.11,-0.13,-0.03,0.07,0.01,
3.698,0.22,0.11,-0.13,-0.03,0.07,0.01,
3.706,0.22,0.11,-0.13,-0.07,0.03,-0.04,
3.707,0.22,0.11,-0.13,-0.07,0.03,-0.04,
3.708,0.23,0.12,-0.08,-0.07,0.03,-0.04,
3.709,0.23,0.12,-0.08,-0.07,0.03,-0.04,
3.717,0.23,0.12,-0.08,-0.11,-0.01,-0.08,
3.717,0.23,0.12,-0.08,-0.11,-0.01,-0.08,
3.718,0.27,0.15,-0.04,-0.11,-0.01,-0.08,
3.718,0.27,0.15,-0.04,-0.11,-0.01,-0.08,
3.725,0.27,0.15,-0.04,-0.13,-0.06,-0.12,
3.726,0.27,0.15,-0.04,-0.13,-0.06,-0.12,
3.727,0.26,0.19,-0.01,-0.13,-0.06,-0.12,
3.727,0.26,0.19,-0.01,-0.13,-0.06,-0.12,
3.735,0.26,0.19,-0.01,-0.14,-0.11,-0.14,
3.736,0.26,0.19,-0.01,-0.14,-0.11,-0.14,
3.736,0.24,0.19,-0.01,-0.14,-0.11,-0.14,
3.737,0.24,0.19,-0.01,-0.14,-0.11,-0.14,
3.745,0.24,0.19,-0.01,-0.13,-0.15,-0.16,
3.746,0.24,0.19,-0.01,-0.13,-0.15,-0.16,
3.746,0.22,0.19,-0.01,-0.13,-0.15,-0.16,
3.747,0.22,0.19,-0.01,-0.13,-0.15,-0.16,
3.754,0.22,0.19,-0.01,-0.13,-0.15,-0.16,
3.755,0.22,0.19,-0.01,-0.13,-0.15,-0.16,
3.756,0.22,0.19,-0.01,-0.13,-0.15,-0.16,
3.756,0.22,0.19,-0.01,-0.13,-0.15,-0.16,
3.763,0.22,0.19,-0.01,-0.11,-0.19,-0.16,
3.764,0.22,0.19,-0.01,-0.11,-0.19,-0.16,
3.765,0.12,0.15,-0.03,-0.11,-0.19,-0.16,
3.765,0.12,0.15,-0.03,-0.11,-0.19,-0.16,
3.773,0.12,0.15,-0.03,-0.09,-0.21,-0.16,
3.775,0.12,0.15,-0.03,-0.09,-0.21,-0.16,
3.775,0.06,0.16,-0.03,-0.09,-0.21,-0.16,
3.776,0.06,0.16,-0.03,-0.09,-0.21,-0.16,
3.784,0.06,0.16,-0.03,-0.08,-0.21,-0.13,
3.785,0.06,0.16,-0.03,-0.08,-0.21,-0.13,
3.786,0.01,0.17,-0.05,-0.08,-0.21,-0.13,
3.787,0.01,0.17,-0.05,-0.08,-0.21,-0.13,
3.792,0.01,0.17,-0.05,-0.07,-0.19,-0.10,
3.793,0.01,0.17,-0.05,-0.07,-0.19,-0.10,
3.793,-0.01,0.17,-0.04,-0.07,-0.19,-0.10,
3.794,-0.01,0.17,-0.04,-0.07,-0.19,-0.10,
3.801,-0.01,0.17,-0.04,-0.06,-0.14,-0.05,
3.802,-0.01,0.17,-0.04,-0.06,-0.14,-0.05,
3.803,-0.06,0.18,0.02,-0.06,-0.14,-0.05,
3.803,-0.06,0.18,0.02,-0.06,-0.14,-0.05,
3.811,-0.06,0.18,0.02,-0.05,-0.08,-0.01,
3.812,-0.06,0.18,0.02,-0.05,-0.08,-0.01,
3.812,-0.12,0.18,0.04,-0.05,-0.08,-0.01,
3.813,-0.12,0.18,0.04,-0.05,-0.08,-0.01,
3.82,-0.12,0.18,0.04,-0.03,-0.01,0.04,
3.821,-0.12,0.18,0.04,-0.03,-0.01,0.04,
3.822,-0.19,0.19,0.05,-0.03,-0.01,0.04,
3.822,-0.19,0.19,0.05,-0.03,-0.01,0.04,
3.83,-0.19,0.19,0.05,0.00,0.06,0.08,
3.83,-0.19,0.19,0.05,0.00,0.06,0.08,
3.831,-0.24,0.23,0.08,0.00,0.06,0.08,
3.831,-0.24,0.23,0.08,0.00,0.06,0.08,
3.84,-0.24,0.23,0.08,0.03,0.12,0.12,
3.84,-0.24,0.23,0.08,0.03,0.12,0.12,
3.841,-0.25,0.25,0.09,0.03,0.12,0.12,
3.841,-0.25,0.25,0.09,0.03,0.12,0.12,
3.85,-0.25,0.25,0.09,0.06,0.18,0.16,
3.851,-0.25,0.25,0.09,0.06,0.18,0.16,
3.851,-0.24,0.26,0.13,0.06,0.18,0.16,
3.852,-0.24,0.26,0.13,0.06,0.18,0.16,
3.859,-0.24,0.26,0.13,0.10,0.22,0.20,
3.859,-0.24,0.26,0.13,0.10,0.22,0.20,
3.86,-0.24,0.26,0.21,0.10,0.22,0.20,
3.861,-0.24,0.26,0.21,0.10,0.22,0.20,
3.868,-0.24,0.26,0.21,0.13,0.24,0.22,
3.869,-0.24,0.26,0.21,0.13,0.24,0.22,
3.87,-0.25,0.23,0.24,0.13,0.24,0.22,
3.87,-0.25,0.23,0.24,0.13,0.24,0.22,
3.878,-0.25,0.23,0.24,0.16,0.23,0.24,
3.879,-0.25,0.23,0.24,0.16,0.23,0.24,
3.88,-0.30,0.19,0.21,0.16,0.23,0.24,
3.88,-0.30,0.19,0.21,0.16,0.23,0.24,
3.887,-0.30,0.19,0.21,0.19,0.21,0.24,
3.888,-0.30,0.19,0.21,0.19,0.21,0.24,
3.889,-0.32,0.17,0.14,0.19,0.21,0.24,
3.889,-0.32,0.17,0.14,0.19,0.21,0.24,
3.897,-0.32,0.17,0.14,0.21,0.20,0.24,
3.898,-0.32,0.17,0.14,0.21,0.20,0.24,
3.898,-0.32,0.15,0.04,0.21,0.20,0.24,
3.899,-0.32,0.15,0.04,0.21,0.20,0.24,
3.907,-0.32,0.15,0.04,0.21,0.19,0.23,
3.908,-0.32,0.15,0.04,0.21,0.19,0.23,
3.909,-0.27,0.13,-0.05,0.21,0.19,0.23,
3.909,-0.27,0.13,-0.05,0.21,0.19,0.23,
3.916,-0.27,0.13,-0.05,0.18,0.19,0.22,
3.917,-0.27,0.13,-0.05,0.18,0.19,0.22,
3.918,-0.22,0.12,-0.09,0.18,0.19,0.22,
3.918,-0.22,0.12,-0.09,0.18,0.19,0.22,
3.925,-0.22,0.12,-0.09,0.13,0.19,0.21,
3.926,-0.22,0.12,-0.09,0.13,0.19,0.21,
3.926,-0.16,0.11,-0.05,0.13,0.19,0.21,
3.927,-0.16,0.11,-0.05,0.13,0.19,0.21,
3.935,-0.16,0.11,-0.05,0.07,0.18,0.18,
3.936,-0.16,0.11,-0.05,0.07,0.18,0.18,
3.936,-0.11,0.09,-0.03,0.07,0.18,0.18,
3.936,-0.11,0.09,-0.03,0.07,0.18,0.18,
3.945,-0.11,0.09,-0.03,0.07,0.18,0.18,
3.945,-0.11,0.09,-0.03,0.07,0.18,0.18,
3.946,-0.11,0.09,-0.03,0.07,0.18,0.18,
3.946,-0.11,0.09,-0.03,0.07,0.18,0.18,
3.954,-0.11,0.09,-0.03,0.01,0.16,0.13,
3.955,-0.11,0.09,-0.03,0.01,0.16,0.13,
3.956,-0.04,0.05,-0.01,0.01,0.16,0.13,
3.956,-0.04,0.05,-0.01,0.01,0.16,0.13,
3.963,-0.04,0.05,-0.01,-0.02,0.13,0.08,
3.964,-0.04,0.05,-0.01,-0.02,0.13,0.08,
3.965,-0.04,0.04,-0.07,-0.02,0.13,0.08,
3.965,-0.04,0.04,-0.07,-0.02,0.13,0.08,
3.973,-0.04,0.04,-0.07,-0.05,0.07,0.03,
3.974,-0.04,0.04,-0.07,-0.05,0.07,0.03,
3.975,-0.05,0.04,-0.11,-0.05,0.07,0.03,
3.976,-0.05,0.04,-0.11,-0.05,0.07,0.03,
3.983,-0.05,0.04,-0.11,-0.07,-0.00,-0.01,
3.984,-0.05,0.04,-0.11,-0.07,-0.00,-0.01,
3.985,-0.09,0.08,-0.17,-0.07,-0.00,-0.01,
3.985,-0.09,0.08,-0.17,-0.07,-0.00,-0.01,
3.992,-0.09,0.08,-0.17,-0.10,-0.06,-0.05,
3.993,-0.09,0.08,-0.17,-0.10,-0.06,-0.05,
3.993,-0.14,0.11,-0.21,-0.10,-0.06,-0.05,
3.994,-0.14,0.11,-0.21,-0.10,-0.06,-0.05,
4.001,-0.14,0.11,-0.21,-0.13,-0.09,-0.06,
4.002,-0.14,0.11,-0.21,-0.13,-0.09,-0.06,
4.003,-0.14,0.12,-0.24,-0.13,-0.09,-0.06,
4.004,-0.14,0.12,-0.24,-0.13,-0.09,-0.06,
4.011,-0.14,0.12,-0.24,-0.15,-0.07,-0.06,
4.012,-0.14,0.12,-0.24,-0.15,-0.07,-0.06,
4.012,-0.07,0.10,-0.25,-0.15,-0.07,-0.06,
4.013,-0.07,0.10,-0.25,-0.15,-0.07,-0.06,
4.022,-0.07,0.10,-0.25,-0.18,-0.04,-0.05,
4.023,-0.07,0.10,-0.25,-0.18,-0.04,-0.05,
4.024,0.01,0.07,-0.25,-0.18,-0.04,-0.05,
4.024,0.01,0.07,-0.25,-0.18,-0.04,-0.05,
4.03,0.01,0.07,-0.25,-0.20,-0.02,-0.04,
4.031,0.01,0.07,-0.25,-0.20,-0.02,-0.04,
4.031,0.11,0.03,-0.23,-0.20,-0.02,-0.04,
4.031,0.11,0.03,-0.23,-0.20,-0.02,-0.04,
4.039,0.11,0.03,-0.23,-0.21,-0.03,-0.05,
4.04,0.11,0.03,-0.23,-0.21,-0.03,-0.05,
4.041,0.17,0.01,-0.22,-0.21,-0.03,-0.05,
4.041,0.17,0.01,-0.22,-0.21,-0.03,-0.05,
4.05,0.17,0.01,-0.22,-0.22,-0.08,-0.07,
4.051,0.17,0.01,-0.22,-0.22,-0.08,-0.07,
4.051,0.19,0.03,-0.27,-0.22,-0.08,-0.07,
4.052,0.19,0.03,-0.27,-0.22,-0.08,-0.07,
4.059,0.19,0.03,-0.27,-0.22,-0.14,-0.11,
4.059,0.19,0.03,-0.27,-0.22,-0.14,-0.11,
4.06,0.18,0.05,-0.32,-0.22,-0.14,-0.11,
4.06,0.18,0.05,-0.32,-0.22,-0.14,-0.11,
4.068,0.18,0.05,-0.32,-0.22,-0.19,-0.14,
4.069,0.18,0.05,-0.32,-0.22,-0.19,-0.14,
4.069,0.13,0.07,-0.32,-0.22,-0.19,-0.14,
4.07,0.13,0.07,-0.32,-0.22,-0.19,-0.14,
4.077,0.13,0.07,-0.32,-0.22,-0.20,-0.17,
4.079,0.13,0.07,-0.32,-0.22,-0.20,-0.17,
4.079,0.07,0.09,-0.32,-0.22,-0.20,-0.17,
4.08,0.07,0.09,-0.32,-0.22,-0.20,-0.17,
4.087,0.07,0.09,-0.32,-0.22,-0.18,-0.18,
4.088,0.07,0.09,-0.32,-0.22,-0.18,-0.18,
4.089,0.02,0.10,-0.31,-0.22,-0.18,-0.18,
4.09,0.02,0.10,-0.31,-0.22,-0.18,-0.18,
4.096,0.02,0.10,-0.31,-0.21,-0.14,-0.16,
4.097,0.02,0.10,-0.31,-0.21,-0.14,-0.16,
4.098,0.01,0.11,-0.29,-0.21,-0.14,-0.16,
4.099,0.01,0.11,-0.29,-0.21,-0.14,-0.16,
4.107,0.01,0.11,-0.29,-0.20,-0.10,-0.13,
4.108,0.01,0.11,-0.29,-0.20,-0.10,-0.13,
4.109,0.02,0.13,-0.31,-0.20,-0.10,-0.13,
4.109,0.02,0.13,-0.31,-0.20,-0.10,-0.13,
4.116,0.02,0.13,-0.31,-0.19,-0.06,-0.09,
4.117,0.02,0.13,-0.31,-0.19,-0.06,-0.09,
4.117,0.06,0.14,-0.32,-0.19,-0.06,-0.09,
4.117,0.06,0.14,-0.32,-0.19,-0.06,-0.09,
4.125,0.06,0.14,-0.32,-0.17,-0.04,-0.05,
4.125,0.06,0.14,-0.32,-0.17,-0.04,-0.05,
4.126,0.12,0.15,-0.29,-0.17,-0.04,-0.05,
4.126,0.12,0.15,-0.29,-0.17,-0.04,-0.05,
4.134,0.12,0.15,-0.29,-0.17,-0.04,-0.05,
4.136,0.12,0.15,-0.29,-0.17,-0.04,-0.05,
4.136,0.12,0.15,-0.29,-0.17,-0.04,-0.05,
4.137,0.12,0.15,-0.29,-0.17,-0.04,-0.05,
4.144,0.12,0.15,-0.29,-0.15,-0.05,-0.02,
4.145,0.12,0.15,-0.29,-0.15,-0.05,-0.02,
4.146,0.24,0.20,-0.30,-0.15,-0.05,-0.02,
4.147,0.24,0.20,-0.30,-0.15,-0.05,-0.02,
4.154,0.24,0.20,-0.30,-0.14,-0.08,-0.01,
4.155,0.24,0.20,-0.30,-0.14,-0.08,-0.01,
4.156,0.29,0.20,-0.26,-0.14,-0.08,-0.01,
4.156,0.29,0.20,-0.26,-0.14,-0.08,-0.01,
4.163,0.29,0.20,-0.26,-0.13,-0.13,-0.02,
4.164,0.29,0.20,-0.26,-0.13,-0.13,-0.02,
4.165,0.29,0.19,-0.22,-0.13,-0.13,-0.02,
4.165,0.29,0.19,-0.22,-0.13,-0.13,-0.02,
4.172,0.29,0.19,-0.22,-0.12,-0.20,-0.05,
4.174,0.29,0.19,-0.22,-0.12,-0.20,-0.05,
4.175,0.23,0.18,-0.20,-0.12,-0.20,-0.05,
4.175,0.23,0.18,-0.20,-0.12,-0.20,-0.05,
4.183,0.23,0.18,-0.20,-0.10,-0.28,-0.08,
4.184,0.23,0.18,-0.20,-0.10,-0.28,-0.08,
4.184,0.13,0.17,-0.19,-0.10,-0.28,-0.08,
4.185,0.13,0.17,-0.19,-0.10,-0.28,-0.08,
4.191,0.13,0.17,-0.19,-0.08,-0.34,-0.09,
4.192,0.13,0.17,-0.19,-0.08,-0.34,-0.09,
4.193,-0.02,0.19,-0.21,-0.08,-0.34,-0.09,
4.193,-0.02,0.19,-0.21,-0.08,-0.34,-0.09,
4.201,-0.02,0.19,-0.21,-0.06,-0.37,-0.08,
4.202,-0.02,0.19,-0.21,-0.06,-0.37,-0.08,
4.202,-0.16,0.22,-0.25,-0.06,-0.37,-0.08,
4.203,-0.16,0.22,-0.25,-0.06,-0.37,-0.08,
4.211,-0.16,0.22,-0.25,-0.05,-0.33,-0.03,
4.212,-0.16,0.22,-0.25,-0.05,-0.33,-0.03,
4.212,-0.27,0.25,-0.26,-0.05,-0.33,-0.03,
4.213,-0.27,0.25,-0.26,-0.05,-0.33,-0.03,
4.221,-0.27,0.25,-0.26,-0.03,-0.24,0.04,
4.222,-0.27,0.25,-0.26,-0.03,-0.24,0.04,
4.223,-0.35,0.30,-0.26,-0.03,-0.24,0.04,
4.223,-0.35,0.30,-0.26,-0.03,-0.24,0.04,
4.23,-0.35,0.30,-0.26,-0.03,-0.11,0.12,
4.231,-0.35,0.30,-0.26,-0.03,-0.11,0.12,
4.231,-0.38,0.33,-0.26,-0.03,-0.11,0.12,
4.231,-0.38,0.33,-0.26,-0.03,-0.11,0.12,
4.239,-0.38,0.33,-0.26,-0.03,0.03,0.21,
4.24,-0.38,0.33,-0.26,-0.03,0.03,0.21,
4.24,-0.40,0.36,-0.27,-0.03,0.03,0.21,
4.241,-0.40,0.36,-0.27,-0.03,0.03,0.21,
4.249,-0.40,0.36,-0.27,-0.03,0.15,0.29,
4.25,-0.40,0.36,-0.27,-0.03,0.15,0.29,
4.251,-0.46,0.41,-0.28,-0.03,0.15,0.29,
4.251,-0.46,0.41,-0.28,-0.03,0.15,0.29,
4.258,-0.46,0.41,-0.28,-0.03,0.26,0.35,
4.259,-0.46,0.41,-0.28,-0.03,0.26,0.35,
4.26,-0.54,0.42,-0.27,-0.03,0.26,0.35,
4.26,-0.54,0.42,-0.27,-0.03,0.26,0.35,
4.268,-0.54,0.42,-0.27,-0.02,0.34,0.39,
4.269,-0.54,0.42,-0.27,-0.02,0.34,0.39,
4.269,-0.62,0.44,-0.22,-0.02,0.34,0.39,
4.27,-0.62,0.44,-0.22,-0.02,0.34,0.39,
4.277,-0.62,0.44,-0.22,-0.01,0.42,0.43,
4.278,-0.62,0.44,-0.22,-0.01,0.42,0.43,
4.279,-0.66,0.45,-0.18,-0.01,0.42,0.43,
4.279,-0.66,0.45,-0.18,-0.01,0.42,0.43,
4.287,-0.66,0.45,-0.18,-0.00,0.49,0.46,
4.288,-0.66,0.45,-0.18,-0.00,0.49,0.46,
4.288,-0.67,0.45,-0.13,-0.00,0.49,0.46,
4.289,-0.67,0.45,-0.13,-0.00,0.49,0.46,
4.296,-0.67,0.45,-0.13,0.02,0.53,0.48,
4.297,-0.67,0.45,-0.13,0.02,0.53,0.48,
4.298,-0.61,0.46,-0.09,0.02,0.53,0.48,
4.299,-0.61,0.46,-0.09,0.02,0.53,0.48,
4.309,-0.61,0.46,-0.09,0.05,0.56,0.50,
4.31,-0.61,0.46,-0.09,0.05,0.56,0.50,
4.31,-0.56,0.47,-0.03,0.05,0.56,0.50,
4.311,-0.56,0.47,-0.03,0.05,0.56,0.50,
4.318,-0.56,0.47,-0.03,0.08,0.55,0.49,
4.318,-0.56,0.47,-0.03,0.08,0.55,0.49,
4.319,-0.52,0.48,0.02,0.08,0.55,0.49,
4.319,-0.52,0.48,0.02,0.08,0.55,0.49,
4.325,-0.52,0.48,0.02,0.11,0.51,0.45,
4.325,-0.52,0.48,0.02,0.11,0.51,0.45,
4.326,-0.50,0.46,0.10,0.11,0.51,0.45,
4.326,-0.50,0.46,0.10,0.11,0.51,0.45,
4.334,-0.50,0.46,0.10,0.11,0.51,0.45,
4.335,-0.50,0.46,0.10,0.11,0.51,0.45,
4.335,-0.50,0.46,0.10,0.11,0.51,0.45,
4.336,-0.50,0.46,0.10,0.11,0.51,0.45,
4.344,-0.50,0.46,0.10,0.14,0.46,0.40,
4.346,-0.50,0.46,0.10,0.14,0.46,0.40,
4.346,-0.54,0.42,0.17,0.14,0.46,0.40,
4.347,-0.54,0.42,0.17,0.14,0.46,0.40,
4.354,-0.54,0.42,0.17,0.17,0.38,0.34,
4.355,-0.54,0.42,0.17,0.17,0.38,0.34,
4.355,-0.54,0.43,0.23,0.17,0.38,0.34,
4.356,-0.54,0.43,0.23,0.17,0.38,0.34,
4.363,-0.54,0.43,0.23,0.21,0.31,0.29,
4.364,-0.54,0.43,0.23,0.21,0.31,0.29,
4.364,-0.50,0.46,0.28,0.21,0.31,0.29,
4.365,-0.50,0.46,0.28,0.21,0.31,0.29,
4.373,-0.50,0.46,0.28,0.24,0.23,0.24,
4.374,-0.50,0.46,0.28,0.24,0.23,0.24,
4.375,-0.42,0.49,0.32,0.24,0.23,0.24,
4.375,-0.42,0.49,0.32,0.24,0.23,0.24,
4.383,-0.42,0.49,0.32,0.27,0.15,0.20,
4.384,-0.42,0.49,0.32,0.27,0.15,0.20,
4.384,-0.33,0.51,0.35,0.27,0.15,0.20,
4.385,-0.33,0.51,0.35,0.27,0.15,0.20,
4.392,-0.33,0.51,0.35,0.29,0.07,0.16,
4.392,-0.33,0.51,0.35,0.29,0.07,0.16,
4.393,-0.24,0.48,0.33,0.29,0.07,0.16,
4.394,-0.24,0.48,0.33,0.29,0.07,0.16,
4.401,-0.24,0.48,0.33,0.31,-0.01,0.12,
4.401,-0.24,0.48,0.33,0.31,-0.01,0.12,
4.402,-0.17,0.42,0.25,0.31,-0.01,0.12,
4.402,-0.17,0.42,0.25,0.31,-0.01,0.12,
4.411,-0.17,0.42,0.25,0.30,-0.07,0.06,
4.412,-0.17,0.42,0.25,0.30,-0.07,0.06,
4.412,-0.11,0.39,0.14,0.30,-0.07,0.06,
4.413,-0.11,0.39,0.14,0.30,-0.07,0.06,
4.421,-0.11,0.39,0.14,0.27,-0.12,-0.01,
4.422,-0.11,0.39,0.14,0.27,-0.12,-0.01,
4.422,-0.08,0.37,0.04,0.27,-0.12,-0.01,
4.423,-0.08,0.37,0.04,0.27,-0.12,-0.01,
4.43,-0.08,0.37,0.04,0.22,-0.14,-0.08,
4.431,-0.08,0.37,0.04,0.22,-0.14,-0.08,
4.431,-0.04,0.36,-0.06,0.22,-0.14,-0.08,
4.431,-0.04,0.36,-0.06,0.22,-0.14,-0.08,
4.439,-0.04,0.36,-0.06,0.15,-0.13,-0.14,
4.44,-0.04,0.36,-0.06,0.15,-0.13,-0.14,
4.44,0.03,0.35,-0.14,0.15,-0.13,-0.14,
4.441,0.03,0.35,-0.14,0.15,-0.13,-0.14,
4.449,0.03,0.35,-0.14,0.05,-0.08,-0.19,
4.45,0.03,0.35,-0.14,0.05,-0.08,-0.19,
4.45,0.13,0.30,-0.17,0.05,-0.08,-0.19,
4.451,0.13,0.30,-0.17,0.05,-0.08,-0.19,
4.458,0.13,0.30,-0.17,-0.04,-0.03,-0.24,
4.459,0.13,0.30,-0.17,-0.04,-0.03,-0.24,
4.459,0.25,0.22,-0.16,-0.04,-0.03,-0.24,
4.46,0.25,0.22,-0.16,-0.04,-0.03,-0.24,
4.468,0.25,0.22,-0.16,-0.13,-0.01,-0.28,
4.469,0.25,0.22,-0.16,-0.13,-0.01,-0.28,
4.47,0.36,0.16,-0.16,-0.13,-0.01,-0.28,
4.47,0.36,0.16,-0.16,-0.13,-0.01,-0.28,
4.477,0.36,0.16,-0.16,-0.20,-0.03,-0.32,
4.478,0.36,0.16,-0.16,-0.20,-0.03,-0.32,
4.478,0.47,0.13,-0.14,-0.20,-0.03,-0.32,
4.479,0.47,0.13,-0.14,-0.20,-0.03,-0.32,
4.487,0.47,0.13,-0.14,-0.25,-0.08,-0.37,
4.488,0.47,0.13,-0.14,-0.25,-0.08,-0.37,
4.488,0.61,0.17,-0.13,-0.25,-0.08,-0.37,
4.489,0.61,0.17,-0.13,-0.25,-0.08,-0.37,
4.497,0.61,0.17,-0.13,-0.28,-0.16,-0.43,
4.497,0.61,0.17,-0.13,-0.28,-0.16,-0.43,
4.498,0.76,0.31,-0.13,-0.28,-0.16,-0.43,
4.498,0.76,0.31,-0.13,-0.28,-0.16,-0.43,
4.506,0.76,0.31,-0.13,-0.29,-0.22,-0.49,
4.508,0.76,0.31,-0.13,-0.29,-0.22,-0.49,
4.509,0.93,0.50,-0.07,-0.29,-0.22,-0.49,
4.51,0.93,0.50,-0.07,-0.29,-0.22,-0.49,
4.52,0.93,0.50,-0.07,-0.28,-0.29,-0.55,
4.521,0.93,0.50,-0.07,-0.28,-0.29,-0.55,
4.522,1.03,0.65,0.04,-0.28,-0.29,-0.55,
4.522,1.03,0.65,0.04,-0.28,-0.29,-0.55,
4.525,1.03,0.65,0.04,-0.26,-0.36,-0.61,
4.526,1.03,0.65,0.04,-0.26,-0.36,-0.61,
4.527,1.09,0.65,0.16,-0.26,-0.36,-0.61,
4.527,1.09,0.65,0.16,-0.26,-0.36,-0.61,
4.534,1.09,0.65,0.16,-0.26,-0.36,-0.61,
4.536,1.09,0.65,0.16,-0.26,-0.36,-0.61,
4.537,1.09,0.65,0.16,-0.26,-0.36,-0.61,
4.537,1.09,0.65,0.16,-0.26,-0.36,-0.61,
4.544,1.09,0.65,0.16,-0.21,-0.47,-0.66,
4.545,1.09,0.65,0.16,-0.21,-0.47,-0.66,
4.545,1.09,-0.01,0.61,-0.21,-0.47,-0.66,
4.545,1.09,-0.01,0.61,-0.21,-0.47,-0.66,
4.553,1.09,-0.01,0.61,-0.12,-0.58,-0.70,
4.555,1.09,-0.01,0.61,-0.12,-0.58,-0.70,
4.556,1.10,-0.51,0.92,-0.12,-0.58,-0.70,
4.556,1.10,-0.51,0.92,-0.12,-0.58,-0.70,
4.563,1.10,-0.51,0.92,0.01,-0.69,-0.72,
4.564,1.10,-0.51,0.92,0.01,-0.69,-0.72,
4.564,1.12,-0.91,1.24,0.01,-0.69,-0.72,
4.564,1.12,-0.91,1.24,0.01,-0.69,-0.72,
4.572,1.12,-0.91,1.24,0.19,-0.78,-0.71,
4.573,1.12,-0.91,1.24,0.19,-0.78,-0.71,
4.573,1.17,-1.08,1.45,0.19,-0.78,-0.71,
4.573,1.17,-1.08,1.45,0.19,-0.78,-0.71,
4.582,1.17,-1.08,1.45,0.40,-0.85,-0.69,
4.583,1.17,-1.08,1.45,0.40,-0.85,-0.69,
4.583,1.26,-1.04,1.54,0.40,-0.85,-0.69,
4.583,1.26,-1.04,1.54,0.40,-0.85,-0.69,
4.592,1.26,-1.04,1.54,0.60,-0.90,-0.65,
4.593,1.26,-1.04,1.54,0.60,-0.90,-0.65,
4.593,1.31,-0.86,1.51,0.60,-0.90,-0.65,
4.594,1.31,-0.86,1.51,0.60,-0.90,-0.65,
4.601,1.31,-0.86,1.51,0.76,-0.92,-0.62,
4.601,1.31,-0.86,1.51,0.76,-0.92,-0.62,
4.601,1.25,-0.65,1.49,0.76,-0.92,-0.62,
4.602,1.25,-0.65,1.49,0.76,-0.92,-0.62,
4.611,1.25,-0.65,1.49,0.87,-0.91,-0.58,
4.612,1.25,-0.65,1.49,0.87,-0.91,-0.58,
4.613,1.05,-0.46,1.54,0.87,-0.91,-0.58,
4.613,1.05,-0.46,1.54,0.87,-0.91,-0.58,
4.622,1.05,-0.46,1.54,0.93,-0.87,-0.53,
4.623,1.05,-0.46,1.54,0.93,-0.87,-0.53,
4.624,0.72,-0.36,1.64,0.93,-0.87,-0.53,
4.624,0.72,-0.36,1.64,0.93,-0.87,-0.53,
4.63,0.72,-0.36,1.64,0.95,-0.77,-0.45,
4.63,0.72,-0.36,1.64,0.95,-0.77,-0.45,
4.631,0.36,-0.34,1.80,0.95,-0.77,-0.45,
4.631,0.36,-0.34,1.80,0.95,-0.77,-0.45,
4.639,0.36,-0.34,1.80,0.96,-0.59,-0.34,
4.64,0.36,-0.34,1.80,0.96,-0.59,-0.34,
4.641,0.08,-0.36,1.94,0.96,-0.59,-0.34,
4.641,0.08,-0.36,1.94,0.96,-0.59,-0.34,
4.649,0.08,-0.36,1.94,0.98,-0.34,-0.18,
4.651,0.08,-0.36,1.94,0.98,-0.34,-0.18,
4.651,-0.09,-0.39,2.04,0.98,-0.34,-0.18,
4.651,-0.09,-0.39,2.04,0.98,-0.34,-0.18,
4.658,-0.09,-0.39,2.04,1.01,-0.05,0.00,
4.659,-0.09,-0.39,2.04,1.01,-0.05,0.00,
4.66,-0.10,-0.37,2.01,1.01,-0.05,0.00,
4.66,-0.10,-0.37,2.01,1.01,-0.05,0.00,
4.667,-0.10,-0.37,2.01,1.05,0.25,0.19,
4.669,-0.10,-0.37,2.01,1.05,0.25,0.19,
4.669,0.02,-0.29,1.85,1.05,0.25,0.19,
4.669,0.02,-0.29,1.85,1.05,0.25,0.19,
4.689,0.02,-0.29,1.85,1.06,0.48,0.33,
4.69,0.02,-0.29,1.85,1.06,0.48,0.33,
4.691,0.20,-0.11,1.61,1.06,0.48,0.33,
4.691,0.20,-0.11,1.61,1.06,0.48,0.33,
4.692,0.20,-0.11,1.61,1.03,0.64,0.41,
4.692,0.20,-0.11,1.61,1.03,0.64,0.41,
4.693,0.42,0.12,1.29,1.03,0.64,0.41,
4.693,0.42,0.12,1.29,1.03,0.64,0.41,
4.696,0.42,0.12,1.29,0.94,0.69,0.42,
4.697,0.42,0.12,1.29,0.94,0.69,0.42,
4.698,0.67,0.39,1.03,0.94,0.69,0.42,
4.698,0.67,0.39,1.03,0.94,0.69,0.42,
4.706,0.67,0.39,1.03,0.79,0.66,0.36,
4.707,0.67,0.39,1.03,0.79,0.66,0.36,
4.707,0.91,0.65,0.80,0.79,0.66,0.36,
4.708,0.91,0.65,0.80,0.79,0.66,0.36,
4.717,0.91,0.65,0.80,0.60,0.54,0.25,
4.718,0.91,0.65,0.80,0.60,0.54,0.25,
4.718,1.15,0.79,0.60,0.60,0.54,0.25,
4.719,1.15,0.79,0.60,0.60,0.54,0.25,
4.725,1.15,0.79,0.60,0.60,0.54,0.25,
4.726,1.15,0.79,0.60,0.60,0.54,0.25,
4.726,1.15,0.79,0.60,0.60,0.54,0.25,
4.727,1.15,0.79,0.60,0.60,0.54,0.25,
4.735,1.15,0.79,0.60,0.18,0.14,-0.06,
4.736,1.15,0.79,0.60,0.18,0.14,-0.06,
4.736,1.53,0.81,0.21,0.18,0.14,-0.06,
4.737,1.53,0.81,0.21,0.18,0.14,-0.06,
4.744,1.53,0.81,0.21,0.18,0.14,-0.06,
4.745,1.53,0.81,0.21,0.18,0.14,-0.06,
4.745,1.53,0.81,0.21,0.18,0.14,-0.06,
4.745,1.53,0.81,0.21,0.18,0.14,-0.06,
4.753,1.53,0.81,0.21,-0.04,-0.14,-0.26,
4.755,1.53,0.81,0.21,-0.04,-0.14,-0.26,
4.756,1.70,0.53,-0.17,-0.04,-0.14,-0.26,
4.757,1.70,0.53,-0.17,-0.04,-0.14,-0.26,
4.763,1.70,0.53,-0.17,-0.25,-0.41,-0.45,
4.763,1.70,0.53,-0.17,-0.25,-0.41,-0.45,
4.764,1.63,0.38,-0.45,-0.25,-0.41,-0.45,
4.764,1.63,0.38,-0.45,-0.25,-0.41,-0.45,
4.772,1.63,0.38,-0.45,-0.46,-0.63,-0.63,
4.773,1.63,0.38,-0.45,-0.46,-0.63,-0.63,
4.773,1.42,0.29,-0.71,-0.46,-0.63,-0.63,
4.774,1.42,0.29,-0.71,-0.46,-0.63,-0.63,
4.783,1.42,0.29,-0.71,-0.68,-0.77,-0.77,
4.783,1.42,0.29,-0.71,-0.68,-0.77,-0.77,
4.784,1.04,0.26,-1.01,-0.68,-0.77,-0.77,
4.784,1.04,0.26,-1.01,-0.68,-0.77,-0.77,
4.791,1.04,0.26,-1.01,-0.90,-0.79,-0.83,
4.792,1.04,0.26,-1.01,-0.90,-0.79,-0.83,
4.792,0.52,0.26,-1.31,-0.90,-0.79,-0.83,
4.793,0.52,0.26,-1.31,-0.90,-0.79,-0.83,
4.801,0.52,0.26,-1.31,-1.12,-0.63,-0.80,
4.802,0.52,0.26,-1.31,-1.12,-0.63,-0.80,
4.802,-0.08,0.30,-1.51,-1.12,-0.63,-0.80,
4.803,-0.08,0.30,-1.51,-1.12,-0.63,-0.80,
4.81,-0.08,0.30,-1.51,-1.31,-0.25,-0.67,
4.811,-0.08,0.30,-1.51,-1.31,-0.25,-0.67,
4.812,-0.63,0.34,-1.61,-1.31,-0.25,-0.67,
4.812,-0.63,0.34,-1.61,-1.31,-0.25,-0.67,
4.821,-0.63,0.34,-1.61,-1.22,0.37,-0.62,
4.822,-0.63,0.34,-1.61,-1.22,0.37,-0.62,
4.822,-0.99,0.38,-1.59,-1.22,0.37,-0.62,
4.823,-0.99,0.38,-1.59,-1.22,0.37,-0.62,
4.829,-0.99,0.38,-1.59,-0.89,1.17,-0.69,
4.83,-0.99,0.38,-1.59,-0.89,1.17,-0.69,
4.831,-1.11,0.40,-1.47,-0.89,1.17,-0.69,
4.831,-1.11,0.40,-1.47,-0.89,1.17,-0.69,
4.839,-1.11,0.40,-1.47,-0.78,2.02,-0.47,
4.84,-1.11,0.40,-1.47,-0.78,2.02,-0.47,
4.841,-0.93,0.39,-1.33,-0.78,2.02,-0.47,
4.842,-0.93,0.39,-1.33,-0.78,2.02,-0.47,
4.849,-0.93,0.39,-1.33,-0.82,2.72,-0.00,
4.849,-0.93,0.39,-1.33,-0.82,2.72,-0.00,
4.85,-0.56,0.34,-1.20,-0.82,2.72,-0.00,
4.85,-0.56,0.34,-1.20,-0.82,2.72,-0.00,
4.858,-0.56,0.34,-1.20,-0.74,3.12,0.33,
4.86,-0.56,0.34,-1.20,-0.74,3.12,0.33,
4.86,-0.09,0.26,-1.08,-0.74,3.12,0.33,
4.861,-0.09,0.26,-1.08,-0.74,3.12,0.33,
4.867,-0.09,0.26,-1.08,-0.61,3.15,0.49,
4.868,-0.09,0.26,-1.08,-0.61,3.15,0.49,
4.869,0.41,0.15,-0.92,-0.61,3.15,0.49,
4.869,0.41,0.15,-0.92,-0.61,3.15,0.49,
4.877,0.41,0.15,-0.92,-0.46,2.81,0.45,
4.878,0.41,0.15,-0.92,-0.46,2.81,0.45,
4.879,0.83,0.03,-0.75,-0.46,2.81,0.45,
4.879,0.83,0.03,-0.75,-0.46,2.81,0.45,
4.887,0.83,0.03,-0.75,-0.32,2.17,0.26,
4.887,0.83,0.03,-0.75,-0.32,2.17,0.26,
4.888,1.17,-0.06,-0.53,-0.32,2.17,0.26,
4.888,1.17,-0.06,-0.53,-0.32,2.17,0.26,
4.896,1.17,-0.06,-0.53,-0.18,1.33,-0.04,
4.897,1.17,-0.06,-0.53,-0.18,1.33,-0.04,
4.898,1.42,-0.08,-0.28,-0.18,1.33,-0.04,
4.898,1.42,-0.08,-0.28,-0.18,1.33,-0.04,
4.906,1.42,-0.08,-0.28,-0.03,0.42,-0.37,
4.907,1.42,-0.08,-0.28,-0.03,0.42,-0.37,
4.908,1.54,-0.06,-0.07,-0.03,0.42,-0.37,
4.909,1.54,-0.06,-0.07,-0.03,0.42,-0.37,
4.917,1.54,-0.06,-0.07,0.15,-0.48,-0.68,
4.918,1.54,-0.06,-0.07,0.15,-0.48,-0.68,
4.918,1.57,0.02,0.11,0.15,-0.48,-0.68,
4.918,1.57,0.02,0.11,0.15,-0.48,-0.68,
4.925,1.57,0.02,0.11,0.35,-1.27,-0.93,
4.926,1.57,0.02,0.11,0.35,-1.27,-0.93,
4.926,1.58,0.08,0.20,0.35,-1.27,-0.93,
4.926,1.58,0.08,0.20,0.35,-1.27,-0.93,
4.934,1.58,0.08,0.20,0.35,-1.27,-0.93,
4.936,1.58,0.08,0.20,0.35,-1.27,-0.93,
4.937,1.58,0.08,0.20,0.35,-1.27,-0.93,
4.937,1.58,0.08,0.20,0.35,-1.27,-0.93,
4.944,1.58,0.08,0.20,0.56,-1.88,-1.08,
4.945,1.58,0.08,0.20,0.56,-1.88,-1.08,
4.945,1.66,0.07,0.02,0.56,-1.88,-1.08,
4.945,1.66,0.07,0.02,0.56,-1.88,-1.08,
4.953,1.66,0.07,0.02,0.74,-2.27,-1.16,
4.954,1.66,0.07,0.02,0.74,-2.27,-1.16,
4.955,1.76,-0.01,-0.18,0.74,-2.27,-1.16,
4.955,1.76,-0.01,-0.18,0.74,-2.27,-1.16,
4.963,1.76,-0.01,-0.18,0.85,-2.47,-1.18,
4.963,1.76,-0.01,-0.18,0.85,-2.47,-1.18,
4.964,1.84,-0.11,-0.38,0.85,-2.47,-1.18,
4.964,1.84,-0.11,-0.38,0.85,-2.47,-1.18,
4.972,1.84,-0.11,-0.38,0.87,-2.55,-1.17,
4.973,1.84,-0.11,-0.38,0.87,-2.55,-1.17,
4.974,1.97,-0.20,-0.50,0.87,-2.55,-1.17,
4.974,1.97,-0.20,-0.50,0.87,-2.55,-1.17,
4.982,1.97,-0.20,-0.50,0.80,-2.55,-1.15,
4.983,1.97,-0.20,-0.50,0.80,-2.55,-1.15,
4.983,2.13,-0.29,-0.61,0.80,-2.55,-1.15,
4.983,2.13,-0.29,-0.61,0.80,-2.55,-1.15,
4.991,2.13,-0.29,-0.61,0.68,-2.53,-1.14,
4.992,2.13,-0.29,-0.61,0.68,-2.53,-1.14,
4.993,2.29,-0.43,-0.67,0.68,-2.53,-1.14,
4.993,2.29,-0.43,-0.67,0.68,-2.53,-1.14,
5.001,2.29,-0.43,-0.67,0.53,-2.54,-1.12,
5.001,2.29,-0.43,-0.67,0.53,-2.54,-1.12,
5.002,2.50,-0.71,-0.74,0.53,-2.54,-1.12,
5.003,2.50,-0.71,-0.74,0.53,-2.54,-1.12,
5.01,2.50,-0.71,-0.74,0.38,-2.61,-1.11,
5.011,2.50,-0.71,-0.74,0.38,-2.61,-1.11,
5.011,2.69,-1.15,-0.88,0.38,-2.61,-1.11,
5.012,2.69,-1.15,-0.88,0.38,-2.61,-1.11,
5.02,2.69,-1.15,-0.88,0.26,-2.73,-1.11,
5.021,2.69,-1.15,-0.88,0.26,-2.73,-1.11,
5.021,2.81,-1.75,-1.16,0.26,-2.73,-1.11,
5.022,2.81,-1.75,-1.16,0.26,-2.73,-1.11,
5.029,2.81,-1.75,-1.16,0.13,-2.86,-1.11,
5.03,2.81,-1.75,-1.16,0.13,-2.86,-1.11,
5.031,2.80,-2.34,-2.80,0.13,-2.86,-1.11,
5.031,2.80,-2.34,-2.80,0.13,-2.86,-1.11,
5.039,2.80,-2.34,-2.80,-0.06,-2.95,-1.11,
5.04,2.80,-2.34,-2.80,-0.06,-2.95,-1.11,
5.04,2.52,-2.74,-3.18,-0.06,-2.95,-1.11,
5.041,2.52,-2.74,-3.18,-0.06,-2.95,-1.11,
5.049,2.52,-2.74,-3.18,-0.38,-2.97,-1.07,
5.05,2.52,-2.74,-3.18,-0.38,-2.97,-1.07,
5.051,2.02,-2.91,-4.70,-0.38,-2.97,-1.07,
5.051,2.02,-2.91,-4.70,-0.38,-2.97,-1.07,
5.058,2.02,-2.91,-4.70,-0.88,-2.85,-0.97,
5.059,2.02,-2.91,-4.70,-0.88,-2.85,-0.97,
5.059,1.41,-2.84,-4.94,-0.88,-2.85,-0.97,
5.06,1.41,-2.84,-4.94,-0.88,-2.85,-0.97,
5.068,1.41,-2.84,-4.94,-1.51,-2.49,-0.80,
5.069,1.41,-2.84,-4.94,-1.51,-2.49,-0.80,
5.069,0.80,-2.64,-4.87,-1.51,-2.49,-0.80,
5.07,0.80,-2.64,-4.87,-1.51,-2.49,-0.80,
5.077,0.80,-2.64,-4.87,-2.16,-1.78,-0.51,
5.078,0.80,-2.64,-4.87,-2.16,-1.78,-0.51,
5.079,0.36,-2.46,-4.38,-2.16,-1.78,-0.51,
5.08,0.36,-2.46,-4.38,-2.16,-1.78,-0.51,
5.086,0.36,-2.46,-4.38,-2.73,-0.64,-0.11,
5.087,0.36,-2.46,-4.38,-2.73,-0.64,-0.11,
5.088,0.06,-2.33,-2.69,-2.73,-0.64,-0.11,
5.088,0.06,-2.33,-2.69,-2.73,-0.64,-0.11,
5.097,0.06,-2.33,-2.69,-3.05,0.77,0.39,
5.098,0.06,-2.33,-2.69,-3.05,0.77,0.39,
5.098,-0.28,-2.27,-2.17,-3.05,0.77,0.39,
5.099,-0.28,-2.27,-2.17,-3.05,0.77,0.39,
5.107,-0.28,-2.27,-2.17,-3.00,2.05,0.89,
5.108,-0.28,-2.27,-2.17,-3.00,2.05,0.89,
5.108,-0.67,-2.21,-1.64,-3.00,2.05,0.89,
5.109,-0.67,-2.21,-1.64,-3.00,2.05,0.89,
5.12,-0.67,-2.21,-1.64,-2.59,2.83,1.29,
5.121,-0.67,-2.21,-1.64,-2.59,2.83,1.29,
5.121,-1.18,-2.17,-1.12,-2.59,2.83,1.29,
5.122,-1.18,-2.17,-1.12,-2.59,2.83,1.29,
5.125,-1.18,-2.17,-1.12,-1.98,3.13,1.57,
5.126,-1.18,-2.17,-1.12,-1.98,3.13,1.57,
5.126,-1.77,-2.15,-0.51,-1.98,3.13,1.57,
5.127,-1.77,-2.15,-0.51,-1.98,3.13,1.57,
5.134,-1.77,-2.15,-0.51,-1.98,3.13,1.57,
5.135,-1.77,-2.15,-0.51,-1.98,3.13,1.57,
5.136,-1.77,-2.15,-0.51,-1.98,3.13,1.57,
5.136,-1.77,-2.15,-0.51,-1.98,3.13,1.57,
5.143,-1.77,-2.15,-0.51,-1.31,3.14,1.80,
5.144,-1.77,-2.15,-0.51,-1.31,3.14,1.80,
5.145,-2.70,-2.21,2.87,-1.31,3.14,1.80,
5.146,-2.70,-2.21,2.87,-1.31,3.14,1.80,
5.153,-2.70,-2.21,2.87,-0.58,3.00,2.01,
5.155,-2.70,-2.21,2.87,-0.58,3.00,2.01,
5.155,-2.98,-2.26,3.28,-0.58,3.00,2.01,
5.156,-2.98,-2.26,3.28,-0.58,3.00,2.01,
5.162,-2.98,-2.26,3.28,0.29,2.70,2.23,
5.163,-2.98,-2.26,3.28,0.29,2.70,2.23,
5.164,-3.11,-2.30,3.71,0.29,2.70,2.23,
5.164,-3.11,-2.30,3.71,0.29,2.70,2.23,
5.172,-3.11,-2.30,3.71,1.28,2.28,2.45,
5.174,-3.11,-2.30,3.71,1.28,2.28,2.45,
5.174,-3.03,-2.32,3.81,1.28,2.28,2.45,
5.175,-3.03,-2.32,3.81,1.28,2.28,2.45,
5.183,-3.03,-2.32,3.81,2.21,1.83,2.60,
5.184,-3.03,-2.32,3.81,2.21,1.83,2.60,
5.184,-2.78,-2.31,3.45,2.21,1.83,2.60,
5.185,-2.78,-2.31,3.45,2.21,1.83,2.60,
5.191,-2.78,-2.31,3.45,2.86,1.44,2.52,
5.192,-2.78,-2.31,3.45,2.86,1.44,2.52,
5.193,-2.43,-2.26,1.63,2.86,1.44,2.52,
5.193,-2.43,-2.26,1.63,2.86,1.44,2.52,
5.2,-2.43,-2.26,1.63,3.14,1.16,2.31,
5.201,-2.43,-2.26,1.63,3.14,1.16,2.31,
5.202,-1.97,-2.13,0.10,3.14,1.16,2.31,
5.203,-1.97,-2.13,0.10,3.14,1.16,2.31,
5.21,-1.97,-2.13,0.10,3.02,1.01,2.08,
5.211,-1.97,-2.13,0.10,3.02,1.01,2.08,
5.212,-1.47,-1.99,-1.62,3.02,1.01,2.08,
5.213,-1.47,-1.99,-1.62,3.02,1.01,2.08,
5.221,-1.47,-1.99,-1.62,2.50,0.99,1.73,
5.222,-1.47,-1.99,-1.62,2.50,0.99,1.73,
5.223,-1.09,-1.87,-1.86,2.50,0.99,1.73,
5.223,-1.09,-1.87,-1.86,2.50,0.99,1.73,
5.23,-1.09,-1.87,-1.86,1.67,1.07,1.29,
5.231,-1.09,-1.87,-1.86,1.67,1.07,1.29,
5.232,-0.78,-1.74,-2.14,1.67,1.07,1.29,
5.232,-0.78,-1.74,-2.14,1.67,1.07,1.29,
5.24,-0.78,-1.74,-2.14,0.74,1.19,0.81,
5.241,-0.78,-1.74,-2.14,0.74,1.19,0.81,
5.241,-0.54,-1.63,-2.24,0.74,1.19,0.81,
5.241,-0.54,-1.63,-2.24,0.74,1.19,0.81,
5.249,-0.54,-1.63,-2.24,-0.12,1.28,0.35,
5.25,-0.54,-1.63,-2.24,-0.12,1.28,0.35,
5.25,-0.45,-1.48,-1.98,-0.12,1.28,0.35,
5.251,-0.45,-1.48,-1.98,-0.12,1.28,0.35,
5.258,-0.45,-1.48,-1.98,-0.79,1.30,-0.06,
5.259,-0.45,-1.48,-1.98,-0.79,1.30,-0.06,
5.259,-0.39,-1.30,-0.31,-0.79,1.30,-0.06,
5.26,-0.39,-1.30,-0.31,-0.79,1.30,-0.06,
5.267,-0.39,-1.30,-0.31,-1.19,1.22,-0.38,
5.269,-0.39,-1.30,-0.31,-1.19,1.22,-0.38,
5.269,-0.47,-1.13,0.04,-1.19,1.22,-0.38,
5.27,-0.47,-1.13,0.04,-1.19,1.22,-0.38,
5.276,-0.47,-1.13,0.04,-1.29,1.02,-0.61,
5.277,-0.47,-1.13,0.04,-1.29,1.02,-0.61,
5.278,-0.75,-0.92,0.54,-1.29,1.02,-0.61,
5.279,-0.75,-0.92,0.54,-1.29,1.02,-0.61,
5.286,-0.75,-0.92,0.54,-1.11,0.74,-0.75,
5.287,-0.75,-0.92,0.54,-1.11,0.74,-0.75,
5.288,-1.16,-0.70,0.88,-1.11,0.74,-0.75,
5.289,-1.16,-0.70,0.88,-1.11,0.74,-0.75,
5.296,-1.16,-0.70,0.88,-0.74,0.45,-0.77,
5.297,-1.16,-0.70,0.88,-0.74,0.45,-0.77,
5.297,-1.63,-0.44,0.91,-0.74,0.45,-0.77,
5.298,-1.63,-0.44,0.91,-0.74,0.45,-0.77,
5.308,-1.63,-0.44,0.91,-0.32,0.24,-0.68,
5.309,-1.63,-0.44,0.91,-0.32,0.24,-0.68,
5.309,-2.02,-0.14,0.76,-0.32,0.24,-0.68,
5.309,-2.02,-0.14,0.76,-0.32,0.24,-0.68,
5.32,-2.02,-0.14,0.76,0.05,0.17,-0.47,
5.321,-2.02,-0.14,0.76,0.05,0.17,-0.47,
5.321,-2.23,0.20,0.53,0.05,0.17,-0.47,
5.322,-2.23,0.20,0.53,0.05,0.17,-0.47,
5.325,-2.23,0.20,0.53,0.32,0.21,-0.18,
5.325,-2.23,0.20,0.53,0.32,0.21,-0.18,
5.325,-2.26,0.55,0.26,0.32,0.21,-0.18,
5.326,-2.26,0.55,0.26,0.32,0.21,-0.18,
5.334,-2.26,0.55,0.26,0.32,0.21,-0.18,
5.335,-2.26,0.55,0.26,0.32,0.21,-0.18,
5.335,-2.26,0.55,0.26,0.32,0.21,-0.18,
5.336,-2.26,0.55,0.26,0.32,0.21,-0.18,
5.344,-2.26,0.55,0.26,0.47,0.31,0.14,
5.345,-2.26,0.55,0.26,0.47,0.31,0.14,
5.346,-2.02,1.17,-0.12,0.47,0.31,0.14,
5.347,-2.02,1.17,-0.12,0.47,0.31,0.14,
5.353,-2.02,1.17,-0.12,0.49,0.42,0.43,
5.354,-2.02,1.17,-0.12,0.49,0.42,0.43,
5.355,-1.80,1.40,-0.22,0.49,0.42,0.43,
5.356,-1.80,1.40,-0.22,0.49,0.42,0.43,
5.362,-1.80,1.40,-0.22,0.41,0.50,0.65,
5.363,-1.80,1.40,-0.22,0.41,0.50,0.65,
5.364,-1.62,1.59,-0.22,0.41,0.50,0.65,
5.364,-1.62,1.59,-0.22,0.41,0.50,0.65,
5.372,-1.62,1.59,-0.22,0.27,0.52,0.76,
5.373,-1.62,1.59,-0.22,0.27,0.52,0.76,
5.373,-1.53,1.76,-0.19,0.27,0.52,0.76,
5.374,-1.53,1.76,-0.19,0.27,0.52,0.76,
5.382,-1.53,1.76,-0.19,0.11,0.49,0.80,
5.383,-1.53,1.76,-0.19,0.11,0.49,0.80,
5.384,-1.58,1.95,-0.12,0.11,0.49,0.80,
5.384,-1.58,1.95,-0.12,0.11,0.49,0.80,
5.391,-1.58,1.95,-0.12,-0.02,0.41,0.79,
5.392,-1.58,1.95,-0.12,-0.02,0.41,0.79,
5.392,-1.71,2.13,-0.08,-0.02,0.41,0.79,
5.393,-1.71,2.13,-0.08,-0.02,0.41,0.79,
5.401,-1.71,2.13,-0.08,-0.10,0.31,0.77,
5.401,-1.71,2.13,-0.08,-0.10,0.31,0.77,
5.402,-1.88,2.34,-0.06,-0.10,0.31,0.77,
5.403,-1.88,2.34,-0.06,-0.10,0.31,0.77,
5.41,-1.88,2.34,-0.06,-0.14,0.21,0.78,
5.411,-1.88,2.34,-0.06,-0.14,0.21,0.78,
5.412,-2.04,2.53,-0.02,-0.14,0.21,0.78,
5.412,-2.04,2.53,-0.02,-0.14,0.21,0.78,
5.421,-2.04,2.53,-0.02,-0.15,0.12,0.84,
5.422,-2.04,2.53,-0.02,-0.15,0.12,0.84,
5.423,-2.13,2.75,0.05,-0.15,0.12,0.84,
5.423,-2.13,2.75,0.05,-0.15,0.12,0.84,
5.429,-2.13,2.75,0.05,-0.13,0.05,0.96,
5.43,-2.13,2.75,0.05,-0.13,0.05,0.96,
5.431,-2.14,3.05,0.15,-0.13,0.05,0.96,
5.431,-2.14,3.05,0.15,-0.13,0.05,0.96,
5.439,-2.14,3.05,0.15,-0.09,-0.01,1.12,
5.44,-2.14,3.05,0.15,-0.09,-0.01,1.12,
5.441,-2.06,3.42,0.29,-0.09,-0.01,1.12,
5.441,-2.06,3.42,0.29,-0.09,-0.01,1.12,
5.449,-2.06,3.42,0.29,-0.03,-0.06,1.28,
5.451,-2.06,3.42,0.29,-0.03,-0.06,1.28,
5.451,-1.88,3.82,0.43,-0.03,-0.06,1.28,
5.452,-1.88,3.82,0.43,-0.03,-0.06,1.28,
5.458,-1.88,3.82,0.43,0.06,-0.12,1.42,
5.459,-1.88,3.82,0.43,0.06,-0.12,1.42,
5.459,-1.69,4.15,0.53,0.06,-0.12,1.42,
5.46,-1.69,4.15,0.53,0.06,-0.12,1.42,
5.468,-1.69,4.15,0.53,0.18,-0.21,1.51,
5.469,-1.69,4.15,0.53,0.18,-0.21,1.51,
5.471,-1.51,4.32,0.62,0.18,-0.21,1.51,
5.472,-1.51,4.32,0.62,0.18,-0.21,1.51,
5.477,-1.51,4.32,0.62,0.32,-0.28,1.54,
5.478,-1.51,4.32,0.62,0.32,-0.28,1.54,
5.478,-1.34,4.33,0.65,0.32,-0.28,1.54,
5.479,-1.34,4.33,0.65,0.32,-0.28,1.54,
5.486,-1.34,4.33,0.65,0.46,-0.36,1.52,
5.488,-1.34,4.33,0.65,0.46,-0.36,1.52,
5.489,-1.18,4.15,0.54,0.46,-0.36,1.52,
5.489,-1.18,4.15,0.54,0.46,-0.36,1.52,
5.496,-1.18,4.15,0.54,0.58,-0.47,1.44,
5.496,-1.18,4.15,0.54,0.58,-0.47,1.44,
5.497,-1.03,3.88,0.34,0.58,-0.47,1.44,
5.497,-1.03,3.88,0.34,0.58,-0.47,1.44,
5.505,-1.03,3.88,0.34,0.63,-0.55,1.30,
5.506,-1.03,3.88,0.34,0.63,-0.55,1.30,
5.507,-0.88,3.48,0.04,0.63,-0.55,1.30,
5.507,-0.88,3.48,0.04,0.63,-0.55,1.30,
5.515,-0.88,3.48,0.04,0.58,-0.59,1.10,
5.516,-0.88,3.48,0.04,0.58,-0.59,1.10,
5.517,-0.73,2.93,-0.40,0.58,-0.59,1.10,
5.517,-0.73,2.93,-0.40,0.58,-0.59,1.10,
5.524,-0.73,2.93,-0.40,0.58,-0.59,1.10,
5.525,-0.73,2.93,-0.40,0.58,-0.59,1.10,
5.525,-0.73,2.93,-0.40,0.58,-0.59,1.10,
5.525,-0.73,2.93,-0.40,0.58,-0.59,1.10,
5.534,-0.73,2.93,-0.40,0.40,-0.58,0.85,
5.535,-0.73,2.93,-0.40,0.40,-0.58,0.85,
5.536,-0.38,0.60,-2.64,0.40,-0.58,0.85,
5.536,-0.38,0.60,-2.64,0.40,-0.58,0.85,
5.544,-0.38,0.60,-2.64,-0.02,-0.49,0.52,
5.545,-0.38,0.60,-2.64,-0.02,-0.49,0.52,
5.545,0.10,-1.29,-4.36,-0.02,-0.49,0.52,
5.546,0.10,-1.29,-4.36,-0.02,-0.49,0.52,
5.553,0.10,-1.29,-4.36,-0.82,-0.39,0.15,
5.555,0.10,-1.29,-4.36,-0.82,-0.39,0.15,
5.555,1.89,-3.07,-6.79,-0.82,-0.39,0.15,
5.556,1.89,-3.07,-6.79,-0.82,-0.39,0.15,
5.562,1.89,-3.07,-6.79,-2.03,-0.39,-0.27,
5.563,1.89,-3.07,-6.79,-2.03,-0.39,-0.27,
5.564,5.31,-4.64,-9.38,-2.03,-0.39,-0.27,
5.564,5.31,-4.64,-9.38,-2.03,-0.39,-0.27,
5.572,5.31,-4.64,-9.38,-3.48,-0.29,-1.11,
5.574,5.31,-4.64,-9.38,-3.48,-0.29,-1.11,
5.574,8.49,-5.02,-11.33,-3.48,-0.29,-1.11,
5.575,8.49,-5.02,-11.33,-3.48,-0.29,-1.11,
5.582,8.49,-5.02,-11.33,-4.87,-0.25,-2.47,
5.583,8.49,-5.02,-11.33,-4.87,-0.25,-2.47,
5.584,10.30,-5.19,-11.38,-4.87,-0.25,-2.47,
5.585,10.30,-5.19,-11.38,-4.87,-0.25,-2.47,
5.591,10.30,-5.19,-11.38,-5.87,-0.81,-4.16,
5.592,10.30,-5.19,-11.38,-5.87,-0.81,-4.16,
5.592,10.31,-4.93,-9.31,-5.87,-0.81,-4.16,
5.593,10.31,-4.93,-9.31,-5.87,-0.81,-4.16,
5.6,10.31,-4.93,-9.31,-6.11,-2.06,-6.00,
5.601,10.31,-4.93,-9.31,-6.11,-2.06,-6.00,
5.602,7.99,-2.99,-6.54,-6.11,-2.06,-6.00,
5.602,7.99,-2.99,-6.54,-6.11,-2.06,-6.00,
5.61,7.99,-2.99,-6.54,-5.46,-2.39,-7.56,
5.611,7.99,-2.99,-6.54,-5.46,-2.39,-7.56,
5.612,4.68,-2.54,-4.82,-5.46,-2.39,-7.56,
5.612,4.68,-2.54,-4.82,-5.46,-2.39,-7.56,
5.621,4.68,-2.54,-4.82,-4.59,-1.64,-8.26,
5.622,4.68,-2.54,-4.82,-4.59,-1.64,-8.26,
5.623,2.95,-0.77,-2.67,-4.59,-1.64,-8.26,
5.624,2.95,-0.77,-2.67,-4.59,-1.64,-8.26,
5.63,2.95,-0.77,-2.67,-3.63,-1.42,-7.79,
5.631,2.95,-0.77,-2.67,-3.63,-1.42,-7.79,
5.632,0.94,1.20,-0.94,-3.63,-1.42,-7.79,
5.633,0.94,1.20,-0.94,-3.63,-1.42,-7.79,
5.638,0.94,1.20,-0.94,-2.53,-1.16,-6.36,
5.639,0.94,1.20,-0.94,-2.53,-1.16,-6.36,
5.639,0.43,1.58,-0.71,-2.53,-1.16,-6.36,
5.64,0.43,1.58,-0.71,-2.53,-1.16,-6.36,
5.649,0.43,1.58,-0.71,-1.65,-0.35,-4.48,
5.65,0.43,1.58,-0.71,-1.65,-0.35,-4.48,
5.651,-0.11,1.99,-0.48,-1.65,-0.35,-4.48,
5.652,-0.11,1.99,-0.48,-1.65,-0.35,-4.48,
5.657,-0.11,1.99,-0.48,-0.87,0.62,-2.55,
5.658,-0.11,1.99,-0.48,-0.87,0.62,-2.55,
5.659,-0.70,2.00,-0.30,-0.87,0.62,-2.55,
5.66,-0.70,2.00,-0.30,-0.87,0.62,-2.55,
5.667,-0.70,2.00,-0.30,-0.14,1.53,-0.78,
5.668,-0.70,2.00,-0.30,-0.14,1.53,-0.78,
5.668,-2.16,0.23,-0.15,-0.14,1.53,-0.78,
5.669,-2.16,0.23,-0.15,-0.14,1.53,-0.78,
5.676,-2.16,0.23,-0.15,0.27,1.69,0.81,
5.677,-2.16,0.23,-0.15,0.27,1.69,0.81,
5.678,-2.49,-2.13,0.05,0.27,1.69,0.81,
5.678,-2.49,-2.13,0.05,0.27,1.69,0.81,
5.704,-2.49,-2.13,0.05,0.41,1.20,2.26,
5.705,-2.49,-2.13,0.05,0.41,1.20,2.26,
5.706,-2.83,-4.59,0.33,0.41,1.20,2.26,
5.706,-2.83,-4.59,0.33,0.41,1.20,2.26,
5.707,-2.83,-4.59,0.33,0.59,0.65,3.50,
5.708,-2.83,-4.59,0.33,0.59,0.65,3.50,
5.708,-2.97,-6.41,0.58,0.59,0.65,3.50,
5.709,-2.97,-6.41,0.58,0.59,0.65,3.50,
5.713,-2.97,-6.41,0.58,0.81,0.63,4.32,
5.714,-2.97,-6.41,0.58,0.81,0.63,4.32,
5.714,-2.81,-6.60,0.65,0.81,0.63,4.32,
5.715,-2.81,-6.60,0.65,0.81,0.63,4.32,
5.715,-2.81,-6.60,0.65,1.23,1.04,4.61,
5.715,-2.81,-6.60,0.65,1.23,1.04,4.61,
5.716,-2.41,-6.32,0.48,1.23,1.04,4.61,
5.716,-2.41,-6.32,0.48,1.23,1.04,4.61,
5.724,-2.41,-6.32,0.48,1.23,1.04,4.61,
5.725,-2.41,-6.32,0.48,1.23,1.04,4.61,
5.725,-2.41,-6.32,0.48,1.23,1.04,4.61,
5.726,-2.41,-6.32,0.48,1.23,1.04,4.61,
5.733,-2.41,-6.32,0.48,1.71,1.18,4.46,
5.735,-2.41,-6.32,0.48,1.71,1.18,4.46,
5.735,-0.45,-1.45,-3.35,1.71,1.18,4.46,
5.736,-0.45,-1.45,-3.35,1.71,1.18,4.46,
5.743,-0.45,-1.45,-3.35,1.84,1.23,4.04,
5.744,-0.45,-1.45,-3.35,1.84,1.23,4.04,
5.745,-0.27,0.88,-3.59,1.84,1.23,4.04,
5.746,-0.27,0.88,-3.59,1.84,1.23,4.04,
5.753,-0.27,0.88,-3.59,1.57,1.32,3.50,
5.754,-0.27,0.88,-3.59,1.57,1.32,3.50,
5.755,-0.13,2.58,-3.39,1.57,1.32,3.50,
5.755,-0.13,2.58,-3.39,1.57,1.32,3.50,
5.762,-0.13,2.58,-3.39,0.99,1.51,2.95,
5.763,-0.13,2.58,-3.39,0.99,1.51,2.95,
5.763,-0.09,3.06,0.36,0.99,1.51,2.95,
5.764,-0.09,3.06,0.36,0.99,1.51,2.95,
5.772,-0.09,3.06,0.36,0.54,1.72,2.48,
5.773,-0.09,3.06,0.36,0.54,1.72,2.48,
5.773,-0.17,3.62,2.28,0.54,1.72,2.48,
5.774,-0.17,3.62,2.28,0.54,1.72,2.48,
5.783,-0.17,3.62,2.28,0.40,1.72,2.13,
5.784,-0.17,3.62,2.28,0.40,1.72,2.13,
5.784,-0.28,4.09,4.06,0.40,1.72,2.13,
5.785,-0.28,4.09,4.06,0.40,1.72,2.13,
5.791,-0.28,4.09,4.06,0.68,1.33,1.90,
5.792,-0.28,4.09,4.06,0.68,1.33,1.90,
5.792,-0.53,4.30,4.25,0.68,1.33,1.90,
5.793,-0.53,4.30,4.25,0.68,1.33,1.90,
5.8,-0.53,4.30,4.25,1.53,1.04,1.74,
5.801,-0.53,4.30,4.25,1.53,1.04,1.74,
5.802,-1.02,4.11,4.08,1.53,1.04,1.74,
5.803,-1.02,4.11,4.08,1.53,1.04,1.74,
5.81,-1.02,4.11,4.08,2.67,0.62,1.69,
5.811,-1.02,4.11,4.08,2.67,0.62,1.69,
5.811,-1.55,2.21,3.60,2.67,0.62,1.69,
5.812,-1.55,2.21,3.60,2.67,0.62,1.69,
5.821,-1.55,2.21,3.60,3.70,-0.07,1.79,
5.822,-1.55,2.21,3.60,3.70,-0.07,1.79,
5.823,-1.83,0.56,3.09,3.70,-0.07,1.79,
5.823,-1.83,0.56,3.09,3.70,-0.07,1.79,
5.829,-1.83,0.56,3.09,4.30,-0.42,1.88,
5.83,-1.83,0.56,3.09,4.30,-0.42,1.88,
5.83,-1.66,-1.15,2.68,4.30,-0.42,1.88,
5.831,-1.66,-1.15,2.68,4.30,-0.42,1.88,
5.838,-1.66,-1.15,2.68,4.31,-0.47,1.85,
5.839,-1.66,-1.15,2.68,4.31,-0.47,1.85,
5.84,0.34,-1.58,2.44,4.31,-0.47,1.85,
5.84,0.34,-1.58,2.44,4.31,-0.47,1.85,
5.849,0.34,-1.58,2.44,3.80,-0.40,1.57,
5.85,0.34,-1.58,2.44,3.80,-0.40,1.57,
5.851,1.95,-2.08,2.35,3.80,-0.40,1.57,
5.851,1.95,-2.08,2.35,3.80,-0.40,1.57,
5.857,1.95,-2.08,2.35,3.01,-0.42,1.00,
5.858,1.95,-2.08,2.35,3.01,-0.42,1.00,
5.859,2.40,-2.32,2.36,3.01,-0.42,1.00,
5.859,2.40,-2.32,2.36,3.01,-0.42,1.00,
5.867,2.40,-2.32,2.36,2.16,-0.65,0.19,
5.868,2.40,-2.32,2.36,2.16,-0.65,0.19,
5.869,3.93,-2.15,2.43,2.16,-0.65,0.19,
5.87,3.93,-2.15,2.43,2.16,-0.65,0.19,
5.876,3.93,-2.15,2.43,1.48,-0.61,-0.71,
5.877,3.93,-2.15,2.43,1.48,-0.61,-0.71,
5.878,4.30,-1.69,2.48,1.48,-0.61,-0.71,
5.879,4.30,-1.69,2.48,1.48,-0.61,-0.71,
5.886,4.30,-1.69,2.48,1.02,-0.11,-1.55,
5.887,4.30,-1.69,2.48,1.02,-0.11,-1.55,
5.888,4.61,-1.11,2.37,1.02,-0.11,-1.55,
5.889,4.61,-1.11,2.37,1.02,-0.11,-1.55,
5.896,4.61,-1.11,2.37,0.75,-0.31,-1.52,
5.896,4.61,-1.11,2.37,0.75,-0.31,-1.52,
5.897,4.80,-0.60,1.91,0.75,-0.31,-1.52,
5.898,4.80,-0.60,1.91,0.75,-0.31,-1.52,
5.906,4.80,-0.60,1.91,0.56,-1.20,-1.41,
5.907,4.80,-0.60,1.91,0.56,-1.20,-1.41,
5.907,4.72,-0.25,0.25,0.56,-1.20,-1.41,
5.908,4.72,-0.25,0.25,0.56,-1.20,-1.41,
5.921,4.72,-0.25,0.25,0.35,-1.90,-1.92,
5.923,4.72,-0.25,0.25,0.35,-1.90,-1.92,
5.923,4.35,-0.07,-1.51,0.35,-1.90,-1.92,
5.924,4.35,-0.07,-1.51,0.35,-1.90,-1.92,
5.924,4.35,-0.07,-1.51,0.35,-1.90,-1.92,
5.925,4.35,-0.07,-1.51,0.35,-1.90,-1.92,
5.926,4.35,-0.07,-1.51,0.35,-1.90,-1.92,
5.926,4.35,-0.07,-1.51,0.35,-1.90,-1.92,
5.937,4.35,-0.07,-1.51,0.04,-2.38,-2.21,
5.938,4.35,-0.07,-1.51,0.04,-2.38,-2.21,
5.939,2.33,-0.04,-1.87,0.04,-2.38,-2.21,
5.939,2.33,-0.04,-1.87,0.04,-2.38,-2.21,
5.943,2.33,-0.04,-1.87,-0.49,-2.62,-2.29,
5.944,2.33,-0.04,-1.87,-0.49,-2.62,-2.29,
5.944,1.80,-0.05,-1.53,-0.49,-2.62,-2.29,
5.945,1.80,-0.05,-1.53,-0.49,-2.62,-2.29,
5.953,1.80,-0.05,-1.53,-1.17,-2.52,-2.09,
5.955,1.80,-0.05,-1.53,-1.17,-2.52,-2.09,
5.956,1.33,0.07,0.27,-1.17,-2.52,-2.09,
5.957,1.33,0.07,0.27,-1.17,-2.52,-2.09,
5.962,1.33,0.07,0.27,-1.76,-2.05,-1.63,
5.963,1.33,0.07,0.27,-1.76,-2.05,-1.63,
5.964,1.01,0.35,0.53,-1.76,-2.05,-1.63,
5.964,1.01,0.35,0.53,-1.76,-2.05,-1.63,
5.972,1.01,0.35,0.53,-1.78,-1.31,-0.99,
5.973,1.01,0.35,0.53,-1.78,-1.31,-0.99,
5.973,0.76,0.72,0.82,-1.78,-1.31,-0.99,
5.974,0.76,0.72,0.82,-1.78,-1.31,-0.99,
5.982,0.76,0.72,0.82,-1.46,-0.53,-0.34,
5.983,0.76,0.72,0.82,-1.46,-0.53,-0.34,
5.983,0.61,1.10,0.91,-1.46,-0.53,-0.34,
5.984,0.61,1.10,0.91,-1.46,-0.53,-0.34,
5.99,0.61,1.10,0.91,-1.13,0.14,0.22,
5.991,0.61,1.10,0.91,-1.13,0.14,0.22,
5.991,0.47,1.36,0.82,-1.13,0.14,0.22,
5.992,0.47,1.36,0.82,-1.13,0.14,0.22,
6.0,0.47,1.36,0.82,-0.73,0.66,0.66,
6.001,0.47,1.36,0.82,-0.73,0.66,0.66,
6.001,0.32,1.46,0.71,-0.73,0.66,0.66,
6.002,0.32,1.46,0.71,-0.73,0.66,0.66,
6.009,0.32,1.46,0.71,-0.36,1.06,1.01,
6.01,0.32,1.46,0.71,-0.36,1.06,1.01,
6.011,0.25,1.45,0.68,-0.36,1.06,1.01,
6.012,0.25,1.45,0.68,-0.36,1.06,1.01,
6.02,0.25,1.45,0.68,-0.09,1.35,0.92,
6.022,0.25,1.45,0.68,-0.09,1.35,0.92,
6.022,0.19,1.41,0.74,-0.09,1.35,0.92,
6.023,0.19,1.41,0.74,-0.09,1.35,0.92,
6.029,0.19,1.41,0.74,0.04,1.56,0.45,
6.03,0.19,1.41,0.74,0.04,1.56,0.45,
6.03,0.22,1.37,0.82,0.04,1.56,0.45,
6.031,0.22,1.37,0.82,0.04,1.56,0.45,
6.038,0.22,1.37,0.82,0.04,1.69,0.10,
6.039,0.22,1.37,0.82,0.04,1.69,0.10,
6.039,0.33,1.33,0.86,0.04,1.69,0.10,
6.04,0.33,1.33,0.86,0.04,1.69,0.10,
6.049,0.33,1.33,0.86,0.11,1.72,0.11,
6.05,0.33,1.33,0.86,0.11,1.72,0.11,
6.051,0.51,1.30,0.84,0.11,1.72,0.11,
6.051,0.51,1.30,0.84,0.11,1.72,0.11,
6.057,0.51,1.30,0.84,0.28,1.67,0.31,
6.058,0.51,1.30,0.84,0.28,1.67,0.31,
6.059,0.74,1.25,0.82,0.28,1.67,0.31,
6.059,0.74,1.25,0.82,0.28,1.67,0.31,
6.067,0.74,1.25,0.82,0.41,1.52,0.39,
6.068,0.74,1.25,0.82,0.41,1.52,0.39,
6.069,0.96,1.13,0.80,0.41,1.52,0.39,
6.07,0.96,1.13,0.80,0.41,1.52,0.39,
6.076,0.96,1.13,0.80,0.49,1.29,0.37,
6.077,0.96,1.13,0.80,0.49,1.29,0.37,
6.078,1.16,0.99,0.79,0.49,1.29,0.37,
6.078,1.16,0.99,0.79,0.49,1.29,0.37,
6.086,1.16,0.99,0.79,0.53,1.00,0.27,
6.087,1.16,0.99,0.79,0.53,1.00,0.27,
6.088,1.28,0.85,0.83,0.53,1.00,0.27,
6.089,1.28,0.85,0.83,0.53,1.00,0.27,
6.095,1.28,0.85,0.83,0.54,0.67,0.11,
6.096,1.28,0.85,0.83,0.54,0.67,0.11,
6.097,1.30,0.74,0.84,0.54,0.67,0.11,
6.097,1.30,0.74,0.84,0.54,0.67,0.11,
6.105,1.30,0.74,0.84,0.54,0.34,-0.06,
6.106,1.30,0.74,0.84,0.54,0.34,-0.06,
6.107,1.19,0.65,0.84,0.54,0.34,-0.06,
6.107,1.19,0.65,0.84,0.54,0.34,-0.06,
6.12,1.19,0.65,0.84,0.54,0.34,-0.06,
6.121,1.19,0.65,0.84,0.54,0.34,-0.06,
6.122,1.19,0.65,0.84,0.54,0.34,-0.06,
6.122,1.19,0.65,0.84,0.54,0.34,-0.06,
6.124,1.19,0.65,0.84,0.52,0.05,-0.21,
6.125,1.19,0.65,0.84,0.52,0.05,-0.21,
6.125,0.83,0.52,0.71,0.52,0.05,-0.21,
6.126,0.83,0.52,0.71,0.52,0.05,-0.21,
6.133,0.83,0.52,0.71,0.51,-0.16,-0.31,
6.134,0.83,0.52,0.71,0.51,-0.16,-0.31,
6.134,0.64,0.42,0.50,0.51,-0.16,-0.31,
6.135,0.64,0.42,0.50,0.51,-0.16,-0.31,
6.143,0.64,0.42,0.50,0.48,-0.26,-0.33,
6.144,0.64,0.42,0.50,0.48,-0.26,-0.33,
6.144,0.59,0.29,0.25,0.48,-0.26,-0.33,
6.145,0.59,0.29,0.25,0.48,-0.26,-0.33,
6.152,0.59,0.29,0.25,0.42,-0.23,-0.29,
6.153,0.59,0.29,0.25,0.42,-0.23,-0.29,
6.154,0.67,0.12,-0.03,0.42,-0.23,-0.29,
6.154,0.67,0.12,-0.03,0.42,-0.23,-0.29,
6.162,0.67,0.12,-0.03,0.31,-0.12,-0.23,
6.163,0.67,0.12,-0.03,0.31,-0.12,-0.23,
6.164,0.87,-0.03,-0.26,0.31,-0.12,-0.23,
6.165,0.87,-0.03,-0.26,0.31,-0.12,-0.23,
6.171,0.87,-0.03,-0.26,0.15,-0.01,-0.18,
6.172,0.87,-0.03,-0.26,0.15,-0.01,-0.18,
6.173,1.19,-0.16,-0.47,0.15,-0.01,-0.18,
6.174,1.19,-0.16,-0.47,0.15,-0.01,-0.18,
6.181,1.19,-0.16,-0.47,-0.05,0.05,-0.19,
6.183,1.19,-0.16,-0.47,-0.05,0.05,-0.19,
6.183,1.51,-0.22,-0.59,-0.05,0.05,-0.19,
6.184,1.51,-0.22,-0.59,-0.05,0.05,-0.19,
6.19,1.51,-0.22,-0.59,-0.26,0.01,-0.26,
6.191,1.51,-0.22,-0.59,-0.26,0.01,-0.26,
6.192,1.83,-0.28,-0.61,-0.26,0.01,-0.26,
6.192,1.83,-0.28,-0.61,-0.26,0.01,-0.26,
6.2,1.83,-0.28,-0.61,-0.46,-0.15,-0.39,
6.201,1.83,-0.28,-0.61,-0.46,-0.15,-0.39,
6.202,2.10,-0.36,-0.55,-0.46,-0.15,-0.39,
6.203,2.10,-0.36,-0.55,-0.46,-0.15,-0.39,
6.209,2.10,-0.36,-0.55,-0.62,-0.40,-0.57,
6.21,2.10,-0.36,-0.55,-0.62,-0.40,-0.57,
6.211,2.31,-0.46,-0.40,-0.62,-0.40,-0.57,
6.212,2.31,-0.46,-0.40,-0.62,-0.40,-0.57,
6.222,2.31,-0.46,-0.40,-0.70,-0.74,-0.77,
6.223,2.31,-0.46,-0.40,-0.70,-0.74,-0.77,
6.224,2.47,-0.61,-0.31,-0.70,-0.74,-0.77,
6.225,2.47,-0.61,-0.31,-0.70,-0.74,-0.77,
6.229,2.47,-0.61,-0.31,-0.71,-1.12,-0.95,
6.229,2.47,-0.61,-0.31,-0.71,-1.12,-0.95,
6.23,2.57,-0.75,-0.27,-0.71,-1.12,-0.95,
6.23,2.57,-0.75,-0.27,-0.71,-1.12,-0.95,
6.238,2.57,-0.75,-0.27,-0.64,-1.50,-1.10,
6.239,2.57,-0.75,-0.27,-0.64,-1.50,-1.10,
6.239,2.66,-0.87,-0.35,-0.64,-1.50,-1.10,
6.239,2.66,-0.87,-0.35,-0.64,-1.50,-1.10,
6.248,2.66,-0.87,-0.35,-0.54,-1.85,-1.21,
6.249,2.66,-0.87,-0.35,-0.54,-1.85,-1.21,
6.25,2.76,-0.96,-0.53,-0.54,-1.85,-1.21,
6.251,2.76,-0.96,-0.53,-0.54,-1.85,-1.21,
6.257,2.76,-0.96,-0.53,-0.44,-2.12,-1.28,
6.258,2.76,-0.96,-0.53,-0.44,-2.12,-1.28,
6.259,2.87,-1.03,-0.82,-0.44,-2.12,-1.28,
6.259,2.87,-1.03,-0.82,-0.44,-2.12,-1.28,
6.266,2.87,-1.03,-0.82,-0.37,-2.31,-1.30,
6.268,2.87,-1.03,-0.82,-0.37,-2.31,-1.30,
6.268,2.93,-1.05,-1.22,-0.37,-2.31,-1.30,
6.269,2.93,-1.05,-1.22,-0.37,-2.31,-1.30,
6.276,2.93,-1.05,-1.22,-0.36,-2.42,-1.31,
6.277,2.93,-1.05,-1.22,-0.36,-2.42,-1.31,
6.278,2.87,-1.16,-1.78,-0.36,-2.42,-1.31,
6.278,2.87,-1.16,-1.78,-0.36,-2.42,-1.31,
6.286,2.87,-1.16,-1.78,-0.43,-2.47,-1.29,
6.287,2.87,-1.16,-1.78,-0.43,-2.47,-1.29,
6.288,2.63,-1.40,-3.35,-0.43,-2.47,-1.29,
6.288,2.63,-1.40,-3.35,-0.43,-2.47,-1.29,
6.296,2.63,-1.40,-3.35,-0.61,-2.45,-1.25,
6.296,2.63,-1.40,-3.35,-0.61,-2.45,-1.25,
6.297,2.35,-1.77,-5.33,-0.61,-2.45,-1.25,
6.298,2.35,-1.77,-5.33,-0.61,-2.45,-1.25,
6.305,2.35,-1.77,-5.33,-1.01,-2.34,-1.17,
6.306,2.35,-1.77,-5.33,-1.01,-2.34,-1.17,
6.306,2.11,-2.26,-5.82,-1.01,-2.34,-1.17,
6.307,2.11,-2.26,-5.82,-1.01,-2.34,-1.17,
6.319,2.11,-2.26,-5.82,-1.01,-2.34,-1.17,
6.32,2.11,-2.26,-5.82,-1.01,-2.34,-1.17,
6.321,2.11,-2.26,-5.82,-1.01,-2.34,-1.17,
6.322,2.11,-2.26,-5.82,-1.01,-2.34,-1.17,
6.324,2.11,-2.26,-5.82,-1.66,-2.11,-1.02,
6.324,2.11,-2.26,-5.82,-1.66,-2.11,-1.02,
6.325,1.95,-3.00,-7.77,-1.66,-2.11,-1.02,
6.325,1.95,-3.00,-7.77,-1.66,-2.11,-1.02,
6.335,1.95,-3.00,-7.77,-2.49,-1.71,-0.81,
6.335,1.95,-3.00,-7.77,-2.49,-1.71,-0.81,
6.336,1.86,-3.28,-7.83,-2.49,-1.71,-0.81,
6.336,1.86,-3.28,-7.83,-2.49,-1.71,-0.81,
6.343,1.86,-3.28,-7.83,-3.35,-1.13,-0.53,
6.344,1.86,-3.28,-7.83,-3.35,-1.13,-0.53,
6.344,1.69,-3.56,-7.53,-3.35,-1.13,-0.53,
6.345,1.69,-3.56,-7.53,-3.35,-1.13,-0.53,
6.352,1.69,-3.56,-7.53,-4.05,-0.35,-0.19,
6.353,1.69,-3.56,-7.53,-4.05,-0.35,-0.19,
6.354,1.42,-3.80,-6.93,-4.05,-0.35,-0.19,
6.355,1.42,-3.80,-6.93,-4.05,-0.35,-0.19,
6.361,1.42,-3.80,-6.93,-4.45,0.58,0.20,
6.362,1.42,-3.80,-6.93,-4.45,0.58,0.20,
6.363,1.06,-3.96,-5.31,-4.45,0.58,0.20,
6.364,1.06,-3.96,-5.31,-4.45,0.58,0.20,
6.371,1.06,-3.96,-5.31,-4.45,1.47,0.60,
6.372,1.06,-3.96,-5.31,-4.45,1.47,0.60,
6.373,0.62,-4.03,-3.55,-4.45,1.47,0.60,
6.374,0.62,-4.03,-3.55,-4.45,1.47,0.60,
6.381,0.62,-4.03,-3.55,-4.02,2.07,0.94,
6.382,0.62,-4.03,-3.55,-4.02,2.07,0.94,
6.383,0.11,-4.08,-1.96,-4.02,2.07,0.94,
6.384,0.11,-4.08,-1.96,-4.02,2.07,0.94,
6.39,0.11,-4.08,-1.96,-3.21,2.22,1.15,
6.391,0.11,-4.08,-1.96,-3.21,2.22,1.15,
6.392,-0.42,-4.24,0.10,-3.21,2.22,1.15,
6.392,-0.42,-4.24,0.10,-3.21,2.22,1.15,
6.4,-0.42,-4.24,0.10,-2.12,1.99,1.26,
6.401,-0.42,-4.24,0.10,-2.12,1.99,1.26,
6.401,-0.94,-4.46,2.33,-2.12,1.99,1.26,
6.402,-0.94,-4.46,2.33,-2.12,1.99,1.26,
6.409,-0.94,-4.46,2.33,-0.85,1.59,1.35,
6.41,-0.94,-4.46,2.33,-0.85,1.59,1.35,
6.411,-1.39,-4.71,4.22,-0.85,1.59,1.35,
6.412,-1.39,-4.71,4.22,-0.85,1.59,1.35,
6.421,-1.39,-4.71,4.22,0.53,1.15,1.45,
6.422,-1.39,-4.71,4.22,0.53,1.15,1.45,
6.423,-1.82,-4.84,4.78,0.53,1.15,1.45,
6.424,-1.82,-4.84,4.78,0.53,1.15,1.45,
6.432,-1.82,-4.84,4.78,1.92,0.78,1.59,
6.434,-1.82,-4.84,4.78,1.92,0.78,1.59,
6.434,-2.14,-4.69,6.27,1.92,0.78,1.59,
6.435,-2.14,-4.69,6.27,1.92,0.78,1.59,
6.439,-2.14,-4.69,6.27,3.16,0.50,1.73,
6.44,-2.14,-4.69,6.27,3.16,0.50,1.73,
6.441,-2.24,-4.21,6.31,3.16,0.50,1.73,
6.441,-2.24,-4.21,6.31,3.16,0.50,1.73,
6.449,-2.24,-4.21,6.31,4.13,0.32,1.84,
6.449,-2.24,-4.21,6.31,4.13,0.32,1.84,
6.45,-2.11,-2.69,4.61,4.13,0.32,1.84,
6.45,-2.11,-2.69,4.61,4.13,0.32,1.84,
6.456,-2.11,-2.69,4.61,4.74,0.24,1.89,
6.457,-2.11,-2.69,4.61,4.74,0.24,1.89,
6.457,-1.69,-2.17,1.77,4.74,0.24,1.89,
6.457,-1.69,-2.17,1.77,4.74,0.24,1.89,
6.466,-1.69,-2.17,1.77,4.91,0.23,1.85,
6.467,-1.69,-2.17,1.77,4.91,0.23,1.85,
6.467,-0.25,-1.61,-1.21,4.91,0.23,1.85,
6.467,-0.25,-1.61,-1.21,4.91,0.23,1.85,
6.476,-0.25,-1.61,-1.21,4.54,0.29,1.69,
6.476,-0.25,-1.61,-1.21,4.54,0.29,1.69,
6.477,0.06,-1.25,-3.38,4.54,0.29,1.69,
6.477,0.06,-1.25,-3.38,4.54,0.29,1.69,
6.486,0.06,-1.25,-3.38,3.61,0.39,1.38,
6.487,0.06,-1.25,-3.38,3.61,0.39,1.38,
6.488,0.35,-1.09,-3.55,3.61,0.39,1.38,
6.489,0.35,-1.09,-3.55,3.61,0.39,1.38,
6.495,0.35,-1.09,-3.55,2.28,0.49,0.95,
6.496,0.35,-1.09,-3.55,2.28,0.49,0.95,
6.496,0.44,-1.10,-3.42,2.28,0.49,0.95,
6.497,0.44,-1.10,-3.42,2.28,0.49,0.95,
6.505,0.44,-1.10,-3.42,0.82,0.56,0.46,
6.506,0.44,-1.10,-3.42,0.82,0.56,0.46,
6.506,0.29,-1.15,-1.57,0.82,0.56,0.46,
6.507,0.29,-1.15,-1.57,0.82,0.56,0.46,
6.52,0.29,-1.15,-1.57,0.82,0.56,0.46,
6.522,0.29,-1.15,-1.57,0.82,0.56,0.46,
6.522,0.29,-1.15,-1.57,0.82,0.56,0.46,
6.523,0.29,-1.15,-1.57,0.82,0.56,0.46,
6.523,0.29,-1.15,-1.57,-0.42,0.58,0.01,
6.524,0.29,-1.15,-1.57,-0.42,0.58,0.01,
6.524,-0.22,-1.09,-0.49,-0.42,0.58,0.01,
6.525,-0.22,-1.09,-0.49,-0.42,0.58,0.01,
6.535,-0.22,-1.09,-0.49,-1.18,0.51,-0.31,
6.536,-0.22,-1.09,-0.49,-1.18,0.51,-0.31,
6.536,-0.56,-0.87,0.09,-1.18,0.51,-0.31,
6.537,-0.56,-0.87,0.09,-1.18,0.51,-0.31,
6.543,-0.56,-0.87,0.09,-1.40,0.36,-0.48,
6.544,-0.56,-0.87,0.09,-1.40,0.36,-0.48,
6.544,-0.90,-0.46,0.37,-1.40,0.36,-0.48,
6.545,-0.90,-0.46,0.37,-1.40,0.36,-0.48,
6.552,-0.90,-0.46,0.37,-1.22,0.17,-0.50,
6.553,-0.90,-0.46,0.37,-1.22,0.17,-0.50,
6.554,-1.26,0.12,0.46,-1.22,0.17,-0.50,
6.555,-1.26,0.12,0.46,-1.22,0.17,-0.50,
6.561,-1.26,0.12,0.46,-0.85,0.02,-0.40,
6.562,-1.26,0.12,0.46,-0.85,0.02,-0.40,
6.563,-1.56,1.59,0.40,-0.85,0.02,-0.40,
6.563,-1.56,1.59,0.40,-0.85,0.02,-0.40,
6.571,-1.56,1.59,0.40,-0.47,-0.07,-0.20,
6.572,-1.56,1.59,0.40,-0.47,-0.07,-0.20,
6.572,-1.81,2.02,0.39,-0.47,-0.07,-0.20,
6.573,-1.81,2.02,0.39,-0.47,-0.07,-0.20,
6.581,-1.81,2.02,0.39,-0.16,-0.11,0.04,
6.582,-1.81,2.02,0.39,-0.16,-0.11,0.04,
6.583,-2.07,2.57,0.48,-0.16,-0.11,0.04,
6.584,-2.07,2.57,0.48,-0.16,-0.11,0.04,
6.59,-2.07,2.57,0.48,0.09,-0.11,0.33,
6.591,-2.07,2.57,0.48,0.09,-0.11,0.33,
6.592,-2.31,3.13,0.70,0.09,-0.11,0.33,
6.592,-2.31,3.13,0.70,0.09,-0.11,0.33,
6.599,-2.31,3.13,0.70,0.28,-0.08,0.63,
6.6,-2.31,3.13,0.70,0.28,-0.08,0.63,
6.6,-2.54,3.65,1.02,0.28,-0.08,0.63,
6.601,-2.54,3.65,1.02,0.28,-0.08,0.63,
6.609,-2.54,3.65,1.02,0.46,-0.06,0.94,
6.61,-2.54,3.65,1.02,0.46,-0.06,0.94,
6.61,-2.73,4.08,1.43,0.46,-0.06,0.94,
6.611,-2.73,4.08,1.43,0.46,-0.06,0.94,
6.62,-2.73,4.08,1.43,0.67,-0.05,1.27,
6.621,-2.73,4.08,1.43,0.67,-0.05,1.27,
6.621,-2.88,4.38,1.85,0.67,-0.05,1.27,
6.622,-2.88,4.38,1.85,0.67,-0.05,1.27,
6.628,-2.88,4.38,1.85,0.96,-0.07,1.61,
6.629,-2.88,4.38,1.85,0.96,-0.07,1.61,
6.629,-2.99,4.60,2.19,0.96,-0.07,1.61,
6.63,-2.99,4.60,2.19,0.96,-0.07,1.61,
6.637,-2.99,4.60,2.19,1.32,-0.12,1.95,
6.639,-2.99,4.60,2.19,1.32,-0.12,1.95,
6.639,-3.08,4.72,2.38,1.32,-0.12,1.95,
6.639,-3.08,4.72,2.38,1.32,-0.12,1.95,
6.648,-3.08,4.72,2.38,1.74,-0.22,2.27,
6.649,-3.08,4.72,2.38,1.74,-0.22,2.27,
6.65,-3.17,4.77,2.44,1.74,-0.22,2.27,
6.651,-3.17,4.77,2.44,1.74,-0.22,2.27,
6.658,-3.17,4.77,2.44,2.14,-0.34,2.05,
6.659,-3.17,4.77,2.44,2.14,-0.34,2.05,
6.66,-3.22,4.77,2.32,2.14,-0.34,2.05,
6.66,-3.22,4.77,2.32,2.14,-0.34,2.05,
6.666,-3.22,4.77,2.32,2.08,-0.44,1.87,
6.667,-3.22,4.77,2.32,2.08,-0.44,1.87,
6.667,-3.25,4.68,2.05,2.08,-0.44,1.87,
6.668,-3.25,4.68,2.05,2.08,-0.44,1.87,
6.675,-3.25,4.68,2.05,1.93,-0.49,2.20,
6.676,-3.25,4.68,2.05,1.93,-0.49,2.20,
6.677,-3.28,4.51,1.71,1.93,-0.49,2.20,
6.678,-3.28,4.51,1.71,1.93,-0.49,2.20,
6.703,-3.28,4.51,1.71,2.03,-0.50,2.42,
6.705,-3.28,4.51,1.71,2.03,-0.50,2.42,
6.705,-3.28,4.27,1.34,2.03,-0.50,2.42,
6.706,-3.28,4.27,1.34,2.03,-0.50,2.42,
6.707,-3.28,4.27,1.34,2.03,-0.50,2.42,
6.707,-3.28,4.27,1.34,2.03,-0.50,2.42,
6.708,-3.28,4.27,1.34,2.03,-0.50,2.42,
6.708,-3.28,4.27,1.34,2.03,-0.50,2.42,
6.709,-3.28,4.27,1.34,1.91,-0.44,2.54,
6.71,-3.28,4.27,1.34,1.91,-0.44,2.54,
6.71,-3.18,3.80,0.85,1.91,-0.44,2.54,
6.711,-3.18,3.80,0.85,1.91,-0.44,2.54,
6.724,-3.18,3.80,0.85,1.59,-0.34,2.54,
6.725,-3.18,3.80,0.85,1.59,-0.34,2.54,
6.726,-2.95,3.60,0.66,1.59,-0.34,2.54,
6.726,-2.95,3.60,0.66,1.59,-0.34,2.54,
6.727,-2.95,3.60,0.66,1.11,-0.30,2.42,
6.727,-2.95,3.60,0.66,1.11,-0.30,2.42,
6.727,-2.66,3.39,0.41,1.11,-0.30,2.42,
6.728,-2.66,3.39,0.41,1.11,-0.30,2.42,
6.732,-2.66,3.39,0.41,0.55,-0.35,2.17,
6.733,-2.66,3.39,0.41,0.55,-0.35,2.17,
6.734,-2.29,3.11,-0.02,0.55,-0.35,2.17,
6.734,-2.29,3.11,-0.02,0.55,-0.35,2.17,
6.742,-2.29,3.11,-0.02,-0.02,-0.26,1.82,
6.744,-2.29,3.11,-0.02,-0.02,-0.26,1.82,
6.745,-1.92,2.62,-1.84,-0.02,-0.26,1.82,
6.747,-1.92,2.62,-1.84,-0.02,-0.26,1.82,
6.752,-1.92,2.62,-1.84,-0.60,-0.03,1.36,
6.755,-1.92,2.62,-1.84,-0.60,-0.03,1.36,
6.756,-1.55,0.96,-3.76,-0.60,-0.03,1.36,
6.757,-1.55,0.96,-3.76,-0.60,-0.03,1.36,
6.761,-1.55,0.96,-3.76,-1.38,0.27,0.81,
6.762,-1.55,0.96,-3.76,-1.38,0.27,0.81,
6.762,-1.13,-2.10,-6.19,-1.38,0.27,0.81,
6.763,-1.13,-2.10,-6.19,-1.38,0.27,0.81,
6.771,-1.13,-2.10,-6.19,-2.53,0.72,0.11,
6.772,-1.13,-2.10,-6.19,-2.53,0.72,0.11,
6.773,0.77,-5.38,-9.06,-2.53,0.72,0.11,
6.773,0.77,-5.38,-9.06,-2.53,0.72,0.11,
6.781,0.77,-5.38,-9.06,-4.08,1.23,-0.81,
6.782,0.77,-5.38,-9.06,-4.08,1.23,-0.81,
6.783,3.54,-8.42,-10.82,-4.08,1.23,-0.81,
6.783,3.54,-8.42,-10.82,-4.08,1.23,-0.81,
6.79,3.54,-8.42,-10.82,-5.71,1.52,-2.01,
6.791,3.54,-8.42,-10.82,-5.71,1.52,-2.01,
6.792,7.17,-8.93,-12.79,-5.71,1.52,-2.01,
6.793,7.17,-8.93,-12.79,-5.71,1.52,-2.01,
6.799,7.17,-8.93,-12.79,-6.98,1.23,-3.49,
6.8,7.17,-8.93,-12.79,-6.98,1.23,-3.49,
6.8,9.21,-9.04,-12.88,-6.98,1.23,-3.49,
6.8,9.21,-9.04,-12.88,-6.98,1.23,-3.49,
6.809,9.21,-9.04,-12.88,-7.59,0.21,-5.17,
6.81,9.21,-9.04,-12.88,-7.59,0.21,-5.17,
6.81,10.79,-6.63,-10.87,-7.59,0.21,-5.17,
6.811,10.79,-6.63,-10.87,-7.59,0.21,-5.17,
6.82,10.79,-6.63,-10.87,-7.46,-1.34,-6.83,
6.821,10.79,-6.63,-10.87,-7.46,-1.34,-6.83,
6.822,8.89,-3.76,-8.02,-7.46,-1.34,-6.83,
6.822,8.89,-3.76,-8.02,-7.46,-1.34,-6.83,
6.829,8.89,-3.76,-8.02,-6.67,-2.94,-8.19,
6.83,8.89,-3.76,-8.02,-6.67,-2.94,-8.19,
6.83,5.65,-1.43,-5.13,-6.67,-2.94,-8.19,
6.83,5.65,-1.43,-5.13,-6.67,-2.94,-8.19,
6.841,5.65,-1.43,-5.13,-5.47,-4.08,-8.89,
6.841,5.65,-1.43,-5.13,-5.47,-4.08,-8.89,
6.842,2.52,0.16,-2.88,-5.47,-4.08,-8.89,
6.842,2.52,0.16,-2.88,-5.47,-4.08,-8.89,
6.848,2.52,0.16,-2.88,-4.18,-4.40,-8.70,
6.849,2.52,0.16,-2.88,-4.18,-4.40,-8.70,
6.85,0.37,0.50,-1.21,-4.18,-4.40,-8.70,
6.85,0.37,0.50,-1.21,-4.18,-4.40,-8.70,
6.857,0.37,0.50,-1.21,-3.00,-3.85,-7.57,
6.858,0.37,0.50,-1.21,-3.00,-3.85,-7.57,
6.859,-1.21,0.73,-0.86,-3.00,-3.85,-7.57,
6.859,-1.21,0.73,-0.86,-3.00,-3.85,-7.57,
6.866,-1.21,0.73,-0.86,-1.97,-2.60,-5.66,
6.867,-1.21,0.73,-0.86,-1.97,-2.60,-5.66,
6.868,-1.58,0.38,-0.31,-1.97,-2.60,-5.66,
6.868,-1.58,0.38,-0.31,-1.97,-2.60,-5.66,
6.875,-1.58,0.38,-0.31,-1.03,-0.94,-3.30,
6.876,-1.58,0.38,-0.31,-1.03,-0.94,-3.30,
6.877,-3.09,-1.54,0.12,-1.03,-0.94,-3.30,
6.878,-3.09,-1.54,0.12,-1.03,-0.94,-3.30,
6.885,-3.09,-1.54,0.12,-0.05,0.77,-0.91,
6.886,-3.09,-1.54,0.12,-0.05,0.77,-0.91,
6.887,-3.18,-3.13,0.27,-0.05,0.77,-0.91,
6.888,-3.18,-3.13,0.27,-0.05,0.77,-0.91,
6.897,-3.18,-3.13,0.27,1.01,2.24,1.22,
6.898,-3.18,-3.13,0.27,1.01,2.24,1.22,
6.899,-2.97,-3.40,0.18,1.01,2.24,1.22,
6.899,-2.97,-3.40,0.18,1.01,2.24,1.22,
6.904,-2.97,-3.40,0.18,1.01,2.24,1.22,
6.906,-2.97,-3.40,0.18,1.01,2.24,1.22,
6.906,-2.97,-3.40,0.18,1.01,2.24,1.22,
6.907,-2.97,-3.40,0.18,1.01,2.24,1.22,
6.915,-2.97,-3.40,0.18,2.06,3.22,2.86,
6.917,-2.97,-3.40,0.18,2.06,3.22,2.86,
6.918,-2.22,-2.88,-0.03,2.06,3.22,2.86,
6.919,-2.22,-2.88,-0.03,2.06,3.22,2.86,
6.923,-2.22,-2.88,-0.03,2.89,3.68,3.87,
6.924,-2.22,-2.88,-0.03,2.89,3.68,3.87,
6.925,-1.92,-1.37,-0.16,2.89,3.68,3.87,
6.925,-1.92,-1.37,-0.16,2.89,3.68,3.87,
6.936,-1.92,-1.37,-0.16,3.38,3.75,4.27,
6.937,-1.92,-1.37,-0.16,3.38,3.75,4.27,
6.938,-1.57,-0.97,-3.42,3.38,3.75,4.27,
6.939,-1.57,-0.97,-3.42,3.38,3.75,4.27,
6.942,-1.57,-0.97,-3.42,3.48,3.66,4.26,
6.943,-1.57,-0.97,-3.42,3.48,3.66,4.26,
6.943,-0.93,-0.54,-5.12,3.48,3.66,4.26,
6.944,-0.93,-0.54,-5.12,3.48,3.66,4.26,
6.955,-0.93,-0.54,-5.12,3.13,3.60,4.02,
6.956,-0.93,-0.54,-5.12,3.13,3.60,4.02,
6.956,0.66,-0.16,-6.61,3.13,3.60,4.02,
6.956,0.66,-0.16,-6.61,3.13,3.60,4.02,
6.961,0.66,-0.16,-6.61,2.33,3.68,3.65,
6.961,0.66,-0.16,-6.61,2.33,3.68,3.65,
6.962,1.05,0.22,-6.30,2.33,3.68,3.65,
6.962,1.05,0.22,-6.30,2.33,3.68,3.65,
6.971,1.05,0.22,-6.30,1.21,3.85,3.14,
6.972,1.05,0.22,-6.30,1.21,3.85,3.14,
6.973,1.27,0.67,-1.51,1.21,3.85,3.14,
6.974,1.27,0.67,-1.51,1.21,3.85,3.14,
6.98,1.27,0.67,-1.51,0.17,3.90,2.52,
6.981,1.27,0.67,-1.51,0.17,3.90,2.52,
6.981,1.19,1.22,0.60,0.17,3.90,2.52,
6.981,1.19,1.22,0.60,0.17,3.90,2.52,
6.99,1.19,1.22,0.60,-0.23,3.54,1.87,
6.991,1.19,1.22,0.60,-0.23,3.54,1.87,
6.991,1.10,1.88,2.33,-0.23,3.54,1.87,
6.992,1.10,1.88,2.33,-0.23,3.54,1.87,
7.0,1.10,1.88,2.33,0.09,3.09,1.50,
7.001,1.10,1.88,2.33,0.09,3.09,1.50,
7.002,1.03,2.41,2.36,0.09,3.09,1.50,
7.003,1.03,2.41,2.36,0.09,3.09,1.50,
7.008,1.03,2.41,2.36,0.89,2.29,1.24,
7.009,1.03,2.41,2.36,0.89,2.29,1.24,
7.01,0.99,2.59,2.13,0.89,2.29,1.24,
7.01,0.99,2.59,2.13,0.89,2.29,1.24,
7.02,0.99,2.59,2.13,1.92,1.11,0.92,
7.022,0.99,2.59,2.13,1.92,1.11,0.92,
7.022,1.03,2.27,1.97,1.92,1.11,0.92,
7.023,1.03,2.27,1.97,1.92,1.11,0.92,
7.027,1.03,2.27,1.97,2.81,0.26,0.74,
7.028,1.03,2.27,1.97,2.81,0.26,0.74,
7.029,1.12,0.65,2.16,2.81,0.26,0.74,
7.029,1.12,0.65,2.16,2.81,0.26,0.74,
7.038,1.12,0.65,2.16,3.38,-0.28,0.61,
7.039,1.12,0.65,2.16,3.38,-0.28,0.61,
7.039,1.38,-0.86,2.66,3.38,-0.28,0.61,
7.04,1.38,-0.86,2.66,3.38,-0.28,0.61,
7.047,1.38,-0.86,2.66,3.61,-0.65,0.44,
7.048,1.38,-0.86,2.66,3.61,-0.65,0.44,
7.049,1.76,-1.37,3.24,3.61,-0.65,0.44,
7.049,1.76,-1.37,3.24,3.61,-0.65,0.44,
7.057,1.76,-1.37,3.24,3.58,-0.96,0.17,
7.057,1.76,-1.37,3.24,3.58,-0.96,0.17,
7.058,2.24,-1.74,3.84,3.58,-0.96,0.17,
7.059,2.24,-1.74,3.84,3.58,-0.96,0.17,
7.066,2.24,-1.74,3.84,3.43,-1.27,-0.17,
7.067,2.24,-1.74,3.84,3.43,-1.27,-0.17,
7.067,2.68,-1.78,4.12,3.43,-1.27,-0.17,
7.068,2.68,-1.78,4.12,3.43,-1.27,-0.17,
7.076,2.68,-1.78,4.12,3.24,-1.59,-0.54,
7.077,2.68,-1.78,4.12,3.24,-1.59,-0.54,
7.077,2.94,-1.55,3.95,3.24,-1.59,-0.54,
7.078,2.94,-1.55,3.95,3.24,-1.59,-0.54,
7.085,2.94,-1.55,3.95,3.07,-1.89,-0.86,
7.087,2.94,-1.55,3.95,3.07,-1.89,-0.86,
7.088,3.06,-1.24,3.39,3.07,-1.89,-0.86,
7.089,3.06,-1.24,3.39,3.07,-1.89,-0.86,
7.095,3.06,-1.24,3.39,2.74,-2.14,-0.86,
7.096,3.06,-1.24,3.39,2.74,-2.14,-0.86,
7.097,3.07,-0.91,1.50,2.74,-2.14,-0.86,
7.097,3.07,-0.91,1.50,2.74,-2.14,-0.86,
7.104,3.07,-0.91,1.50,2.74,-2.14,-0.86,
7.105,3.07,-0.91,1.50,2.74,-2.14,-0.86,
7.106,3.07,-0.91,1.50,2.74,-2.14,-0.86,
7.106,3.07,-0.91,1.50,2.74,-2.14,-0.86,
7.12,3.07,-0.91,1.50,2.33,-2.29,-0.81,
7.121,3.07,-0.91,1.50,2.33,-2.29,-0.81,
7.122,2.88,-0.48,-2.04,2.33,-2.29,-0.81,
7.123,2.88,-0.48,-2.04,2.33,-2.29,-0.81,
7.123,2.88,-0.48,-2.04,1.80,-2.32,-1.00,
7.124,2.88,-0.48,-2.04,1.80,-2.32,-1.00,
7.124,2.46,-0.30,-2.40,1.80,-2.32,-1.00,
7.125,2.46,-0.30,-2.40,1.80,-2.32,-1.00,
7.138,2.46,-0.30,-2.40,0.89,-2.22,-1.09,
7.139,2.46,-0.30,-2.40,0.89,-2.22,-1.09,
