
time,ax,ay,az,wx,wy,wz,
0.003,0.12,0.16,0.94,-0.11,-0.02,-0.03,
0.004,0.12,0.16,0.94,-0.11,-0.02,-0.03,
0.004,0.05,0.13,0.52,-0.11,-0.02,-0.03,
0.004,0.05,0.13,0.52,-0.11,-0.02,-0.03,
0.005,0.05,0.13,0.52,-0.11,-0.06,0.01,
0.005,0.05,0.13,0.52,-0.11,-0.06,0.01,
0.005,-0.01,0.08,0.12,-0.11,-0.06,0.01,
0.006,-0.01,0.08,0.12,-0.11,-0.06,0.01,
0.012,-0.01,0.08,0.12,-0.08,-0.08,0.04,
0.012,-0.01,0.08,0.12,-0.08,-0.08,0.04,
0.013,-0.08,0.06,-0.09,-0.08,-0.08,0.04,
0.013,-0.08,0.06,-0.09,-0.08,-0.08,0.04,
0.026,-0.08,0.06,-0.09,-0.04,-0.07,0.06,
0.027,-0.08,0.06,-0.09,-0.04,-0.07,0.06,
0.027,-0.11,0.09,-0.08,-0.04,-0.07,0.06,
0.028,-0.11,0.09,-0.08,-0.04,-0.07,0.06,
0.031,-0.11,0.09,-0.08,-0.04,-0.07,0.06,
0.031,-0.11,0.09,-0.08,-0.04,-0.07,0.06,
0.031,-0.11,0.09,-0.08,-0.04,-0.07,0.06,
0.032,-0.11,0.09,-0.08,-0.04,-0.07,0.06,
0.04,-0.11,0.09,-0.08,0.01,-0.03,0.08,
0.041,-0.11,0.09,-0.08,0.01,-0.03,0.08,
0.041,-0.01,0.19,0.32,0.01,-0.03,0.08,
0.041,-0.01,0.19,0.32,0.01,-0.03,0.08,
0.051,-0.01,0.19,0.32,0.05,0.00,0.09,
0.052,-0.01,0.19,0.32,0.05,0.00,0.09,
0.052,0.08,0.25,0.46,0.05,0.00,0.09,
0.053,0.08,0.25,0.46,0.05,0.00,0.09,
0.059,0.08,0.25,0.46,0.09,0.02,0.08,
0.06,0.08,0.25,0.46,0.09,0.02,0.08,
0.061,0.15,0.27,0.46,0.09,0.02,0.08,
0.061,0.15,0.27,0.46,0.09,0.02,0.08,
0.068,0.15,0.27,0.46,0.11,0.01,0.07,
0.069,0.15,0.27,0.46,0.11,0.01,0.07,
0.07,0.14,0.25,0.34,0.11,0.01,0.07,
0.07,0.14,0.25,0.34,0.11,0.01,0.07,
0.078,0.14,0.25,0.34,0.12,-0.01,0.07,
0.079,0.14,0.25,0.34,0.12,-0.01,0.07,
0.08,0.08,0.20,0.18,0.12,-0.01,0.07,
0.08,0.08,0.20,0.18,0.12,-0.01,0.07,
0.094,0.08,0.20,0.18,0.13,-0.04,0.08,
0.095,0.08,0.20,0.18,0.13,-0.04,0.08,
0.096,-0.02,0.13,0.05,0.13,-0.04,0.08,
0.096,-0.02,0.13,0.05,0.13,-0.04,0.08,
0.097,-0.02,0.13,0.05,0.13,-0.06,0.08,
0.098,-0.02,0.13,0.05,0.13,-0.06,0.08,
0.098,-0.11,0.07,0.03,0.13,-0.06,0.08,
0.099,-0.11,0.07,0.03,0.13,-0.06,0.08,
0.108,-0.11,0.07,0.03,0.13,-0.06,0.06,
0.109,-0.11,0.07,0.03,0.13,-0.06,0.06,
0.11,-0.10,0.07,0.10,0.13,-0.06,0.06,
0.11,-0.10,0.07,0.10,0.13,-0.06,0.06,
0.119,-0.10,0.07,0.10,0.11,-0.03,0.03,
0.119,-0.10,0.07,0.10,0.11,-0.03,0.03,
0.12,-0.05,0.08,0.20,0.11,-0.03,0.03,
0.12,-0.05,0.08,0.20,0.11,-0.03,0.03,
0.126,-0.05,0.08,0.20,0.09,0.00,-0.00,
0.127,-0.01,0.11,0.25,0.09,0.00,-0.00,
0.127,-0.01,0.11,0.25,0.09,0.00,-0.00,
0.127,-0.01,0.11,0.25,0.09,0.00,-0.00,
0.135,-0.01,0.11,0.25,0.06,0.03,-0.03,
0.136,-0.01,0.11,0.25,0.06,0.03,-0.03,
0.136,0.01,0.13,0.27,0.06,0.03,-0.03,
0.136,0.01,0.13,0.27,0.06,0.03,-0.03,
0.144,0.01,0.13,0.27,0.04,0.04,-0.04,
0.145,0.01,0.13,0.27,0.04,0.04,-0.04,
0.146,-0.01,0.13,0.26,0.04,0.04,-0.04,
0.146,-0.01,0.13,0.26,0.04,0.04,-0.04,
0.153,-0.01,0.13,0.26,0.02,0.03,-0.04,
0.155,-0.01,0.13,0.26,0.02,0.03,-0.04,
0.155,-0.06,0.13,0.23,0.02,0.03,-0.04,
0.156,-0.06,0.13,0.23,0.02,0.03,-0.04,
0.164,-0.06,0.13,0.23,0.02,0.03,-0.03,
0.165,-0.06,0.13,0.23,0.02,0.03,-0.03,
0.167,-0.09,0.13,0.21,0.02,0.03,-0.03,
0.167,-0.09,0.13,0.21,0.02,0.03,-0.03,
0.182,-0.09,0.13,0.21,0.02,0.02,-0.02,
0.183,-0.09,0.13,0.21,0.02,0.02,-0.02,
0.183,-0.08,0.11,0.16,0.02,0.02,-0.02,
0.184,-0.08,0.11,0.16,0.02,0.02,-0.02,
0.184,-0.08,0.11,0.16,0.01,0.03,-0.03,
0.185,-0.08,0.11,0.16,0.01,0.03,-0.03,
0.185,-0.08,0.08,0.07,0.01,0.03,-0.03,
0.186,-0.08,0.08,0.07,0.01,0.03,-0.03,
0.192,-0.08,0.08,0.07,0.02,0.03,-0.03,
0.193,-0.08,0.08,0.07,0.02,0.03,-0.03,
0.193,-0.06,0.04,0.01,0.02,0.03,-0.03,
0.194,-0.06,0.04,0.01,0.02,0.03,-0.03,
0.201,-0.06,0.04,0.01,0.01,0.04,-0.03,
0.202,-0.06,0.04,0.01,0.01,0.04,-0.03,
0.202,-0.05,0.01,-0.02,0.01,0.04,-0.03,
0.202,-0.05,0.01,-0.02,0.01,0.04,-0.03,
0.211,-0.05,0.01,-0.02,0.01,0.03,-0.03,
0.211,-0.05,0.01,-0.02,0.01,0.03,-0.03,
0.212,-0.05,0.00,0.01,0.01,0.03,-0.03,
0.212,-0.05,0.00,0.01,0.01,0.03,-0.03,
0.234,-0.05,0.00,0.01,0.01,0.03,-0.03,
0.235,-0.05,0.00,0.01,0.01,0.03,-0.03,
0.235,-0.05,0.00,0.01,0.01,0.03,-0.03,
0.236,-0.05,0.00,0.01,0.01,0.03,-0.03,
0.242,-0.05,0.00,0.01,0.01,0.02,-0.03,
0.243,-0.05,0.00,0.01,0.01,0.02,-0.03,
0.244,-0.03,0.07,0.13,0.01,0.02,-0.03,
0.244,-0.03,0.07,0.13,0.01,0.02,-0.03,
0.245,-0.03,0.07,0.13,-0.00,0.01,-0.04,
0.245,-0.03,0.07,0.13,-0.00,0.01,-0.04,
0.246,0.01,0.11,0.20,-0.00,0.01,-0.04,
0.247,0.01,0.11,0.20,-0.00,0.01,-0.04,
0.249,0.01,0.11,0.20,-0.01,-0.00,-0.06,
0.249,0.01,0.11,0.20,-0.01,-0.00,-0.06,
0.25,0.07,0.16,0.25,-0.01,-0.00,-0.06,
0.251,0.07,0.16,0.25,-0.01,-0.00,-0.06,
0.258,0.07,0.16,0.25,-0.01,-0.02,-0.08,
0.259,0.07,0.16,0.25,-0.01,-0.02,-0.08,
0.26,0.15,0.16,0.31,-0.01,-0.02,-0.08,
0.26,0.15,0.16,0.31,-0.01,-0.02,-0.08,
0.278,0.15,0.16,0.31,0.00,-0.04,-0.07,
0.28,0.15,0.16,0.31,0.00,-0.04,-0.07,
0.281,0.23,0.16,0.38,0.00,-0.04,-0.07,
0.282,0.23,0.16,0.38,0.00,-0.04,-0.07,
0.283,0.23,0.16,0.38,0.01,-0.08,-0.05,
0.284,0.23,0.16,0.38,0.01,-0.08,-0.05,
0.286,0.33,0.15,0.46,0.01,-0.08,-0.05,
0.287,0.33,0.15,0.46,0.01,-0.08,-0.05,
0.288,0.33,0.15,0.46,0.01,-0.11,-0.01,
0.289,0.33,0.15,0.46,0.01,-0.11,-0.01,
0.291,0.42,0.15,0.57,0.01,-0.11,-0.01,
0.292,0.42,0.15,0.57,0.01,-0.11,-0.01,
0.299,0.42,0.15,0.57,0.01,-0.16,0.04,
0.3,0.42,0.15,0.57,0.01,-0.16,0.04,
0.3,0.51,0.16,0.65,0.01,-0.16,0.04,
0.301,0.51,0.16,0.65,0.01,-0.16,0.04,
0.308,0.51,0.16,0.65,-0.00,-0.20,0.10,
0.31,0.51,0.16,0.65,-0.00,-0.20,0.10,
0.31,0.62,0.14,0.70,-0.00,-0.20,0.10,
0.311,0.62,0.14,0.70,-0.00,-0.20,0.10,
0.315,0.62,0.14,0.70,-0.02,-0.25,0.15,
0.316,0.62,0.14,0.70,-0.02,-0.25,0.15,
0.317,0.71,0.10,0.69,-0.02,-0.25,0.15,
0.318,0.71,0.10,0.69,-0.02,-0.25,0.15,
0.325,0.71,0.10,0.69,-0.04,-0.31,0.20,
0.327,0.71,0.10,0.69,-0.04,-0.31,0.20,
0.328,0.78,0.06,0.60,-0.04,-0.31,0.20,
0.329,0.78,0.06,0.60,-0.04,-0.31,0.20,
0.335,0.78,0.06,0.60,-0.06,-0.36,0.23,
0.336,0.78,0.06,0.60,-0.06,-0.36,0.23,
0.336,0.83,0.00,0.46,-0.06,-0.36,0.23,
0.337,0.83,0.00,0.46,-0.06,-0.36,0.23,
0.344,0.83,0.00,0.46,-0.08,-0.41,0.26,
0.345,0.83,0.00,0.46,-0.08,-0.41,0.26,
0.346,0.82,-0.02,0.31,-0.08,-0.41,0.26,
0.346,0.82,-0.02,0.31,-0.08,-0.41,0.26,
0.353,0.82,-0.02,0.31,-0.09,-0.44,0.28,
0.354,0.82,-0.02,0.31,-0.09,-0.44,0.28,
0.355,0.79,-0.05,0.18,-0.09,-0.44,0.28,
0.356,0.79,-0.05,0.18,-0.09,-0.44,0.28,
0.363,0.79,-0.05,0.18,-0.10,-0.47,0.29,
0.364,0.79,-0.05,0.18,-0.10,-0.47,0.29,
0.364,0.75,-0.11,0.10,-0.10,-0.47,0.29,
0.365,0.75,-0.11,0.10,-0.10,-0.47,0.29,
0.38,0.75,-0.11,0.10,-0.10,-0.47,0.27,
0.381,0.75,-0.11,0.10,-0.10,-0.47,0.27,
0.382,0.70,-0.18,0.07,-0.10,-0.47,0.27,
0.383,0.70,-0.18,0.07,-0.10,-0.47,0.27,
0.384,0.70,-0.18,0.07,-0.09,-0.46,0.25,
0.385,0.70,-0.18,0.07,-0.09,-0.46,0.25,
0.386,0.71,-0.27,0.06,-0.09,-0.46,0.25,
0.386,0.71,-0.27,0.06,-0.09,-0.46,0.25,
0.399,0.71,-0.27,0.06,-0.10,-0.43,0.21,
0.4,0.71,-0.27,0.06,-0.10,-0.43,0.21,
0.4,0.76,-0.34,0.10,-0.10,-0.43,0.21,
0.401,0.76,-0.34,0.10,-0.10,-0.43,0.21,
0.401,0.76,-0.34,0.10,-0.12,-0.39,0.17,
0.402,0.76,-0.34,0.10,-0.12,-0.39,0.17,
0.402,0.82,-0.38,0.11,-0.12,-0.39,0.17,
0.403,0.82,-0.38,0.11,-0.12,-0.39,0.17,
0.411,0.82,-0.38,0.11,-0.15,-0.36,0.12,
0.412,0.82,-0.38,0.11,-0.15,-0.36,0.12,
0.413,0.90,-0.36,0.05,-0.15,-0.36,0.12,
0.413,0.90,-0.36,0.05,-0.15,-0.36,0.12,
0.421,0.90,-0.36,0.05,-0.19,-0.33,0.10,
0.422,0.90,-0.36,0.05,-0.19,-0.33,0.10,
0.423,0.97,-0.30,-0.12,-0.19,-0.33,0.10,
0.423,0.97,-0.30,-0.12,-0.19,-0.33,0.10,
0.43,0.97,-0.30,-0.12,-0.19,-0.33,0.10,
0.431,0.97,-0.30,-0.12,-0.19,-0.33,0.10,
0.432,0.97,-0.30,-0.12,-0.19,-0.33,0.10,
0.432,0.97,-0.30,-0.12,-0.19,-0.33,0.10,
0.439,0.97,-0.30,-0.12,-0.21,-0.33,0.10,
0.44,0.97,-0.30,-0.12,-0.21,-0.33,0.10,
0.441,1.07,-0.01,-0.81,-0.21,-0.33,0.10,
0.441,1.07,-0.01,-0.81,-0.21,-0.33,0.10,
0.45,1.07,-0.01,-0.81,-0.20,-0.33,0.14,
0.451,1.07,-0.01,-0.81,-0.20,-0.33,0.14,
0.451,1.06,0.14,-1.16,-0.20,-0.33,0.14,
0.452,1.06,0.14,-1.16,-0.20,-0.33,0.14,
0.458,1.06,0.14,-1.16,-0.11,-0.35,0.20,
0.459,1.04,0.25,-1.40,-0.11,-0.35,0.20,
0.46,1.04,0.25,-1.40,-0.11,-0.35,0.20,
0.46,1.04,0.25,-1.40,-0.11,-0.35,0.20,
0.468,1.04,0.25,-1.40,0.05,-0.37,0.28,
0.469,1.04,0.25,-1.40,0.05,-0.37,0.28,
0.469,1.04,0.30,-1.57,0.05,-0.37,0.28,
0.47,1.04,0.30,-1.57,0.05,-0.37,0.28,
0.477,1.04,0.30,-1.57,0.26,-0.40,0.34,
0.478,1.04,0.30,-1.57,0.26,-0.40,0.34,
0.478,1.05,0.28,-1.71,0.26,-0.40,0.34,
0.479,1.05,0.28,-1.71,0.26,-0.40,0.34,
0.488,1.05,0.28,-1.71,0.46,-0.42,0.36,
0.489,1.05,0.28,-1.71,0.46,-0.42,0.36,
0.49,0.99,0.14,-1.87,0.46,-0.42,0.36,
0.49,0.99,0.14,-1.87,0.46,-0.42,0.36,
0.497,0.99,0.14,-1.87,0.63,-0.44,0.35,
0.497,0.99,0.14,-1.87,0.63,-0.44,0.35,
0.498,0.91,-0.08,-2.07,0.63,-0.44,0.35,
0.498,0.91,-0.08,-2.07,0.63,-0.44,0.35,
0.506,0.91,-0.08,-2.07,0.72,-0.44,0.33,
0.507,0.91,-0.08,-2.07,0.72,-0.44,0.33,
0.508,0.84,-0.43,-2.17,0.72,-0.44,0.33,
0.508,0.84,-0.43,-2.17,0.72,-0.44,0.33,
0.517,0.84,-0.43,-2.17,0.74,-0.44,0.29,
0.518,0.84,-0.43,-2.17,0.74,-0.44,0.29,
0.518,0.76,-0.81,-2.13,0.74,-0.44,0.29,
0.519,0.76,-0.81,-2.13,0.74,-0.44,0.29,
0.525,0.76,-0.81,-2.13,0.66,-0.44,0.22,
0.526,0.76,-0.81,-2.13,0.66,-0.44,0.22,
0.527,0.78,-1.11,-1.96,0.66,-0.44,0.22,
0.527,0.78,-1.11,-1.96,0.66,-0.44,0.22,
0.534,0.78,-1.11,-1.96,0.46,-0.44,0.12,
0.535,0.78,-1.11,-1.96,0.46,-0.44,0.12,
0.536,0.88,-1.28,-1.70,0.46,-0.44,0.12,
0.536,0.88,-1.28,-1.70,0.46,-0.44,0.12,
0.544,0.88,-1.28,-1.70,0.17,-0.44,-0.00,
0.545,0.88,-1.28,-1.70,0.17,-0.44,-0.00,
0.546,1.01,-1.31,-1.43,0.17,-0.44,-0.00,
0.546,1.01,-1.31,-1.43,0.17,-0.44,-0.00,
0.554,1.01,-1.31,-1.43,-0.17,-0.46,-0.13,
0.555,1.01,-1.31,-1.43,-0.17,-0.46,-0.13,
0.556,1.21,-1.23,-1.13,-0.17,-0.46,-0.13,
0.558,1.21,-1.23,-1.13,-0.17,-0.46,-0.13,
0.563,1.21,-1.23,-1.13,-0.50,-0.50,-0.26,
0.563,1.21,-1.23,-1.13,-0.50,-0.50,-0.26,
0.564,1.43,-1.16,-0.82,-0.50,-0.50,-0.26,
0.564,1.43,-1.16,-0.82,-0.50,-0.50,-0.26,
0.574,1.43,-1.16,-0.82,-0.77,-0.59,-0.41,
0.575,1.43,-1.16,-0.82,-0.77,-0.59,-0.41,
0.576,1.64,-1.17,-0.51,-0.77,-0.59,-0.41,
0.577,1.64,-1.17,-0.51,-0.77,-0.59,-0.41,
0.582,1.64,-1.17,-0.51,-0.96,-0.71,-0.52,
0.583,1.64,-1.17,-0.51,-0.96,-0.71,-0.52,
0.584,1.85,-1.24,-0.34,-0.96,-0.71,-0.52,
0.584,1.85,-1.24,-0.34,-0.96,-0.71,-0.52,
0.591,1.85,-1.24,-0.34,-1.08,-0.85,-0.58,
0.593,1.85,-1.24,-0.34,-1.08,-0.85,-0.58,
0.594,2.08,-1.43,-0.43,-1.08,-0.85,-0.58,
0.595,2.08,-1.43,-0.43,-1.08,-0.85,-0.58,
0.602,2.08,-1.43,-0.43,-1.14,-0.98,-0.57,
0.605,2.08,-1.43,-0.43,-1.14,-0.98,-0.57,
0.606,2.35,-1.69,-0.70,-1.14,-0.98,-0.57,
0.607,2.35,-1.69,-0.70,-1.14,-0.98,-0.57,
0.611,2.35,-1.69,-0.70,-1.18,-1.12,-0.51,
0.612,2.35,-1.69,-0.70,-1.18,-1.12,-0.51,
0.612,2.73,-1.98,-1.07,-1.18,-1.12,-0.51,
0.613,2.73,-1.98,-1.07,-1.18,-1.12,-0.51,
0.621,2.73,-1.98,-1.07,-1.18,-1.12,-0.51,
0.623,2.73,-1.98,-1.07,-1.18,-1.12,-0.51,
0.623,2.73,-1.98,-1.07,-1.18,-1.12,-0.51,
0.624,2.73,-1.98,-1.07,-1.18,-1.12,-0.51,
0.63,2.73,-1.98,-1.07,-1.22,-1.28,-0.42,
0.63,2.73,-1.98,-1.07,-1.22,-1.28,-0.42,
0.631,4.89,-2.55,-1.69,-1.22,-1.28,-0.42,
0.632,4.89,-2.55,-1.69,-1.22,-1.28,-0.42,
0.64,4.89,-2.55,-1.69,-1.28,-1.52,-0.24,
0.641,4.89,-2.55,-1.69,-1.28,-1.52,-0.24,
0.643,5.13,-2.78,-1.85,-1.28,-1.52,-0.24,
0.643,5.13,-2.78,-1.85,-1.28,-1.52,-0.24,
0.648,5.13,-2.78,-1.85,-1.35,-1.95,0.09,
0.649,5.13,-2.78,-1.85,-1.35,-1.95,0.09,
0.65,5.56,-2.93,-1.94,-1.35,-1.95,0.09,
0.65,5.56,-2.93,-1.94,-1.35,-1.95,0.09,
0.659,5.56,-2.93,-1.94,-1.40,-2.56,0.56,
0.66,5.93,-2.97,-1.99,-1.40,-2.56,0.56,
0.66,5.93,-2.97,-1.99,-1.40,-2.56,0.56,
0.661,5.93,-2.97,-1.99,-1.40,-2.56,0.56,
0.671,5.93,-2.97,-1.99,-1.42,-3.19,1.04,
0.672,5.93,-2.97,-1.99,-1.42,-3.19,1.04,
0.673,6.18,-2.88,-2.05,-1.42,-3.19,1.04,
0.673,6.18,-2.88,-2.05,-1.42,-3.19,1.04,
0.678,6.18,-2.88,-2.05,-1.40,-3.70,1.41,
0.679,6.18,-2.88,-2.05,-1.40,-3.70,1.41,
0.679,6.30,-2.71,-2.16,-1.40,-3.70,1.41,
0.68,6.30,-2.71,-2.16,-1.40,-3.70,1.41,
0.687,6.30,-2.71,-2.16,-1.33,-4.03,1.61,
0.689,6.30,-2.71,-2.16,-1.33,-4.03,1.61,
0.69,6.28,-2.54,-2.31,-1.33,-4.03,1.61,
0.69,6.28,-2.54,-2.31,-1.33,-4.03,1.61,
0.697,6.28,-2.54,-2.31,-1.22,-4.20,1.65,
0.698,6.28,-2.54,-2.31,-1.22,-4.20,1.65,
0.698,6.20,-2.45,-2.48,-1.22,-4.20,1.65,
0.699,6.20,-2.45,-2.48,-1.22,-4.20,1.65,
0.708,6.20,-2.45,-2.48,-1.09,-4.21,1.55,
0.709,6.20,-2.45,-2.48,-1.09,-4.21,1.55,
0.71,6.03,-2.49,-2.71,-1.09,-4.21,1.55,
0.71,6.03,-2.49,-2.71,-1.09,-4.21,1.55,
0.717,6.03,-2.49,-2.71,-0.98,-4.11,1.35,
0.718,6.03,-2.49,-2.71,-0.98,-4.11,1.35,
0.719,5.75,-2.67,-2.99,-0.98,-4.11,1.35,
0.719,5.75,-2.67,-2.99,-0.98,-4.11,1.35,
0.725,5.75,-2.67,-2.99,-0.91,-3.92,1.09,
0.726,5.75,-2.67,-2.99,-0.91,-3.92,1.09,
0.727,5.32,-2.92,-3.19,-0.91,-3.92,1.09,
0.728,5.32,-2.92,-3.19,-0.91,-3.92,1.09,
0.734,5.32,-2.92,-3.19,-0.91,-3.67,0.81,
0.735,5.32,-2.92,-3.19,-0.91,-3.67,0.81,
0.735,3.56,-3.14,-3.01,-0.91,-3.67,0.81,
0.735,3.56,-3.14,-3.01,-0.91,-3.67,0.81,
0.744,3.56,-3.14,-3.01,-1.02,-3.33,0.53,
0.744,3.56,-3.14,-3.01,-1.02,-3.33,0.53,
0.745,3.31,-3.24,-2.72,-1.02,-3.33,0.53,
0.745,3.31,-3.24,-2.72,-1.02,-3.33,0.53,
0.754,3.31,-3.24,-2.72,-1.26,-2.84,0.22,
0.755,3.31,-3.24,-2.72,-1.26,-2.84,0.22,
0.755,2.93,-3.28,-2.20,-1.26,-2.84,0.22,
0.756,2.93,-3.28,-2.20,-1.26,-2.84,0.22,
0.763,2.93,-3.28,-2.20,-1.60,-2.17,-0.13,
0.764,2.93,-3.28,-2.20,-1.60,-2.17,-0.13,
0.764,2.67,-3.28,-1.65,-1.60,-2.17,-0.13,
0.765,2.67,-3.28,-1.65,-1.60,-2.17,-0.13,
0.773,2.67,-3.28,-1.65,-2.00,-1.40,-0.53,
0.774,2.67,-3.28,-1.65,-2.00,-1.40,-0.53,
0.774,2.84,-3.27,-1.43,-2.00,-1.40,-0.53,
0.775,2.84,-3.27,-1.43,-2.00,-1.40,-0.53,
0.788,2.84,-3.27,-1.43,-2.36,-0.64,-0.93,
0.79,2.84,-3.27,-1.43,-2.36,-0.64,-0.93,
0.79,3.13,-3.40,-1.28,-2.36,-0.64,-0.93,
0.791,3.13,-3.40,-1.28,-2.36,-0.64,-0.93,
0.791,3.13,-3.40,-1.28,-2.62,0.00,-1.26,
0.792,3.13,-3.40,-1.28,-2.62,0.00,-1.26,
0.792,3.53,-3.54,-1.31,-2.62,0.00,-1.26,
0.793,3.53,-3.54,-1.31,-2.62,0.00,-1.26,
0.801,3.53,-3.54,-1.31,-2.75,0.44,-1.46,
0.802,3.53,-3.54,-1.31,-2.75,0.44,-1.46,
0.802,3.85,-3.67,-1.47,-2.75,0.44,-1.46,
0.803,3.85,-3.67,-1.47,-2.75,0.44,-1.46,
0.812,3.85,-3.67,-1.47,-2.77,0.62,-1.50,
0.812,3.85,-3.67,-1.47,-2.77,0.62,-1.50,
0.813,3.92,-3.78,-1.79,-2.77,0.62,-1.50,
0.814,3.92,-3.78,-1.79,-2.77,0.62,-1.50,
0.821,3.92,-3.78,-1.79,-2.77,0.62,-1.50,
0.822,3.92,-3.78,-1.79,-2.77,0.62,-1.50,
0.823,3.92,-3.78,-1.79,-2.77,0.62,-1.50,
0.823,3.92,-3.78,-1.79,-2.77,0.62,-1.50,
0.83,3.92,-3.78,-1.79,-2.71,0.56,-1.41,
0.83,3.92,-3.78,-1.79,-2.71,0.56,-1.41,
0.831,3.81,-3.92,-2.80,-2.71,0.56,-1.41,
0.832,3.81,-3.92,-2.80,-2.71,0.56,-1.41,
0.839,3.81,-3.92,-2.80,-2.62,0.33,-1.21,
0.84,3.81,-3.92,-2.80,-2.62,0.33,-1.21,
0.841,3.65,-3.99,-4.21,-2.62,0.33,-1.21,
0.841,3.65,-3.99,-4.21,-2.62,0.33,-1.21,
0.85,3.65,-3.99,-4.21,-2.52,-0.04,-0.96,
0.852,3.65,-3.99,-4.21,-2.52,-0.04,-0.96,
0.852,3.59,-4.18,-4.43,-2.52,-0.04,-0.96,
0.853,3.59,-4.18,-4.43,-2.52,-0.04,-0.96,
0.858,3.59,-4.18,-4.43,-2.43,-0.52,-0.67,
0.859,3.59,-4.18,-4.43,-2.43,-0.52,-0.67,
0.86,3.61,-4.46,-4.59,-2.43,-0.52,-0.67,
0.86,3.61,-4.46,-4.59,-2.43,-0.52,-0.67,
0.868,3.61,-4.46,-4.59,-2.37,-1.07,-0.35,
0.869,3.61,-4.46,-4.59,-2.37,-1.07,-0.35,
0.869,3.47,-4.70,-4.60,-2.37,-1.07,-0.35,
0.87,3.47,-4.70,-4.60,-2.37,-1.07,-0.35,
0.878,3.47,-4.70,-4.60,-2.37,-1.59,-0.04,
0.879,3.47,-4.70,-4.60,-2.37,-1.59,-0.04,
0.88,3.07,-4.84,-4.34,-2.37,-1.59,-0.04,
0.881,3.07,-4.84,-4.34,-2.37,-1.59,-0.04,
0.893,3.07,-4.84,-4.34,-2.43,-1.99,0.23,
0.894,3.07,-4.84,-4.34,-2.43,-1.99,0.23,
0.895,2.46,-4.85,-3.84,-2.43,-1.99,0.23,
0.895,2.46,-4.85,-3.84,-2.43,-1.99,0.23,
0.896,2.46,-4.85,-3.84,-2.55,-2.17,0.42,
0.896,2.46,-4.85,-3.84,-2.55,-2.17,0.42,
0.896,1.85,-4.85,-2.09,-2.55,-2.17,0.42,
0.897,1.85,-4.85,-2.09,-2.55,-2.17,0.42,
0.906,1.85,-4.85,-2.09,-2.71,-2.04,0.51,
0.907,1.85,-4.85,-2.09,-2.71,-2.04,0.51,
0.907,1.44,-4.91,-1.65,-2.71,-2.04,0.51,
0.908,1.44,-4.91,-1.65,-2.71,-2.04,0.51,
0.915,1.44,-4.91,-1.65,-2.87,-1.54,0.48,
0.916,1.44,-4.91,-1.65,-2.87,-1.54,0.48,
0.916,1.29,-5.08,0.10,-2.87,-1.54,0.48,
0.917,1.29,-5.08,0.10,-2.87,-1.54,0.48,
0.925,1.29,-5.08,0.10,-2.95,-0.75,0.38,
0.926,1.29,-5.08,0.10,-2.95,-0.75,0.38,
0.927,1.40,-5.24,0.43,-2.95,-0.75,0.38,
0.927,1.40,-5.24,0.43,-2.95,-0.75,0.38,
0.934,1.40,-5.24,0.43,-2.91,0.16,0.26,
0.935,1.40,-5.24,0.43,-2.91,0.16,0.26,
0.936,1.61,-5.29,0.86,-2.91,0.16,0.26,
0.936,1.61,-5.29,0.86,-2.91,0.16,0.26,
0.943,1.61,-5.29,0.86,-2.73,0.95,0.19,
0.944,1.61,-5.29,0.86,-2.73,0.95,0.19,
0.945,1.86,-5.13,1.27,-2.73,0.95,0.19,
0.945,1.86,-5.13,1.27,-2.73,0.95,0.19,
0.953,1.86,-5.13,1.27,-2.32,1.47,0.19,
0.954,1.86,-5.13,1.27,-2.32,1.47,0.19,
0.954,2.16,-4.80,1.53,-2.32,1.47,0.19,
0.955,2.16,-4.80,1.53,-2.32,1.47,0.19,
0.963,2.16,-4.80,1.53,-1.86,1.67,0.24,
0.964,2.16,-4.80,1.53,-1.86,1.67,0.24,
0.965,2.44,-4.45,1.57,-1.86,1.67,0.24,
0.965,2.44,-4.45,1.57,-1.86,1.67,0.24,
0.974,2.44,-4.45,1.57,-1.48,1.62,0.30,
0.975,2.44,-4.45,1.57,-1.48,1.62,0.30,
0.976,2.74,-4.17,1.37,-1.48,1.62,0.30,
0.976,2.74,-4.17,1.37,-1.48,1.62,0.30,
0.986,2.74,-4.17,1.37,-1.07,1.39,0.34,
0.987,2.74,-4.17,1.37,-1.07,1.39,0.34,
0.987,3.14,-4.07,1.18,-1.07,1.39,0.34,
0.988,3.14,-4.07,1.18,-1.07,1.39,0.34,
0.991,3.14,-4.07,1.18,-0.68,1.03,0.36,
0.992,3.14,-4.07,1.18,-0.68,1.03,0.36,
0.992,3.61,-4.04,1.21,-0.68,1.03,0.36,
0.993,3.61,-4.04,1.21,-0.68,1.03,0.36,
1.001,3.61,-4.04,1.21,-0.35,0.60,0.36,
1.002,3.61,-4.04,1.21,-0.35,0.60,0.36,
1.003,4.08,-4.01,1.60,-0.35,0.60,0.36,
1.003,4.08,-4.01,1.60,-0.35,0.60,0.36,
1.011,4.08,-4.01,1.60,-0.08,0.12,0.38,
1.012,4.08,-4.01,1.60,-0.08,0.12,0.38,
1.012,4.56,-3.87,3.58,-0.08,0.12,0.38,
1.013,4.56,-3.87,3.58,-0.08,0.12,0.38,
1.02,4.56,-3.87,3.58,-0.08,0.12,0.38,
1.021,4.56,-3.87,3.58,-0.08,0.12,0.38,
1.022,4.56,-3.87,3.58,-0.08,0.12,0.38,
1.023,4.56,-3.87,3.58,-0.08,0.12,0.38,
1.03,4.56,-3.87,3.58,0.15,-0.31,0.34,
1.031,4.56,-3.87,3.58,0.15,-0.31,0.34,
1.032,5.45,-3.60,4.34,0.15,-0.31,0.34,
1.033,5.45,-3.60,4.34,0.15,-0.31,0.34,
1.039,5.45,-3.60,4.34,0.39,-0.62,0.31,
1.042,5.45,-3.60,4.34,0.39,-0.62,0.31,
1.044,5.84,-3.25,4.50,0.39,-0.62,0.31,
1.045,5.84,-3.25,4.50,0.39,-0.62,0.31,
1.048,5.84,-3.25,4.50,0.64,-0.79,0.34,
1.049,5.84,-3.25,4.50,0.64,-0.79,0.34,
1.05,6.15,-2.91,4.13,0.64,-0.79,0.34,
1.051,6.15,-2.91,4.13,0.64,-0.79,0.34,
1.058,6.15,-2.91,4.13,0.90,-0.89,0.35,
1.059,6.15,-2.91,4.13,0.90,-0.89,0.35,
1.06,6.41,-2.50,2.04,0.90,-0.89,0.35,
1.06,6.41,-2.50,2.04,0.90,-0.89,0.35,
1.073,6.41,-2.50,2.04,1.12,-1.03,0.36,
1.074,6.41,-2.50,2.04,1.12,-1.03,0.36,
1.074,6.53,-2.10,-0.29,1.12,-1.03,0.36,
1.075,6.53,-2.10,-0.29,1.12,-1.03,0.36,
1.077,6.53,-2.10,-0.29,1.28,-1.29,0.40,
1.078,6.53,-2.10,-0.29,1.28,-1.29,0.40,
1.078,6.58,-1.75,-2.67,1.28,-1.29,0.40,
1.079,6.58,-1.75,-2.67,1.28,-1.29,0.40,
1.087,6.58,-1.75,-2.67,1.39,-1.75,0.46,
1.088,6.58,-1.75,-2.67,1.39,-1.75,0.46,
1.088,6.54,-1.34,-4.73,1.39,-1.75,0.46,
1.088,6.54,-1.34,-4.73,1.39,-1.75,0.46,
1.096,6.54,-1.34,-4.73,1.45,-2.40,0.41,
1.097,6.54,-1.34,-4.73,1.45,-2.40,0.41,
1.097,6.42,-0.80,-6.32,1.45,-2.40,0.41,
1.098,6.42,-0.80,-6.32,1.45,-2.40,0.41,
1.107,6.42,-0.80,-6.32,1.49,-3.22,0.34,
1.108,6.42,-0.80,-6.32,1.49,-3.22,0.34,
1.108,6.33,-0.14,-6.77,1.49,-3.22,0.34,
1.109,6.33,-0.14,-6.77,1.49,-3.22,0.34,
1.115,6.33,-0.14,-6.77,1.56,-4.12,0.38,
1.115,6.33,-0.14,-6.77,1.56,-4.12,0.38,
1.116,6.27,0.57,-7.16,1.56,-4.12,0.38,
1.116,6.27,0.57,-7.16,1.56,-4.12,0.38,
1.124,6.27,0.57,-7.16,1.69,-4.98,0.38,
1.126,6.27,0.57,-7.16,1.69,-4.98,0.38,
1.126,6.18,1.19,-7.38,1.69,-4.98,0.38,
1.127,6.18,1.19,-7.38,1.69,-4.98,0.38,
1.134,6.18,1.19,-7.38,1.86,-5.66,0.27,
1.135,6.18,1.19,-7.38,1.86,-5.66,0.27,
1.135,5.98,1.49,-7.31,1.86,-5.66,0.27,
1.136,5.98,1.49,-7.31,1.86,-5.66,0.27,
1.143,5.98,1.49,-7.31,2.03,-6.09,0.05,
1.144,5.98,1.49,-7.31,2.03,-6.09,0.05,
1.145,5.61,1.42,-7.01,2.03,-6.09,0.05,
1.145,5.61,1.42,-7.01,2.03,-6.09,0.05,
1.153,5.61,1.42,-7.01,2.15,-6.25,-0.23,
1.154,5.61,1.42,-7.01,2.15,-6.25,-0.23,
1.155,5.13,1.00,-6.65,2.15,-6.25,-0.23,
1.156,5.13,1.00,-6.65,2.15,-6.25,-0.23,
1.163,5.13,1.00,-6.65,2.20,-6.15,-0.47,
1.164,5.13,1.00,-6.65,2.20,-6.15,-0.47,
1.164,4.68,-0.42,-6.18,2.20,-6.15,-0.47,
1.165,4.68,-0.42,-6.18,2.20,-6.15,-0.47,
1.173,4.68,-0.42,-6.18,2.15,-5.81,-0.57,
1.174,4.68,-0.42,-6.18,2.15,-5.81,-0.57,
1.174,4.52,-0.67,-5.87,2.15,-5.81,-0.57,
1.175,4.52,-0.67,-5.87,2.15,-5.81,-0.57,
1.182,4.52,-0.67,-5.87,2.00,-5.29,-0.45,
1.182,4.52,-0.67,-5.87,2.00,-5.29,-0.45,
1.182,4.82,-0.72,-5.87,2.00,-5.29,-0.45,
1.183,4.82,-0.72,-5.87,2.00,-5.29,-0.45,
1.191,4.82,-0.72,-5.87,1.80,-4.68,-0.15,
1.192,4.82,-0.72,-5.87,1.80,-4.68,-0.15,
1.192,6.43,-0.32,-6.28,1.80,-4.68,-0.15,
1.193,6.43,-0.32,-6.28,1.80,-4.68,-0.15,
1.201,6.43,-0.32,-6.28,1.60,-4.08,0.20,
1.202,6.43,-0.32,-6.28,1.60,-4.08,0.20,
1.203,8.22,1.32,-10.21,1.60,-4.08,0.20,
1.203,8.22,1.32,-10.21,1.60,-4.08,0.20,
1.211,8.22,1.32,-10.21,1.43,-3.69,0.39,
1.212,8.22,1.32,-10.21,1.43,-3.69,0.39,
1.213,10.38,1.93,-13.56,1.43,-3.69,0.39,
1.214,10.38,1.93,-13.56,1.43,-3.69,0.39,
1.232,10.38,1.93,-13.56,1.43,-3.69,0.39,
1.233,10.38,1.93,-13.56,1.43,-3.69,0.39,
1.234,10.38,1.93,-13.56,1.43,-3.69,0.39,
1.235,10.38,1.93,-13.56,1.43,-3.69,0.39,
1.235,10.38,1.93,-13.56,1.06,-4.33,0.18,
1.236,10.38,1.93,-13.56,1.06,-4.33,0.18,
1.237,10.49,2.42,-13.71,1.06,-4.33,0.18,
1.237,10.49,2.42,-13.71,1.06,-4.33,0.18,
1.239,10.49,2.42,-13.71,1.06,-4.33,0.18,
1.239,10.49,2.42,-13.71,1.06,-4.33,0.18,
1.24,10.49,2.42,-13.71,1.06,-4.33,0.18,
1.241,10.49,2.42,-13.71,1.06,-4.33,0.18,
1.25,10.49,2.42,-13.71,0.34,-6.08,-0.76,
1.251,10.49,2.42,-13.71,0.34,-6.08,-0.76,
1.252,4.78,0.12,-7.03,0.34,-6.08,-0.76,
1.253,4.78,0.12,-7.03,0.34,-6.08,-0.76,
1.258,4.78,0.12,-7.03,0.34,-6.08,-0.76,
1.259,4.78,0.12,-7.03,0.34,-6.08,-0.76,
1.26,4.78,0.12,-7.03,0.34,-6.08,-0.76,
1.261,4.78,0.12,-7.03,0.34,-6.08,-0.76,
1.267,4.78,0.12,-7.03,-0.09,-4.89,-0.45,
1.269,4.78,0.12,-7.03,-0.09,-4.89,-0.45,
1.27,0.48,-2.32,-2.64,-0.09,-4.89,-0.45,
1.27,0.48,-2.32,-2.64,-0.09,-4.89,-0.45,
1.277,0.48,-2.32,-2.64,-0.10,-3.43,-0.09,
1.278,0.48,-2.32,-2.64,-0.10,-3.43,-0.09,
1.279,-0.18,-3.96,-0.23,-0.10,-3.43,-0.09,
1.279,-0.18,-3.96,-0.23,-0.10,-3.43,-0.09,
1.289,-0.18,-3.96,-0.23,-0.08,-1.84,0.48,
1.29,-0.18,-3.96,-0.23,-0.08,-1.84,0.48,
1.29,-2.03,-4.28,1.92,-0.08,-1.84,0.48,
1.291,-2.03,-4.28,1.92,-0.08,-1.84,0.48,
1.296,-2.03,-4.28,1.92,-0.05,-0.15,0.93,
1.296,-2.03,-4.28,1.92,-0.05,-0.15,0.93,
1.297,-2.51,-4.49,-0.79,-0.05,-0.15,0.93,
1.297,-2.51,-4.49,-0.79,-0.05,-0.15,0.93,
1.306,-2.51,-4.49,-0.79,-0.14,1.49,1.49,
1.307,-2.51,-4.49,-0.79,-0.14,1.49,1.49,
1.307,-2.92,-4.45,-0.85,-0.14,1.49,1.49,
1.307,-2.92,-4.45,-0.85,-0.14,1.49,1.49,
1.315,-2.92,-4.45,-0.85,-0.43,2.89,2.64,
1.315,-2.92,-4.45,-0.85,-0.43,2.89,2.64,
1.316,-2.71,-3.98,-0.41,-0.43,2.89,2.64,
1.316,-2.71,-3.98,-0.41,-0.43,2.89,2.64,
1.325,-2.71,-3.98,-0.41,-0.79,3.93,3.47,
1.327,-2.71,-3.98,-0.41,-0.79,3.93,3.47,
1.328,-1.22,-2.46,-0.31,-0.79,3.93,3.47,
1.329,-1.22,-2.46,-0.31,-0.79,3.93,3.47,
1.334,-1.22,-2.46,-0.31,-1.12,4.58,3.85,
1.335,-1.22,-2.46,-0.31,-1.12,4.58,3.85,
1.336,0.25,-2.06,2.71,-1.12,4.58,3.85,
1.337,0.25,-2.06,2.71,-1.12,4.58,3.85,
1.343,0.25,-2.06,2.71,-1.27,4.95,3.67,
1.344,0.25,-2.06,2.71,-1.27,4.95,3.67,
1.345,0.32,-1.59,2.90,-1.27,4.95,3.67,
1.345,0.32,-1.59,2.90,-1.27,4.95,3.67,
1.353,0.32,-1.59,2.90,-1.13,5.15,2.98,
1.355,0.32,-1.59,2.90,-1.13,5.15,2.98,
1.356,0.14,-1.40,0.86,-1.13,5.15,2.98,
1.357,0.14,-1.40,0.86,-1.13,5.15,2.98,
1.362,0.14,-1.40,0.86,-0.78,5.17,2.01,
1.364,0.14,-1.40,0.86,-0.78,5.17,2.01,
1.365,-0.29,-1.44,-0.50,-0.78,5.17,2.01,
1.366,-0.29,-1.44,-0.50,-0.78,5.17,2.01,
1.377,-0.29,-1.44,-0.50,-0.44,4.87,1.08,
1.378,-0.29,-1.44,-0.50,-0.44,4.87,1.08,
1.378,-0.74,-1.61,-0.72,-0.44,4.87,1.08,
1.379,-0.74,-1.61,-0.72,-0.44,4.87,1.08,
1.392,-0.74,-1.61,-0.72,-0.30,4.19,0.40,
1.393,-0.74,-1.61,-0.72,-0.30,4.19,0.40,
1.393,-1.04,-1.79,-0.94,-0.30,4.19,0.40,
1.393,-1.04,-1.79,-0.94,-0.30,4.19,0.40,
1.394,-1.04,-1.79,-0.94,-0.37,3.27,-0.03,
1.394,-1.04,-1.79,-0.94,-0.37,3.27,-0.03,
1.394,-1.17,-1.92,-0.88,-0.37,3.27,-0.03,
1.395,-1.17,-1.92,-0.88,-0.37,3.27,-0.03,
1.401,-1.17,-1.92,-0.88,-0.54,2.34,-0.24,
1.402,-1.17,-1.92,-0.88,-0.54,2.34,-0.24,
1.402,-1.14,-1.94,-0.59,-0.54,2.34,-0.24,
1.403,-1.14,-1.94,-0.59,-0.54,2.34,-0.24,
1.411,-1.14,-1.94,-0.59,-0.54,2.34,-0.24,
1.412,-1.14,-1.94,-0.59,-0.54,2.34,-0.24,
1.412,-1.14,-1.94,-0.59,-0.54,2.34,-0.24,
1.413,-1.14,-1.94,-0.59,-0.54,2.34,-0.24,
1.423,-1.14,-1.94,-0.59,-0.73,1.57,-0.32,
1.424,-1.14,-1.94,-0.59,-0.73,1.57,-0.32,
1.426,-0.84,-1.71,0.48,-0.73,1.57,-0.32,
1.426,-0.84,-1.71,0.48,-0.73,1.57,-0.32,
1.429,-0.84,-1.71,0.48,-0.88,1.00,-0.33,
1.43,-0.84,-1.71,0.48,-0.88,1.00,-0.33,
1.431,-0.74,-1.54,1.13,-0.88,1.00,-0.33,
1.432,-0.74,-1.54,1.13,-0.88,1.00,-0.33,
1.439,-0.74,-1.54,1.13,-0.92,0.65,-0.35,
1.44,-0.74,-1.54,1.13,-0.92,0.65,-0.35,
1.441,-0.74,-1.44,1.67,-0.92,0.65,-0.35,
1.441,-0.74,-1.44,1.67,-0.92,0.65,-0.35,
1.45,-0.74,-1.44,1.67,-0.85,0.54,-0.41,
1.451,-0.74,-1.44,1.67,-0.85,0.54,-0.41,
1.452,-0.87,-1.46,2.07,-0.85,0.54,-0.41,
1.452,-0.87,-1.46,2.07,-0.85,0.54,-0.41,
1.457,-0.87,-1.46,2.07,-0.72,0.62,-0.51,
1.458,-0.87,-1.46,2.07,-0.72,0.62,-0.51,
1.458,-1.09,-1.55,2.39,-0.72,0.62,-0.51,
1.459,-1.09,-1.55,2.39,-0.72,0.62,-0.51,
1.467,-1.09,-1.55,2.39,-0.58,0.79,-0.59,
1.468,-1.09,-1.55,2.39,-0.58,0.79,-0.59,
1.468,-1.38,-1.74,2.75,-0.58,0.79,-0.59,
1.469,-1.38,-1.74,2.75,-0.58,0.79,-0.59,
1.477,-1.38,-1.74,2.75,-0.46,1.00,-0.61,
1.478,-1.38,-1.74,2.75,-0.46,1.00,-0.61,
1.479,-1.68,-1.91,3.21,-0.46,1.00,-0.61,
1.479,-1.68,-1.91,3.21,-0.46,1.00,-0.61,
1.488,-1.68,-1.91,3.21,-0.37,1.22,-0.56,
1.489,-1.68,-1.91,3.21,-0.37,1.22,-0.56,
1.49,-1.92,-2.08,3.75,-0.37,1.22,-0.56,
1.491,-1.92,-2.08,3.75,-0.37,1.22,-0.56,
1.496,-1.92,-2.08,3.75,-0.34,1.46,-0.44,
1.497,-1.92,-2.08,3.75,-0.34,1.46,-0.44,
1.497,-2.06,-2.22,4.30,-0.34,1.46,-0.44,
1.497,-2.06,-2.22,4.30,-0.34,1.46,-0.44,
1.505,-2.06,-2.22,4.30,-0.35,1.74,-0.29,
1.506,-2.06,-2.22,4.30,-0.35,1.74,-0.29,
1.507,-2.15,-2.29,4.77,-0.35,1.74,-0.29,
1.507,-2.15,-2.29,4.77,-0.35,1.74,-0.29,
1.517,-2.15,-2.29,4.77,-0.38,2.04,-0.14,
1.518,-2.15,-2.29,4.77,-0.38,2.04,-0.14,
1.518,-2.21,-2.35,5.16,-0.38,2.04,-0.14,
1.519,-2.21,-2.35,5.16,-0.38,2.04,-0.14,
1.524,-2.21,-2.35,5.16,-0.39,2.33,0.01,
1.525,-2.21,-2.35,5.16,-0.39,2.33,0.01,
1.526,-2.30,-2.39,5.52,-0.39,2.33,0.01,
1.526,-2.30,-2.39,5.52,-0.39,2.33,0.01,
1.534,-2.30,-2.39,5.52,-0.36,2.57,0.14,
1.535,-2.30,-2.39,5.52,-0.36,2.57,0.14,
1.536,-2.44,-2.44,5.85,-0.36,2.57,0.14,
1.536,-2.44,-2.44,5.85,-0.36,2.57,0.14,
1.543,-2.44,-2.44,5.85,-0.28,2.77,0.26,
1.545,-2.44,-2.44,5.85,-0.28,2.77,0.26,
1.546,-2.61,-2.51,6.18,-0.28,2.77,0.26,
1.547,-2.61,-2.51,6.18,-0.28,2.77,0.26,
1.553,-2.61,-2.51,6.18,-0.19,2.92,0.36,
1.555,-2.61,-2.51,6.18,-0.19,2.92,0.36,
1.556,-2.81,-2.61,6.43,-0.19,2.92,0.36,
1.556,-2.81,-2.61,6.43,-0.19,2.92,0.36,
1.562,-2.81,-2.61,6.43,-0.08,3.03,0.46,
1.563,-2.81,-2.61,6.43,-0.08,3.03,0.46,
1.564,-3.02,-2.75,6.58,-0.08,3.03,0.46,
1.564,-3.02,-2.75,6.58,-0.08,3.03,0.46,
1.573,-3.02,-2.75,6.58,0.03,3.11,0.57,
1.574,-3.02,-2.75,6.58,0.03,3.11,0.57,
1.575,-3.19,-2.91,6.62,0.03,3.11,0.57,
1.575,-3.19,-2.91,6.62,0.03,3.11,0.57,
1.581,-3.19,-2.91,6.62,0.13,3.15,0.70,
1.582,-3.19,-2.91,6.62,0.13,3.15,0.70,
1.582,-3.25,-3.02,6.46,0.13,3.15,0.70,
1.583,-3.25,-3.02,6.46,0.13,3.15,0.70,
1.601,-3.25,-3.02,6.46,0.20,3.14,0.85,
1.602,-3.25,-3.02,6.46,0.20,3.14,0.85,
1.603,-3.18,-3.06,6.12,0.20,3.14,0.85,
1.603,-3.18,-3.06,6.12,0.20,3.14,0.85,
1.603,-3.18,-3.06,6.12,0.23,3.05,1.00,
1.604,-3.18,-3.06,6.12,0.23,3.05,1.00,
1.604,-2.99,-3.00,5.58,0.23,3.05,1.00,
1.604,-2.99,-3.00,5.58,0.23,3.05,1.00,
1.61,-2.99,-3.00,5.58,0.23,3.05,1.00,
1.611,-2.99,-3.00,5.58,0.23,3.05,1.00,
1.612,-2.99,-3.00,5.58,0.23,3.05,1.00,
1.612,-2.99,-3.00,5.58,0.23,3.05,1.00,
1.619,-2.99,-3.00,5.58,0.22,2.87,1.13,
1.62,-2.99,-3.00,5.58,0.22,2.87,1.13,
1.621,-2.61,-2.72,4.24,0.22,2.87,1.13,
1.621,-2.61,-2.72,4.24,0.22,2.87,1.13,
1.629,-2.61,-2.72,4.24,0.19,2.57,1.24,
1.63,-2.61,-2.72,4.24,0.19,2.57,1.24,
1.631,-2.30,-2.45,2.32,0.19,2.57,1.24,
1.631,-2.30,-2.45,2.32,0.19,2.57,1.24,
1.639,-2.30,-2.45,2.32,0.12,2.10,1.33,
1.64,-2.30,-2.45,2.32,0.12,2.10,1.33,
1.64,-1.86,-2.18,1.90,0.12,2.10,1.33,
1.641,-1.86,-2.18,1.90,0.12,2.10,1.33,
1.65,-1.86,-2.18,1.90,0.01,1.44,1.38,
1.651,-1.86,-2.18,1.90,0.01,1.44,1.38,
1.652,-1.30,-1.94,1.34,0.01,1.44,1.38,
1.652,-1.30,-1.94,1.34,0.01,1.44,1.38,
1.659,-1.30,-1.94,1.34,-0.11,0.65,1.42,
1.66,-1.30,-1.94,1.34,-0.11,0.65,1.42,
1.661,-0.62,-1.75,0.79,-0.11,0.65,1.42,
1.661,-0.62,-1.75,0.79,-0.11,0.65,1.42,
1.666,-0.62,-1.75,0.79,-0.19,-0.22,1.42,
1.668,-0.62,-1.75,0.79,-0.19,-0.22,1.42,
1.668,0.09,-1.67,0.31,-0.19,-0.22,1.42,
1.668,0.09,-1.67,0.31,-0.19,-0.22,1.42,
1.677,0.09,-1.67,0.31,-0.17,-1.09,1.38,
1.678,0.09,-1.67,0.31,-0.17,-1.09,1.38,
1.678,0.69,-1.67,-0.06,-0.17,-1.09,1.38,
1.679,0.69,-1.67,-0.06,-0.17,-1.09,1.38,
1.688,0.69,-1.67,-0.06,-0.08,-1.93,1.31,
1.689,0.69,-1.67,-0.06,-0.08,-1.93,1.31,
1.69,1.15,-1.71,-0.42,-0.08,-1.93,1.31,
1.691,1.15,-1.71,-0.42,-0.08,-1.93,1.31,
1.696,1.15,-1.71,-0.42,0.08,-2.72,1.23,
1.696,1.15,-1.71,-0.42,0.08,-2.72,1.23,
1.697,1.45,-1.74,-0.79,0.08,-2.72,1.23,
1.698,1.45,-1.74,-0.79,0.08,-2.72,1.23,
1.705,1.45,-1.74,-0.79,0.28,-3.41,1.15,
1.707,1.45,-1.74,-0.79,0.28,-3.41,1.15,
1.707,1.63,-1.67,-1.28,0.28,-3.41,1.15,
1.708,1.63,-1.67,-1.28,0.28,-3.41,1.15,
1.716,1.63,-1.67,-1.28,0.50,-3.96,1.09,
1.718,1.63,-1.67,-1.28,0.50,-3.96,1.09,
1.718,1.85,-1.42,-1.94,0.50,-3.96,1.09,
1.719,1.85,-1.42,-1.94,0.50,-3.96,1.09,
1.724,1.85,-1.42,-1.94,0.71,-4.39,1.04,
1.725,1.85,-1.42,-1.94,0.71,-4.39,1.04,
1.726,2.09,-1.04,-3.65,0.71,-4.39,1.04,
1.726,2.09,-1.04,-3.65,0.71,-4.39,1.04,
1.734,2.09,-1.04,-3.65,0.90,-4.76,0.99,
1.736,2.09,-1.04,-3.65,0.90,-4.76,0.99,
1.737,2.53,-0.47,-7.35,0.90,-4.76,0.99,
1.738,2.53,-0.47,-7.35,0.90,-4.76,0.99,
1.743,2.53,-0.47,-7.35,1.08,-5.27,0.94,
1.744,2.53,-0.47,-7.35,1.08,-5.27,0.94,
1.745,3.19,1.10,-10.78,1.08,-5.27,0.94,
1.745,3.19,1.10,-10.78,1.08,-5.27,0.94,
1.753,3.19,1.10,-10.78,1.22,-6.19,0.81,
1.754,3.19,1.10,-10.78,1.22,-6.19,0.81,
1.755,3.56,1.46,-11.29,1.22,-6.19,0.81,
1.755,3.56,1.46,-11.29,1.22,-6.19,0.81,
1.763,3.56,1.46,-11.29,1.35,-7.62,0.48,
1.764,3.56,1.46,-11.29,1.35,-7.62,0.48,
1.764,3.46,1.56,-11.44,1.35,-7.62,0.48,
1.765,3.46,1.56,-11.44,1.35,-7.62,0.48,
1.772,3.46,1.56,-11.44,1.42,-9.22,-0.11,
1.773,3.46,1.56,-11.44,1.42,-9.22,-0.11,
1.774,1.79,1.19,-8.39,1.42,-9.22,-0.11,
1.774,1.79,1.19,-8.39,1.42,-9.22,-0.11,
1.788,1.79,1.19,-8.39,1.39,-10.29,-0.83,
1.789,1.79,1.19,-8.39,1.39,-10.29,-0.83,
1.79,1.40,-0.47,-4.66,1.39,-10.29,-0.83,
1.79,1.40,-0.47,-4.66,1.39,-10.29,-0.83,
1.791,1.40,-0.47,-4.66,1.30,-10.29,-1.31,
1.792,1.40,-0.47,-4.66,1.30,-10.29,-1.31,
1.792,1.13,-0.91,-2.85,1.30,-10.29,-1.31,
1.793,1.13,-0.91,-2.85,1.30,-10.29,-1.31,
1.801,1.13,-0.91,-2.85,1.30,-10.29,-1.31,
1.802,1.13,-0.91,-2.85,1.30,-10.29,-1.31,
1.802,1.13,-0.91,-2.85,1.30,-10.29,-1.31,
1.803,1.13,-0.91,-2.85,1.30,-10.29,-1.31,
1.81,1.13,-0.91,-2.85,1.31,-9.17,-1.31,
1.811,1.13,-0.91,-2.85,1.31,-9.17,-1.31,
1.812,1.88,-0.87,-2.52,1.31,-9.17,-1.31,
1.812,1.88,-0.87,-2.52,1.31,-9.17,-1.31,
1.82,1.88,-0.87,-2.52,1.46,-7.27,-0.92,
1.821,1.88,-0.87,-2.52,1.46,-7.27,-0.92,
1.822,2.33,-0.33,-2.51,1.46,-7.27,-0.92,
1.822,2.33,-0.33,-2.51,1.46,-7.27,-0.92,
1.829,2.33,-0.33,-2.51,1.68,-5.11,-0.40,
1.83,2.33,-0.33,-2.51,1.68,-5.11,-0.40,
1.831,2.49,0.29,-2.78,1.68,-5.11,-0.40,
1.832,2.49,0.29,-2.78,1.68,-5.11,-0.40,
1.838,2.49,0.29,-2.78,1.86,-3.21,-0.05,
1.84,2.49,0.29,-2.78,1.86,-3.21,-0.05,
1.842,2.24,0.87,-3.13,1.86,-3.21,-0.05,
1.842,2.24,0.87,-3.13,1.86,-3.21,-0.05,
1.849,2.24,0.87,-3.13,1.98,-1.84,0.05,
1.85,2.24,0.87,-3.13,1.98,-1.84,0.05,
1.85,1.84,1.42,-4.72,1.98,-1.84,0.05,
1.851,1.84,1.42,-4.72,1.98,-1.84,0.05,
1.857,1.84,1.42,-4.72,2.07,-1.04,-0.06,
1.858,1.84,1.42,-4.72,2.07,-1.04,-0.06,
1.859,1.47,1.91,-4.78,2.07,-1.04,-0.06,
1.859,1.47,1.91,-4.78,2.07,-1.04,-0.06,
1.866,1.47,1.91,-4.78,2.11,-0.75,-0.26,
1.867,1.47,1.91,-4.78,2.11,-0.75,-0.26,
1.868,1.14,2.31,-4.72,2.11,-0.75,-0.26,
1.868,1.14,2.31,-4.72,2.11,-0.75,-0.26,
1.877,1.14,2.31,-4.72,2.09,-0.81,-0.49,
1.878,1.14,2.31,-4.72,2.09,-0.81,-0.49,
1.878,0.94,2.66,-4.69,2.09,-0.81,-0.49,
1.879,0.94,2.66,-4.69,2.09,-0.81,-0.49,
1.888,0.94,2.66,-4.69,2.02,-1.01,-0.72,
1.889,0.94,2.66,-4.69,2.02,-1.01,-0.72,
1.89,0.71,2.85,-4.40,2.02,-1.01,-0.72,
1.89,0.71,2.85,-4.40,2.02,-1.01,-0.72,
1.896,0.71,2.85,-4.40,1.92,-1.17,-0.93,
1.897,0.71,2.85,-4.40,1.92,-1.17,-0.93,
1.898,0.41,2.93,-4.00,1.92,-1.17,-0.93,
1.899,0.41,2.93,-4.00,1.92,-1.17,-0.93,
1.905,0.41,2.93,-4.00,1.79,-1.22,-1.12,
1.906,0.41,2.93,-4.00,1.79,-1.22,-1.12,
1.907,0.18,2.72,-3.46,1.79,-1.22,-1.12,
1.908,0.18,2.72,-3.46,1.79,-1.22,-1.12,
1.916,0.18,2.72,-3.46,1.65,-1.14,-1.24,
1.918,0.18,2.72,-3.46,1.65,-1.14,-1.24,
1.919,-0.02,2.30,-2.80,1.65,-1.14,-1.24,
1.92,-0.02,2.30,-2.80,1.65,-1.14,-1.24,
1.924,-0.02,2.30,-2.80,1.53,-0.92,-1.25,
1.925,-0.02,2.30,-2.80,1.53,-0.92,-1.25,
1.926,-0.07,1.75,-2.32,1.53,-0.92,-1.25,
1.926,-0.07,1.75,-2.32,1.53,-0.92,-1.25,
1.933,-0.07,1.75,-2.32,1.46,-0.59,-1.11,
1.935,-0.07,1.75,-2.32,1.46,-0.59,-1.11,
1.935,0.06,1.13,-2.17,1.46,-0.59,-1.11,
1.936,0.06,1.13,-2.17,1.46,-0.59,-1.11,
1.943,0.06,1.13,-2.17,1.43,-0.19,-0.81,
1.944,0.06,1.13,-2.17,1.43,-0.19,-0.81,
1.944,0.32,0.69,-2.40,1.43,-0.19,-0.81,
1.945,0.32,0.69,-2.40,1.43,-0.19,-0.81,
1.953,0.32,0.69,-2.40,1.39,0.19,-0.39,
1.954,0.32,0.69,-2.40,1.39,0.19,-0.39,
1.955,0.69,0.44,-2.82,1.39,0.19,-0.39,
1.956,0.69,0.44,-2.82,1.39,0.19,-0.39,
1.962,0.69,0.44,-2.82,1.33,0.41,0.08,
1.963,0.69,0.44,-2.82,1.33,0.41,0.08,
1.964,0.98,0.31,-3.21,1.33,0.41,0.08,
1.965,0.98,0.31,-3.21,1.33,0.41,0.08,
1.972,0.98,0.31,-3.21,1.23,0.41,0.50,
1.973,0.98,0.31,-3.21,1.23,0.41,0.50,
1.973,1.12,0.18,-3.41,1.23,0.41,0.50,
1.974,1.12,0.18,-3.41,1.23,0.41,0.50,
1.987,1.12,0.18,-3.41,1.11,0.17,0.79,
1.988,1.12,0.18,-3.41,1.11,0.17,0.79,
1.989,1.14,-0.01,-3.34,1.11,0.17,0.79,
1.989,1.14,-0.01,-3.34,1.11,0.17,0.79,
1.991,1.14,-0.01,-3.34,0.99,-0.20,0.95,
1.991,1.14,-0.01,-3.34,0.99,-0.20,0.95,
1.992,0.98,-0.35,-3.09,0.99,-0.20,0.95,
1.992,0.98,-0.35,-3.09,0.99,-0.20,0.95,
2.0,0.98,-0.35,-3.09,0.99,-0.20,0.95,
2.001,0.98,-0.35,-3.09,0.99,-0.20,0.95,
2.002,0.98,-0.35,-3.09,0.99,-0.20,0.95,
2.002,0.98,-0.35,-3.09,0.99,-0.20,0.95,
2.011,0.98,-0.35,-3.09,0.87,-0.56,1.04,
2.012,0.98,-0.35,-3.09,0.87,-0.56,1.04,
2.013,0.29,-1.04,-2.37,0.87,-0.56,1.04,
2.013,0.29,-1.04,-2.37,0.87,-0.56,1.04,
2.019,0.29,-1.04,-2.37,0.78,-0.81,1.11,
2.02,0.29,-1.04,-2.37,0.78,-0.81,1.11,
2.021,-0.20,-1.27,-2.09,0.78,-0.81,1.11,
2.022,-0.20,-1.27,-2.09,0.78,-0.81,1.11,
2.029,-0.20,-1.27,-2.09,0.73,-0.91,1.26,
2.03,-0.20,-1.27,-2.09,0.73,-0.91,1.26,
2.03,-0.67,-1.25,-2.00,0.73,-0.91,1.26,
2.031,-0.67,-1.25,-2.00,0.73,-0.91,1.26,
2.038,-0.67,-1.25,-2.00,0.71,-0.88,1.48,
2.039,-0.67,-1.25,-2.00,0.71,-0.88,1.48,
2.04,-1.07,-1.09,-2.05,0.71,-0.88,1.48,
2.041,-1.07,-1.09,-2.05,0.71,-0.88,1.48,
2.05,-1.07,-1.09,-2.05,0.70,-0.77,1.72,
2.051,-1.07,-1.09,-2.05,0.70,-0.77,1.72,
2.052,-1.26,-0.87,-2.08,0.70,-0.77,1.72,
2.053,-1.26,-0.87,-2.08,0.70,-0.77,1.72,
2.058,-1.26,-0.87,-2.08,0.65,-0.67,1.90,
2.059,-1.26,-0.87,-2.08,0.65,-0.67,1.90,
2.06,-1.50,-0.61,-1.92,0.65,-0.67,1.90,
2.06,-1.50,-0.61,-1.92,0.65,-0.67,1.90,
2.067,-1.50,-0.61,-1.92,0.56,-0.59,1.97,
2.068,-1.50,-0.61,-1.92,0.56,-0.59,1.97,
2.069,-1.81,-0.52,-1.67,0.56,-0.59,1.97,
2.07,-1.81,-0.52,-1.67,0.56,-0.59,1.97,
2.076,-1.81,-0.52,-1.67,0.45,-0.54,1.94,
2.078,-1.81,-0.52,-1.67,0.45,-0.54,1.94,
2.078,-2.27,-0.43,-1.42,0.45,-0.54,1.94,
2.079,-2.27,-0.43,-1.42,0.45,-0.54,1.94,
2.09,-2.27,-0.43,-1.42,0.34,-0.49,1.85,
2.092,-2.27,-0.43,-1.42,0.34,-0.49,1.85,
2.092,-2.87,-0.37,-1.25,0.34,-0.49,1.85,
2.093,-2.87,-0.37,-1.25,0.34,-0.49,1.85,
2.1,-2.87,-0.37,-1.25,0.26,-0.42,1.75,
2.101,-2.87,-0.37,-1.25,0.26,-0.42,1.75,
2.102,-4.71,-0.35,-1.11,0.26,-0.42,1.75,
2.102,-4.71,-0.35,-1.11,0.26,-0.42,1.75,
2.105,-4.71,-0.35,-1.11,0.22,-0.33,1.73,
2.106,-4.71,-0.35,-1.11,0.22,-0.33,1.73,
2.106,-4.66,-0.29,-0.76,0.22,-0.33,1.73,
2.107,-4.66,-0.29,-0.76,0.22,-0.33,1.73,
2.115,-4.66,-0.29,-0.76,0.21,-0.25,1.85,
2.117,-4.66,-0.29,-0.76,0.21,-0.25,1.85,
2.117,-4.29,-0.24,-0.64,0.21,-0.25,1.85,
2.118,-4.29,-0.24,-0.64,0.21,-0.25,1.85,
2.124,-4.29,-0.24,-0.64,0.23,-0.16,2.07,
2.124,-4.29,-0.24,-0.64,0.23,-0.16,2.07,
2.125,-3.91,-0.17,-0.76,0.23,-0.16,2.07,
2.125,-3.91,-0.17,-0.76,0.23,-0.16,2.07,
2.136,-3.91,-0.17,-0.76,0.25,-0.06,2.27,
2.137,-3.91,-0.17,-0.76,0.25,-0.06,2.27,
2.138,-2.30,-0.13,-0.89,0.25,-0.06,2.27,
2.138,-2.30,-0.13,-0.89,0.25,-0.06,2.27,
2.142,-2.30,-0.13,-0.89,0.25,0.01,2.25,
2.143,-2.30,-0.13,-0.89,0.25,0.01,2.25,
2.144,-2.22,-0.16,-1.15,0.25,0.01,2.25,
2.144,-2.22,-0.16,-1.15,0.25,0.01,2.25,
2.152,-2.22,-0.16,-1.15,0.20,-0.02,1.94,
2.153,-2.22,-0.16,-1.15,0.20,-0.02,1.94,
2.153,-2.12,-0.21,-0.99,0.20,-0.02,1.94,
2.154,-2.12,-0.21,-0.99,0.20,-0.02,1.94,
2.162,-2.12,-0.21,-0.99,0.10,-0.12,1.42,
2.162,-2.12,-0.21,-0.99,0.10,-0.12,1.42,
2.163,-1.70,-0.31,-0.50,0.10,-0.12,1.42,
2.164,-1.70,-0.31,-0.50,0.10,-0.12,1.42,
2.171,-1.70,-0.31,-0.50,0.04,-0.23,0.86,
2.172,-1.70,-0.31,-0.50,0.04,-0.23,0.86,
2.173,-1.15,-0.41,-0.19,0.04,-0.23,0.86,
2.174,-1.15,-0.41,-0.19,0.04,-0.23,0.86,
2.187,-1.15,-0.41,-0.19,0.03,-0.23,0.37,
2.188,-1.15,-0.41,-0.19,0.03,-0.23,0.37,
2.189,-0.78,-0.46,-0.05,0.03,-0.23,0.37,
2.19,-0.78,-0.46,-0.05,0.03,-0.23,0.37,
2.191,-0.78,-0.46,-0.05,0.04,-0.10,-0.04,
2.191,-0.78,-0.46,-0.05,0.04,-0.10,-0.04,
2.192,-0.60,-0.56,-0.01,0.04,-0.10,-0.04,
2.192,-0.60,-0.56,-0.01,0.04,-0.10,-0.04,
2.199,-0.60,-0.56,-0.01,0.04,-0.10,-0.04,
2.2,-0.60,-0.56,-0.01,0.04,-0.10,-0.04,
2.201,-0.60,-0.56,-0.01,0.04,-0.10,-0.04,
2.202,-0.60,-0.56,-0.01,0.04,-0.10,-0.04,
2.209,-0.60,-0.56,-0.01,-0.02,0.13,-0.38,
2.211,-0.60,-0.56,-0.01,-0.02,0.13,-0.38,
2.211,-1.31,-1.25,-0.38,-0.02,0.13,-0.38,
2.212,-1.31,-1.25,-0.38,-0.02,0.13,-0.38,
2.231,-1.31,-1.25,-0.38,-0.01,0.35,-0.61,
2.233,-1.31,-1.25,-0.38,-0.01,0.35,-0.61,
2.233,-1.55,-2.93,-0.59,-0.01,0.35,-0.61,
2.234,-1.55,-2.93,-0.59,-0.01,0.35,-0.61,
2.234,-1.55,-2.93,-0.59,-0.01,0.35,-0.61,
2.235,-1.55,-2.93,-0.59,-0.01,0.35,-0.61,
2.235,-1.55,-2.93,-0.59,-0.01,0.35,-0.61,
2.236,-1.55,-2.93,-0.59,-0.01,0.35,-0.61,
2.238,-1.55,-2.93,-0.59,-0.27,0.49,-0.31,
2.239,-1.55,-2.93,-0.59,-0.27,0.49,-0.31,
2.239,-1.39,-2.96,-1.14,-0.27,0.49,-0.31,
2.24,-1.39,-2.96,-1.14,-0.27,0.49,-0.31,
2.249,-1.39,-2.96,-1.14,-0.84,0.17,0.81,
2.25,-1.39,-2.96,-1.14,-0.84,0.17,0.81,
2.25,0.46,-2.45,-1.00,-0.84,0.17,0.81,
2.251,0.46,-2.45,-1.00,-0.84,0.17,0.81,
2.257,0.46,-2.45,-1.00,-0.84,0.17,0.81,
2.258,0.46,-2.45,-1.00,-0.84,0.17,0.81,
2.259,0.46,-2.45,-1.00,-0.84,0.17,0.81,
2.259,0.46,-2.45,-1.00,-0.84,0.17,0.81,
2.268,0.46,-2.45,-1.00,-1.16,-0.02,0.80,
2.269,0.46,-2.45,-1.00,-1.16,-0.02,0.80,
2.27,0.80,-1.87,-0.01,-1.16,-0.02,0.80,
2.271,0.80,-1.87,-0.01,-1.16,-0.02,0.80,
2.276,0.80,-1.87,-0.01,-1.14,0.08,0.45,
2.278,0.80,-1.87,-0.01,-1.14,0.08,0.45,
2.279,0.89,-2.34,1.49,-1.14,0.08,0.45,
2.279,0.89,-2.34,1.49,-1.14,0.08,0.45,
2.29,0.89,-2.34,1.49,-1.00,0.29,0.14,
2.292,0.89,-2.34,1.49,-1.00,0.29,0.14,
2.293,0.70,-4.25,1.60,-1.00,0.29,0.14,
2.294,0.70,-4.25,1.60,-1.00,0.29,0.14,
2.295,0.70,-4.25,1.60,-0.77,0.60,-0.03,
2.295,0.70,-4.25,1.60,-0.77,0.60,-0.03,
2.296,-1.37,-4.68,1.32,-0.77,0.60,-0.03,
2.297,-1.37,-4.68,1.32,-0.77,0.60,-0.03,
2.305,-1.37,-4.68,1.32,-0.51,0.94,0.06,
2.306,-1.37,-4.68,1.32,-0.51,0.94,0.06,
2.306,-1.75,-4.99,0.83,-0.51,0.94,0.06,
2.306,-1.75,-4.99,0.83,-0.51,0.94,0.06,
2.316,-1.75,-4.99,0.83,-0.28,1.20,0.47,
2.318,-1.75,-4.99,0.83,-0.28,1.20,0.47,
2.319,-3.31,-5.14,0.57,-0.28,1.20,0.47,
2.32,-3.31,-5.14,0.57,-0.28,1.20,0.47,
2.324,-3.31,-5.14,0.57,-0.14,1.31,1.10,
2.325,-3.31,-5.14,0.57,-0.14,1.31,1.10,
2.326,-3.76,-5.09,0.21,-0.14,1.31,1.10,
2.327,-3.76,-5.09,0.21,-0.14,1.31,1.10,
2.333,-3.76,-5.09,0.21,-0.10,1.27,1.82,
2.335,-3.76,-5.09,0.21,-0.10,1.27,1.82,
2.336,-4.30,-4.83,-0.00,-0.10,1.27,1.82,
2.337,-4.30,-4.83,-0.00,-0.10,1.27,1.82,
2.342,-4.30,-4.83,-0.00,-0.11,1.10,2.50,
2.344,-4.30,-4.83,-0.00,-0.11,1.10,2.50,
2.345,-4.59,-4.41,-0.02,-0.11,1.10,2.50,
2.346,-4.59,-4.41,-0.02,-0.11,1.10,2.50,
2.352,-4.59,-4.41,-0.02,-0.15,0.87,3.05,
2.354,-4.59,-4.41,-0.02,-0.15,0.87,3.05,
2.354,-4.40,-3.80,-0.25,-0.15,0.87,3.05,
2.355,-4.40,-3.80,-0.25,-0.15,0.87,3.05,
2.362,-4.40,-3.80,-0.25,-0.19,0.61,3.43,
2.362,-4.40,-3.80,-0.25,-0.19,0.61,3.43,
2.363,-3.92,-3.19,-0.27,-0.19,0.61,3.43,
2.363,-3.92,-3.19,-0.27,-0.19,0.61,3.43,
2.374,-3.92,-3.19,-0.27,-0.23,0.37,3.57,
2.376,-3.92,-3.19,-0.27,-0.23,0.37,3.57,
2.377,-3.29,-2.70,0.00,-0.23,0.37,3.57,
2.377,-3.29,-2.70,0.00,-0.23,0.37,3.57,
2.382,-3.29,-2.70,0.00,-0.25,0.14,3.48,
2.383,-3.29,-2.70,0.00,-0.25,0.14,3.48,
2.384,-1.72,-2.30,0.48,-0.25,0.14,3.48,
2.385,-1.72,-2.30,0.48,-0.25,0.14,3.48,
2.391,-1.72,-2.30,0.48,-0.23,-0.03,3.12,
2.393,-1.72,-2.30,0.48,-0.23,-0.03,3.12,
2.394,-1.46,-2.03,0.85,-0.23,-0.03,3.12,
2.395,-1.46,-2.03,0.85,-0.23,-0.03,3.12,
2.401,-1.46,-2.03,0.85,-0.23,-0.03,3.12,
2.402,-1.46,-2.03,0.85,-0.23,-0.03,3.12,
2.402,-1.46,-2.03,0.85,-0.23,-0.03,3.12,
2.403,-1.46,-2.03,0.85,-0.23,-0.03,3.12,
2.409,-1.46,-2.03,0.85,-0.13,-0.13,2.52,
2.41,-1.46,-2.03,0.85,-0.13,-0.13,2.52,
2.41,-1.70,-1.85,0.96,-0.13,-0.13,2.52,
2.41,-1.70,-1.85,0.96,-0.13,-0.13,2.52,
2.419,-1.70,-1.85,0.96,0.03,-0.15,1.79,
2.419,-1.70,-1.85,0.96,0.03,-0.15,1.79,
2.42,-2.22,-1.88,0.59,0.03,-0.15,1.79,
2.42,-2.22,-1.88,0.59,0.03,-0.15,1.79,
2.429,-2.22,-1.88,0.59,0.22,-0.13,1.11,
2.43,-2.22,-1.88,0.59,0.22,-0.13,1.11,
2.43,-3.59,-1.95,0.10,0.22,-0.13,1.11,
2.431,-3.59,-1.95,0.10,0.22,-0.13,1.11,
2.438,-3.59,-1.95,0.10,0.35,-0.12,0.67,
2.439,-3.59,-1.95,0.10,0.35,-0.12,0.67,
2.44,-3.74,-2.00,-0.28,0.35,-0.12,0.67,
2.44,-3.74,-2.00,-0.28,0.35,-0.12,0.67,
2.449,-3.74,-2.00,-0.28,0.39,-0.17,0.55,
2.45,-3.74,-2.00,-0.28,0.39,-0.17,0.55,
2.45,-3.93,-2.06,-0.58,0.39,-0.17,0.55,
2.451,-3.93,-2.06,-0.58,0.39,-0.17,0.55,
2.457,-3.93,-2.06,-0.58,0.33,-0.30,0.69,
2.458,-3.93,-2.06,-0.58,0.33,-0.30,0.69,
2.458,-4.03,-2.06,-0.79,0.33,-0.30,0.69,
2.459,-4.03,-2.06,-0.79,0.33,-0.30,0.69,
2.466,-4.03,-2.06,-0.79,0.18,-0.49,0.96,
2.467,-4.03,-2.06,-0.79,0.18,-0.49,0.96,
2.468,-4.10,-2.09,-0.78,0.18,-0.49,0.96,
2.468,-4.10,-2.09,-0.78,0.18,-0.49,0.96,
2.477,-4.10,-2.09,-0.78,0.00,-0.69,1.24,
2.478,-4.10,-2.09,-0.78,0.00,-0.69,1.24,
2.48,-4.14,-2.21,-0.64,0.00,-0.69,1.24,
2.48,-4.14,-2.21,-0.64,0.00,-0.69,1.24,
2.491,-4.14,-2.21,-0.64,-0.16,-0.86,1.47,
2.492,-4.14,-2.21,-0.64,-0.16,-0.86,1.47,
2.492,-4.07,-2.34,-0.47,-0.16,-0.86,1.47,
2.493,-4.07,-2.34,-0.47,-0.16,-0.86,1.47,
2.495,-4.07,-2.34,-0.47,-0.28,-0.96,1.64,
2.496,-4.07,-2.34,-0.47,-0.28,-0.96,1.64,
2.496,-3.98,-2.52,-0.21,-0.28,-0.96,1.64,
2.496,-3.98,-2.52,-0.21,-0.28,-0.96,1.64,
2.507,-3.98,-2.52,-0.21,-0.32,-0.97,1.75,
2.508,-3.98,-2.52,-0.21,-0.32,-0.97,1.75,
2.508,-3.87,-2.69,-0.00,-0.32,-0.97,1.75,
2.508,-3.87,-2.69,-0.00,-0.32,-0.97,1.75,
2.515,-3.87,-2.69,-0.00,-0.28,-0.92,1.80,
2.516,-3.87,-2.69,-0.00,-0.28,-0.92,1.80,
2.516,-3.75,-2.84,0.16,-0.28,-0.92,1.80,
2.517,-3.75,-2.84,0.16,-0.28,-0.92,1.80,
2.524,-3.75,-2.84,0.16,-0.18,-0.81,1.81,
2.525,-3.75,-2.84,0.16,-0.18,-0.81,1.81,
2.525,-3.64,-2.87,0.25,-0.18,-0.81,1.81,
2.526,-3.64,-2.87,0.25,-0.18,-0.81,1.81,
2.533,-3.64,-2.87,0.25,-0.05,-0.66,1.78,
2.535,-3.64,-2.87,0.25,-0.05,-0.66,1.78,
2.535,-3.51,-2.59,0.16,-0.05,-0.66,1.78,
2.536,-3.51,-2.59,0.16,-0.05,-0.66,1.78,
2.543,-3.51,-2.59,0.16,0.07,-0.50,1.70,
2.544,-3.51,-2.59,0.16,0.07,-0.50,1.70,
2.544,-3.42,-0.08,-0.04,0.07,-0.50,1.70,
2.545,-3.42,-0.08,-0.04,0.07,-0.50,1.70,
2.552,-3.42,-0.08,-0.04,0.14,-0.34,1.58,
2.553,-3.42,-0.08,-0.04,0.14,-0.34,1.58,
2.554,-1.56,5.52,-0.47,0.14,-0.34,1.58,
2.555,-1.56,5.52,-0.47,0.14,-0.34,1.58,
2.561,-1.56,5.52,-0.47,0.16,-0.18,1.28,
2.562,-1.56,5.52,-0.47,0.16,-0.18,1.28,
2.563,-1.59,7.70,-0.70,0.16,-0.18,1.28,
2.563,-1.59,7.70,-0.70,0.16,-0.18,1.28,
2.571,-1.59,7.70,-0.70,0.11,-0.03,0.62,
2.572,-1.59,7.70,-0.70,0.11,-0.03,0.62,
2.573,-2.03,9.32,-0.24,0.11,-0.03,0.62,
2.573,-2.03,9.32,-0.24,0.11,-0.03,0.62,
2.587,-2.03,9.32,-0.24,0.00,0.13,-0.51,
2.588,-2.03,9.32,-0.24,0.00,0.13,-0.51,
2.589,-2.49,9.37,1.66,0.00,0.13,-0.51,
2.59,-2.49,9.37,1.66,0.00,0.13,-0.51,
2.595,-2.49,9.37,1.66,0.00,0.13,-0.51,
2.596,-2.49,9.37,1.66,0.00,0.13,-0.51,
2.597,-2.49,9.37,1.66,0.00,0.13,-0.51,
2.598,-2.49,9.37,1.66,0.00,0.13,-0.51,
2.6,-2.49,9.37,1.66,-0.04,0.34,-2.05,
2.601,-2.49,9.37,1.66,-0.04,0.34,-2.05,
2.602,-6.13,1.94,3.64,-0.04,0.34,-2.05,
2.602,-6.13,1.94,3.64,-0.04,0.34,-2.05,
2.61,-6.13,1.94,3.64,0.26,0.77,-3.38,
2.611,-6.13,1.94,3.64,0.26,0.77,-3.38,
2.611,-6.14,-0.27,3.64,0.26,0.77,-3.38,
2.612,-6.14,-0.27,3.64,0.26,0.77,-3.38,
2.619,-6.14,-0.27,3.64,1.06,1.65,-3.30,
2.62,-6.14,-0.27,3.64,1.06,1.65,-3.30,
2.62,-6.23,-0.82,3.29,1.06,1.65,-3.30,
2.621,-6.23,-0.82,3.29,1.06,1.65,-3.30,
2.628,-6.23,-0.82,3.29,1.98,2.88,-1.35,
2.629,-6.23,-0.82,3.29,1.98,2.88,-1.35,
2.63,-6.39,-1.38,1.29,1.98,2.88,-1.35,
2.63,-6.39,-1.38,1.29,1.98,2.88,-1.35,
2.638,-6.39,-1.38,1.29,2.35,3.82,1.34,
2.639,-6.39,-1.38,1.29,2.35,3.82,1.34,
2.64,-6.27,-1.76,-2.07,2.35,3.82,1.34,
2.641,-6.27,-1.76,-2.07,2.35,3.82,1.34,
2.649,-6.27,-1.76,-2.07,1.91,3.73,3.46,
2.65,-6.27,-1.76,-2.07,1.91,3.73,3.46,
2.651,-5.74,-1.89,-3.90,1.91,3.73,3.46,
2.651,-5.74,-1.89,-3.90,1.91,3.73,3.46,
2.657,-5.74,-1.89,-3.90,1.88,3.44,4.75,
2.658,-5.74,-1.89,-3.90,1.88,3.44,4.75,
2.659,-5.08,-2.07,-4.33,1.88,3.44,4.75,
2.659,-5.08,-2.07,-4.33,1.88,3.44,4.75,
2.667,-5.08,-2.07,-4.33,1.14,2.20,5.36,
2.668,-5.08,-2.07,-4.33,1.14,2.20,5.36,
2.669,-4.37,-2.09,-2.55,1.14,2.20,5.36,
2.67,-4.37,-2.09,-2.55,1.14,2.20,5.36,
2.687,-4.37,-2.09,-2.55,-0.89,-0.09,5.25,
2.688,-4.37,-2.09,-2.55,-0.89,-0.09,5.25,
2.688,-3.72,-1.74,0.53,-0.89,-0.09,5.25,
2.689,-3.72,-1.74,0.53,-0.89,-0.09,5.25,
2.69,-3.72,-1.74,0.53,-2.11,-1.42,4.59,
2.69,-3.72,-1.74,0.53,-2.11,-1.42,4.59,
2.691,-3.29,-1.22,2.05,-2.11,-1.42,4.59,
2.692,-3.29,-1.22,2.05,-2.11,-1.42,4.59,
2.695,-3.29,-1.22,2.05,-2.25,-1.69,3.71,
2.697,-3.29,-1.22,2.05,-2.25,-1.69,3.71,
2.698,-2.93,-0.71,2.41,-2.25,-1.69,3.71,
2.699,-2.93,-0.71,2.41,-2.25,-1.69,3.71,
2.704,-2.93,-0.71,2.41,-1.53,-1.28,2.83,
2.705,-2.93,-0.71,2.41,-1.53,-1.28,2.83,
2.706,-2.74,-0.24,2.47,-1.53,-1.28,2.83,
2.706,-2.74,-0.24,2.47,-1.53,-1.28,2.83,
2.715,-2.74,-0.24,2.47,-0.46,-0.63,2.02,
2.716,-2.74,-0.24,2.47,-0.46,-0.63,2.02,
2.717,-2.71,0.27,2.06,-0.46,-0.63,2.02,
2.717,-2.71,0.27,2.06,-0.46,-0.63,2.02,
2.723,-2.71,0.27,2.06,0.52,-0.07,1.33,
2.724,-2.71,0.27,2.06,0.52,-0.07,1.33,
2.725,-2.88,0.84,1.41,0.52,-0.07,1.33,
2.725,-2.88,0.84,1.41,0.52,-0.07,1.33,
2.733,-2.88,0.84,1.41,1.17,0.26,0.79,
2.735,-2.88,0.84,1.41,1.17,0.26,0.79,
2.736,-3.06,1.51,-0.27,1.17,0.26,0.79,
2.737,-3.06,1.51,-0.27,1.17,0.26,0.79,
2.742,-3.06,1.51,-0.27,1.44,0.35,0.42,
2.744,-3.06,1.51,-0.27,1.44,0.35,0.42,
2.745,-3.02,3.05,-0.34,1.44,0.35,0.42,
2.746,-3.02,3.05,-0.34,1.44,0.35,0.42,
2.752,-3.02,3.05,-0.34,1.33,0.21,0.24,
2.753,-3.02,3.05,-0.34,1.33,0.21,0.24,
2.754,-2.93,3.30,-0.45,1.33,0.21,0.24,
2.754,-2.93,3.30,-0.45,1.33,0.21,0.24,
2.761,-2.93,3.30,-0.45,0.96,-0.07,0.20,
2.762,-2.93,3.30,-0.45,0.96,-0.07,0.20,
2.763,-4.60,-2.15,-0.26,0.96,-0.07,0.20,
2.763,-4.60,-2.15,-0.26,0.96,-0.07,0.20,
2.771,-4.60,-2.15,-0.26,0.49,-0.40,0.30,
2.772,-4.60,-2.15,-0.26,0.49,-0.40,0.30,
2.773,-8.12,-10.41,-0.02,0.49,-0.40,0.30,
2.775,-8.12,-10.41,-0.02,0.49,-0.40,0.30,
2.781,-8.12,-10.41,-0.02,0.05,-0.74,0.76,
2.782,-8.12,-10.41,-0.02,0.05,-0.74,0.76,
2.782,-7.93,-17.36,0.11,0.05,-0.74,0.76,
2.783,-7.93,-17.36,0.11,0.05,-0.74,0.76,
2.793,-7.93,-17.36,0.11,0.05,-0.74,0.76,
2.794,-7.93,-17.36,0.11,0.05,-0.74,0.76,
2.795,-7.93,-17.36,0.11,0.05,-0.74,0.76,
2.795,-7.93,-17.36,0.11,0.05,-0.74,0.76,
2.8,-7.93,-17.36,0.11,-0.18,-0.97,1.65,
2.8,-7.93,-17.36,0.11,-0.18,-0.97,1.65,
2.801,-0.91,-11.84,0.25,-0.18,-0.97,1.65,
2.801,-0.91,-11.84,0.25,-0.18,-0.97,1.65,
2.809,-0.91,-11.84,0.25,-0.32,-1.16,2.38,
2.809,-0.91,-11.84,0.25,-0.32,-1.16,2.38,
2.81,5.07,-2.05,0.50,-0.32,-1.16,2.38,
2.81,5.07,-2.05,0.50,-0.32,-1.16,2.38,
2.818,5.07,-2.05,0.50,-0.45,-1.28,2.23,
2.819,5.07,-2.05,0.50,-0.45,-1.28,2.23,
2.82,5.52,5.39,0.99,-0.45,-1.28,2.23,
2.82,5.52,5.39,0.99,-0.45,-1.28,2.23,
2.829,5.52,5.39,0.99,-0.41,-1.18,1.09,
2.83,5.52,5.39,0.99,-0.41,-1.18,1.09,
2.831,3.11,5.71,2.67,-0.41,-1.18,1.09,
2.831,3.11,5.71,2.67,-0.41,-1.18,1.09,
2.838,3.11,5.71,2.67,-0.18,-0.98,-0.61,
2.84,3.11,5.71,2.67,-0.18,-0.98,-0.61,
2.841,-0.32,3.16,2.69,-0.18,-0.98,-0.61,
2.842,-0.32,3.16,2.69,-0.18,-0.98,-0.61,
2.851,-0.32,3.16,2.69,0.25,-0.80,-2.24,
2.853,-0.32,3.16,2.69,0.25,-0.80,-2.24,
2.854,-3.18,0.67,2.57,0.25,-0.80,-2.24,
2.856,-3.18,0.67,2.57,0.25,-0.80,-2.24,
2.857,-3.18,0.67,2.57,0.86,-0.65,-3.10,
2.858,-3.18,0.67,2.57,0.86,-0.65,-3.10,
2.86,-3.58,0.14,2.13,0.86,-0.65,-3.10,
2.862,-3.58,0.14,2.13,0.86,-0.65,-3.10,
2.868,-3.58,0.14,2.13,1.43,-0.48,-2.82,
2.869,-3.58,0.14,2.13,1.43,-0.48,-2.82,
2.87,-3.76,-0.19,1.48,1.43,-0.48,-2.82,
2.871,-3.76,-0.19,1.48,1.43,-0.48,-2.82,
2.875,-3.76,-0.19,1.48,1.75,-0.30,-1.67,
2.876,-3.76,-0.19,1.48,1.75,-0.30,-1.67,
2.877,-3.61,-0.00,0.93,1.75,-0.30,-1.67,
2.877,-3.61,-0.00,0.93,1.75,-0.30,-1.67,
2.885,-3.61,-0.00,0.93,1.74,-0.17,-0.29,
2.885,-3.61,-0.00,0.93,1.74,-0.17,-0.29,
2.886,-3.35,0.25,0.57,1.74,-0.17,-0.29,
2.886,-3.35,0.25,0.57,1.74,-0.17,-0.29,
2.894,-3.35,0.25,0.57,1.47,-0.14,0.84,
2.895,-3.35,0.25,0.57,1.47,-0.14,0.84,
2.895,-3.17,0.43,0.48,1.47,-0.14,0.84,
2.895,-3.17,0.43,0.48,1.47,-0.14,0.84,
2.904,-3.17,0.43,0.48,1.08,-0.18,1.59,
2.905,-3.17,0.43,0.48,1.08,-0.18,1.59,
2.905,-3.04,0.51,0.55,1.08,-0.18,1.59,
2.905,-3.04,0.51,0.55,1.08,-0.18,1.59,
2.914,-3.04,0.51,0.55,0.68,-0.25,2.02,
2.915,-3.04,0.51,0.55,0.68,-0.25,2.02,
2.916,-2.87,0.54,0.62,0.68,-0.25,2.02,
2.916,-2.87,0.54,0.62,0.68,-0.25,2.02,
2.923,-2.87,0.54,0.62,0.36,-0.31,2.22,
2.924,-2.87,0.54,0.62,0.36,-0.31,2.22,
2.925,-2.76,0.46,0.62,0.36,-0.31,2.22,
2.926,-2.76,0.46,0.62,0.36,-0.31,2.22,
2.932,-2.76,0.46,0.62,0.13,-0.35,2.26,
2.934,-2.76,0.46,0.62,0.13,-0.35,2.26,
2.935,-2.82,0.12,0.46,0.13,-0.35,2.26,
2.936,-2.82,0.12,0.46,0.13,-0.35,2.26,
2.942,-2.82,0.12,0.46,-0.01,-0.36,2.20,
2.943,-2.82,0.12,0.46,-0.01,-0.36,2.20,
2.944,-3.00,-0.23,0.16,-0.01,-0.36,2.20,
2.944,-3.00,-0.23,0.16,-0.01,-0.36,2.20,
2.953,-3.00,-0.23,0.16,-0.12,-0.35,2.09,
2.954,-3.00,-0.23,0.16,-0.12,-0.35,2.09,
2.955,-3.19,-0.47,-0.20,-0.12,-0.35,2.09,
2.955,-3.19,-0.47,-0.20,-0.12,-0.35,2.09,
2.962,-3.19,-0.47,-0.20,-0.25,-0.30,1.99,
2.962,-3.19,-0.47,-0.20,-0.25,-0.30,1.99,
2.963,-3.23,-0.49,-0.48,-0.25,-0.30,1.99,
2.964,-3.23,-0.49,-0.48,-0.25,-0.30,1.99,
2.971,-3.23,-0.49,-0.48,-0.42,-0.24,1.92,
2.972,-3.23,-0.49,-0.48,-0.42,-0.24,1.92,
2.973,-3.06,-0.28,-0.57,-0.42,-0.24,1.92,
2.973,-3.06,-0.28,-0.57,-0.42,-0.24,1.92,
2.987,-3.06,-0.28,-0.57,-0.42,-0.24,1.92,
2.988,-3.06,-0.28,-0.57,-0.42,-0.24,1.92,
2.988,-3.06,-0.28,-0.57,-0.42,-0.24,1.92,
2.989,-3.06,-0.28,-0.57,-0.42,-0.24,1.92,
2.99,-3.06,-0.28,-0.57,-0.62,-0.20,1.87,
2.99,-3.06,-0.28,-0.57,-0.62,-0.20,1.87,
2.991,-2.43,0.15,-0.26,-0.62,-0.20,1.87,
2.991,-2.43,0.15,-0.26,-0.62,-0.20,1.87,
2.999,-2.43,0.15,-0.26,-0.79,-0.19,1.81,
3.0,-2.43,0.15,-0.26,-0.79,-0.19,1.81,
3.001,-2.06,0.33,-0.07,-0.79,-0.19,1.81,
3.001,-2.06,0.33,-0.07,-0.79,-0.19,1.81,
3.009,-2.06,0.33,-0.07,-0.86,-0.18,1.68,
3.01,-2.06,0.33,-0.07,-0.86,-0.18,1.68,
3.01,-1.81,0.43,0.10,-0.86,-0.18,1.68,
3.011,-1.81,0.43,0.10,-0.86,-0.18,1.68,
3.019,-1.81,0.43,0.10,-0.81,-0.10,1.46,
3.02,-1.81,0.43,0.10,-0.81,-0.10,1.46,
3.02,-1.65,0.48,0.25,-0.81,-0.10,1.46,
3.021,-1.65,0.48,0.25,-0.81,-0.10,1.46,
3.028,-1.65,0.48,0.25,-0.65,0.01,1.19,
3.029,-1.65,0.48,0.25,-0.65,0.01,1.19,
3.029,-1.46,0.46,0.38,-0.65,0.01,1.19,
3.03,-1.46,0.46,0.38,-0.65,0.01,1.19,
3.037,-1.46,0.46,0.38,-0.44,0.12,0.92,
3.039,-1.46,0.46,0.38,-0.44,0.12,0.92,
3.039,-1.24,0.39,0.41,-0.44,0.12,0.92,
3.04,-1.24,0.39,0.41,-0.44,0.12,0.92,
3.048,-1.24,0.39,0.41,-0.22,0.21,0.68,
3.049,-1.24,0.39,0.41,-0.22,0.21,0.68,
3.05,-1.01,0.31,0.40,-0.22,0.21,0.68,
3.05,-1.01,0.31,0.40,-0.22,0.21,0.68,
3.056,-1.01,0.31,0.40,-0.02,0.25,0.48,
3.057,-0.78,0.27,0.33,-0.02,0.25,0.48,
3.058,-0.78,0.27,0.33,-0.02,0.25,0.48,
3.059,-0.78,0.27,0.33,-0.02,0.25,0.48,
3.067,-0.78,0.27,0.33,0.14,0.29,0.28,
3.068,-0.78,0.27,0.33,0.14,0.29,0.28,
3.069,-0.59,0.18,0.25,0.14,0.29,0.28,
3.069,-0.59,0.18,0.25,0.14,0.29,0.28,
3.076,-0.59,0.18,0.25,0.25,0.31,0.09,
3.076,-0.59,0.18,0.25,0.25,0.31,0.09,
3.077,-0.40,0.07,0.18,0.25,0.31,0.09,
3.078,-0.40,0.07,0.18,0.25,0.31,0.09,
3.085,-0.40,0.07,0.18,0.30,0.32,-0.08,
3.085,-0.40,0.07,0.18,0.30,0.32,-0.08,
3.086,-0.15,0.04,0.08,0.30,0.32,-0.08,
3.086,-0.15,0.04,0.08,0.30,0.32,-0.08,
3.095,-0.15,0.04,0.08,0.30,0.29,-0.24,
3.095,-0.15,0.04,0.08,0.30,0.29,-0.24,
3.095,0.12,-0.01,-0.01,0.30,0.29,-0.24,
3.096,0.12,-0.01,-0.01,0.30,0.29,-0.24,
3.105,0.12,-0.01,-0.01,0.27,0.25,-0.39,
3.105,0.12,-0.01,-0.01,0.27,0.25,-0.39,
3.106,0.31,0.00,-0.16,0.27,0.25,-0.39,
3.106,0.31,0.00,-0.16,0.27,0.25,-0.39,
3.114,0.31,0.00,-0.16,0.21,0.22,-0.53,
3.115,0.31,0.00,-0.16,0.21,0.22,-0.53,
3.116,0.42,-0.02,-0.31,0.21,0.22,-0.53,
3.116,0.42,-0.02,-0.31,0.21,0.22,-0.53,
3.123,0.42,-0.02,-0.31,0.14,0.18,-0.66,
3.124,0.42,-0.02,-0.31,0.14,0.18,-0.66,
3.125,0.52,-0.05,-0.42,0.14,0.18,-0.66,
3.125,0.52,-0.05,-0.42,0.14,0.18,-0.66,
3.132,0.52,-0.05,-0.42,0.04,0.14,-0.75,
3.134,0.52,-0.05,-0.42,0.04,0.14,-0.75,
3.134,0.59,-0.11,-0.48,0.04,0.14,-0.75,
3.135,0.59,-0.11,-0.48,0.04,0.14,-0.75,
3.142,0.59,-0.11,-0.48,-0.07,0.07,-0.81,
3.143,0.59,-0.11,-0.48,-0.07,0.07,-0.81,
3.144,0.66,-0.13,-0.45,-0.07,0.07,-0.81,
3.145,0.66,-0.13,-0.45,-0.07,0.07,-0.81,
3.153,0.66,-0.13,-0.45,-0.16,-0.00,-0.82,
3.155,0.66,-0.13,-0.45,-0.16,-0.00,-0.82,
3.156,0.69,-0.08,-0.28,-0.16,-0.00,-0.82,
3.157,0.69,-0.08,-0.28,-0.16,-0.00,-0.82,
3.16,0.69,-0.08,-0.28,-0.23,-0.07,-0.80,
3.161,0.69,-0.08,-0.28,-0.23,-0.07,-0.80,
3.162,0.65,-0.01,-0.06,-0.23,-0.07,-0.80,
3.162,0.65,-0.01,-0.06,-0.23,-0.07,-0.80,
3.171,0.65,-0.01,-0.06,-0.23,-0.07,-0.80,
3.171,0.65,-0.01,-0.06,-0.23,-0.07,-0.80,
3.172,0.65,-0.01,-0.06,-0.23,-0.07,-0.80,
3.172,0.65,-0.01,-0.06,-0.23,-0.07,-0.80,
3.186,0.65,-0.01,-0.06,-0.21,-0.17,-0.67,
3.187,0.65,-0.01,-0.06,-0.21,-0.17,-0.67,
3.188,0.49,0.11,0.14,-0.21,-0.17,-0.67,
3.189,0.49,0.11,0.14,-0.21,-0.17,-0.67,
3.189,0.49,0.11,0.14,-0.21,-0.17,-0.67,
3.191,0.49,0.11,0.14,-0.21,-0.17,-0.67,
3.191,0.49,0.11,0.14,-0.21,-0.17,-0.67,
3.192,0.49,0.11,0.14,-0.21,-0.17,-0.67,
3.199,0.49,0.11,0.14,-0.12,-0.21,-0.55,
3.2,0.49,0.11,0.14,-0.12,-0.21,-0.55,
3.201,0.21,0.13,0.16,-0.12,-0.21,-0.55,
3.202,0.21,0.13,0.16,-0.12,-0.21,-0.55,
3.211,0.21,0.13,0.16,-0.01,-0.27,-0.40,
3.212,0.21,0.13,0.16,-0.01,-0.27,-0.40,
3.213,0.07,0.13,0.24,-0.01,-0.27,-0.40,
3.213,0.07,0.13,0.24,-0.01,-0.27,-0.40,
3.231,0.07,0.13,0.24,0.09,-0.31,-0.22,
3.232,0.07,0.13,0.24,0.09,-0.31,-0.22,
3.233,0.03,0.16,0.33,0.09,-0.31,-0.22,
3.233,0.03,0.16,0.33,0.09,-0.31,-0.22,
3.234,0.03,0.16,0.33,0.09,-0.31,-0.22,
3.234,0.03,0.16,0.33,0.09,-0.31,-0.22,
3.235,0.03,0.16,0.33,0.09,-0.31,-0.22,
3.236,0.03,0.16,0.33,0.09,-0.31,-0.22,
3.237,0.03,0.16,0.33,0.24,-0.31,0.14,
3.238,0.03,0.16,0.33,0.24,-0.31,0.14,
3.238,0.22,0.20,0.33,0.24,-0.31,0.14,
3.239,0.22,0.20,0.33,0.24,-0.31,0.14,
3.249,0.22,0.20,0.33,0.38,-0.21,0.39,
3.25,0.22,0.20,0.33,0.38,-0.21,0.39,
3.251,0.39,0.17,0.25,0.38,-0.21,0.39,
3.253,0.39,0.17,0.25,0.38,-0.21,0.39,
3.256,0.39,0.17,0.25,0.38,-0.21,0.39,
3.257,0.39,0.17,0.25,0.38,-0.21,0.39,
3.258,0.39,0.17,0.25,0.38,-0.21,0.39,
3.258,0.39,0.17,0.25,0.38,-0.21,0.39,
3.267,0.39,0.17,0.25,0.39,-0.14,0.40,
3.267,0.39,0.17,0.25,0.39,-0.14,0.40,
3.268,0.41,0.04,0.24,0.39,-0.14,0.40,
3.269,0.41,0.04,0.24,0.39,-0.14,0.40,
3.275,0.41,0.04,0.24,0.35,-0.13,0.35,
3.276,0.41,0.04,0.24,0.35,-0.13,0.35,
3.277,0.34,0.08,0.33,0.35,-0.13,0.35,
3.277,0.34,0.08,0.33,0.35,-0.13,0.35,
3.287,0.34,0.08,0.33,0.30,-0.15,0.30,
3.288,0.34,0.08,0.33,0.30,-0.15,0.30,
3.289,0.24,0.15,0.45,0.30,-0.15,0.30,
3.29,0.24,0.15,0.45,0.30,-0.15,0.30,
3.295,0.24,0.15,0.45,0.27,-0.19,0.26,
3.295,0.24,0.15,0.45,0.27,-0.19,0.26,
3.296,0.13,0.24,0.53,0.27,-0.19,0.26,
3.296,0.13,0.24,0.53,0.27,-0.19,0.26,
3.304,0.13,0.24,0.53,0.26,-0.23,0.24,
3.304,0.13,0.24,0.53,0.26,-0.23,0.24,
3.305,0.03,0.30,0.52,0.26,-0.23,0.24,
3.305,0.03,0.30,0.52,0.26,-0.23,0.24,
3.315,0.03,0.30,0.52,0.28,-0.24,0.25,
3.316,0.03,0.30,0.52,0.28,-0.24,0.25,
3.316,-0.05,0.30,0.42,0.28,-0.24,0.25,
3.317,-0.05,0.30,0.42,0.28,-0.24,0.25,
3.324,-0.05,0.30,0.42,0.31,-0.24,0.28,
3.325,-0.05,0.30,0.42,0.31,-0.24,0.28,
3.326,-0.05,0.29,0.27,0.31,-0.24,0.28,
3.327,-0.05,0.29,0.27,0.31,-0.24,0.28,
3.334,-0.05,0.29,0.27,0.32,-0.23,0.32,
3.336,-0.05,0.29,0.27,0.32,-0.23,0.32,
3.337,-0.04,0.28,0.11,0.32,-0.23,0.32,
3.338,-0.04,0.28,0.11,0.32,-0.23,0.32,
3.342,-0.04,0.28,0.11,0.29,-0.25,0.35,
3.343,-0.04,0.28,0.11,0.29,-0.25,0.35,
3.343,-0.06,0.27,0.03,0.29,-0.25,0.35,
3.344,-0.06,0.27,0.03,0.29,-0.25,0.35,
3.351,-0.06,0.27,0.03,0.21,-0.28,0.37,
3.352,-0.06,0.27,0.03,0.21,-0.28,0.37,
3.353,-0.10,0.25,0.03,0.21,-0.28,0.37,
3.354,-0.10,0.25,0.03,0.21,-0.28,0.37,
3.364,-0.10,0.25,0.03,0.11,-0.30,0.37,
3.364,-0.10,0.25,0.03,0.11,-0.30,0.37,
3.365,-0.25,0.20,0.12,0.11,-0.30,0.37,
3.365,-0.25,0.20,0.12,0.11,-0.30,0.37,
3.371,-0.25,0.20,0.12,0.01,-0.32,0.37,
3.371,-0.25,0.20,0.12,0.01,-0.32,0.37,
3.371,-0.41,0.16,0.15,0.01,-0.32,0.37,
3.372,-0.41,0.16,0.15,0.01,-0.32,0.37,
3.38,-0.41,0.16,0.15,0.01,-0.32,0.37,
3.381,-0.41,0.16,0.15,0.01,-0.32,0.37,
3.381,-0.41,0.16,0.15,0.01,-0.32,0.37,
3.382,-0.41,0.16,0.15,0.01,-0.32,0.37,
3.39,-0.41,0.16,0.15,-0.06,-0.33,0.37,
3.392,-0.41,0.16,0.15,-0.06,-0.33,0.37,
3.393,-0.67,0.14,0.07,-0.06,-0.33,0.37,
3.394,-0.67,0.14,0.07,-0.06,-0.33,0.37,
3.405,-0.67,0.14,0.07,-0.10,-0.34,0.40,
3.407,-0.67,0.14,0.07,-0.10,-0.34,0.40,
3.407,-0.72,0.17,0.02,-0.10,-0.34,0.40,
3.408,-0.72,0.17,0.02,-0.10,-0.34,0.40,
3.409,-0.72,0.17,0.02,-0.13,-0.37,0.46,
3.41,-0.72,0.17,0.02,-0.13,-0.37,0.46,
3.411,-0.73,0.22,0.00,-0.13,-0.37,0.46,
3.411,-0.73,0.22,0.00,-0.13,-0.37,0.46,
3.418,-0.73,0.22,0.00,-0.16,-0.40,0.54,
3.42,-0.73,0.22,0.00,-0.16,-0.40,0.54,
3.42,-0.74,0.25,0.06,-0.16,-0.40,0.54,
3.421,-0.74,0.25,0.06,-0.16,-0.40,0.54,
3.427,-0.74,0.25,0.06,-0.18,-0.43,0.61,
3.428,-0.74,0.25,0.06,-0.18,-0.43,0.61,
3.428,-0.74,0.35,0.11,-0.18,-0.43,0.61,
3.429,-0.74,0.35,0.11,-0.18,-0.43,0.61,
3.437,-0.74,0.35,0.11,-0.19,-0.44,0.65,
3.438,-0.74,0.35,0.11,-0.19,-0.44,0.65,
3.439,-0.76,0.44,0.14,-0.19,-0.44,0.65,
3.44,-0.76,0.44,0.14,-0.19,-0.44,0.65,
3.447,-0.76,0.44,0.14,-0.17,-0.43,0.65,
3.448,-0.76,0.44,0.14,-0.17,-0.43,0.65,
3.448,-0.75,0.48,0.14,-0.17,-0.43,0.65,
3.448,-0.75,0.48,0.14,-0.17,-0.43,0.65,
3.457,-0.75,0.48,0.14,-0.13,-0.39,0.63,
3.457,-0.75,0.48,0.14,-0.13,-0.39,0.63,
3.457,-0.67,0.52,0.10,-0.13,-0.39,0.63,
3.458,-0.67,0.52,0.10,-0.13,-0.39,0.63,
3.466,-0.67,0.52,0.10,-0.08,-0.34,0.59,
3.468,-0.67,0.52,0.10,-0.08,-0.34,0.59,
3.468,-0.48,0.50,0.08,-0.08,-0.34,0.59,
3.469,-0.48,0.50,0.08,-0.08,-0.34,0.59,
3.474,-0.48,0.50,0.08,-0.04,-0.29,0.54,
3.475,-0.48,0.50,0.08,-0.04,-0.29,0.54,
3.475,-0.26,0.43,0.03,-0.04,-0.29,0.54,
3.475,-0.26,0.43,0.03,-0.04,-0.29,0.54,
3.484,-0.26,0.43,0.03,-0.01,-0.26,0.45,
3.485,-0.26,0.43,0.03,-0.01,-0.26,0.45,
3.486,-0.05,0.35,-0.01,-0.01,-0.26,0.45,
3.486,-0.05,0.35,-0.01,-0.01,-0.26,0.45,
3.494,-0.05,0.35,-0.01,-0.01,-0.25,0.31,
3.494,-0.05,0.35,-0.01,-0.01,-0.25,0.31,
3.494,0.10,0.29,-0.08,-0.01,-0.25,0.31,
3.495,0.10,0.29,-0.08,-0.01,-0.25,0.31,
3.503,0.10,0.29,-0.08,-0.02,-0.26,0.14,
3.505,0.10,0.29,-0.08,-0.02,-0.26,0.14,
3.505,0.18,0.27,-0.15,-0.02,-0.26,0.14,
3.506,0.18,0.27,-0.15,-0.02,-0.26,0.14,
3.514,0.18,0.27,-0.15,-0.04,-0.26,-0.05,
3.515,0.18,0.27,-0.15,-0.04,-0.26,-0.05,
3.516,0.20,0.33,-0.21,-0.04,-0.26,-0.05,
3.517,0.20,0.33,-0.21,-0.04,-0.26,-0.05,
3.522,0.20,0.33,-0.21,-0.08,-0.24,-0.22,
3.523,0.20,0.33,-0.21,-0.08,-0.24,-0.22,
3.524,0.18,0.40,-0.24,-0.08,-0.24,-0.22,
3.524,0.18,0.40,-0.24,-0.08,-0.24,-0.22,
3.532,0.18,0.40,-0.24,-0.11,-0.21,-0.36,
3.533,0.18,0.40,-0.24,-0.11,-0.21,-0.36,
3.534,0.12,0.43,-0.24,-0.11,-0.21,-0.36,
3.534,0.12,0.43,-0.24,-0.11,-0.21,-0.36,
3.541,0.12,0.43,-0.24,-0.15,-0.19,-0.44,
3.542,0.12,0.43,-0.24,-0.15,-0.19,-0.44,
3.543,0.04,0.44,-0.21,-0.15,-0.19,-0.44,
3.544,0.04,0.44,-0.21,-0.15,-0.19,-0.44,
3.551,0.04,0.44,-0.21,-0.17,-0.17,-0.47,
3.552,0.04,0.44,-0.21,-0.17,-0.17,-0.47,
3.553,-0.07,0.38,-0.15,-0.17,-0.17,-0.47,
3.553,-0.07,0.38,-0.15,-0.17,-0.17,-0.47,
3.561,-0.07,0.38,-0.15,-0.18,-0.14,-0.45,
3.562,-0.07,0.38,-0.15,-0.18,-0.14,-0.45,
3.562,-0.14,0.33,-0.10,-0.18,-0.14,-0.45,
3.563,-0.14,0.33,-0.10,-0.18,-0.14,-0.45,
3.57,-0.14,0.33,-0.10,-0.18,-0.14,-0.45,
3.571,-0.14,0.33,-0.10,-0.18,-0.14,-0.45,
3.572,-0.14,0.33,-0.10,-0.18,-0.14,-0.45,
3.573,-0.14,0.33,-0.10,-0.18,-0.14,-0.45,
3.587,-0.14,0.33,-0.10,-0.16,-0.11,-0.39,
3.589,-0.14,0.33,-0.10,-0.16,-0.11,-0.39,
3.59,-0.12,0.12,-0.20,-0.16,-0.11,-0.39,
3.591,-0.12,0.12,-0.20,-0.16,-0.11,-0.39,
3.591,-0.12,0.12,-0.20,-0.13,-0.09,-0.30,
3.592,-0.12,0.12,-0.20,-0.13,-0.09,-0.30,
3.593,0.02,-0.04,-0.35,-0.13,-0.09,-0.30,
3.594,0.02,-0.04,-0.35,-0.13,-0.09,-0.30,
3.601,0.02,-0.04,-0.35,-0.12,-0.08,-0.22,
3.603,0.02,-0.04,-0.35,-0.12,-0.08,-0.22,
3.603,0.11,-0.19,-0.46,-0.12,-0.08,-0.22,
3.604,0.11,-0.19,-0.46,-0.12,-0.08,-0.22,
3.608,0.11,-0.19,-0.46,-0.14,-0.08,-0.16,
3.609,0.11,-0.19,-0.46,-0.14,-0.08,-0.16,
3.61,0.14,-0.32,-0.46,-0.14,-0.08,-0.16,
3.611,0.14,-0.32,-0.46,-0.14,-0.08,-0.16,
3.617,0.14,-0.32,-0.46,-0.19,-0.09,-0.15,
3.619,0.14,-0.32,-0.46,-0.19,-0.09,-0.15,
3.62,0.05,-0.38,-0.32,-0.19,-0.09,-0.15,
3.621,0.05,-0.38,-0.32,-0.19,-0.09,-0.15,
3.627,0.05,-0.38,-0.32,-0.25,-0.10,-0.16,
3.628,0.05,-0.38,-0.32,-0.25,-0.10,-0.16,
3.629,-0.13,-0.36,-0.16,-0.25,-0.10,-0.16,
3.63,-0.13,-0.36,-0.16,-0.25,-0.10,-0.16,
3.637,-0.13,-0.36,-0.16,-0.28,-0.11,-0.16,
3.638,-0.13,-0.36,-0.16,-0.28,-0.11,-0.16,
3.639,-0.26,-0.29,-0.05,-0.28,-0.11,-0.16,
3.64,-0.26,-0.29,-0.05,-0.28,-0.11,-0.16,
3.647,-0.26,-0.29,-0.05,-0.26,-0.12,-0.13,
3.649,-0.26,-0.29,-0.05,-0.26,-0.12,-0.13,
3.65,-0.33,-0.13,-0.03,-0.26,-0.12,-0.13,
3.65,-0.33,-0.13,-0.03,-0.26,-0.12,-0.13,
3.656,-0.33,-0.13,-0.03,-0.19,-0.11,-0.06,
3.657,-0.33,-0.13,-0.03,-0.19,-0.11,-0.06,
3.657,-0.25,0.06,-0.06,-0.19,-0.11,-0.06,
3.658,-0.25,0.06,-0.06,-0.19,-0.11,-0.06,
3.666,-0.25,0.06,-0.06,-0.10,-0.07,0.03,
3.668,-0.25,0.06,-0.06,-0.10,-0.07,0.03,
3.669,-0.10,0.19,-0.09,-0.10,-0.07,0.03,
3.67,-0.10,0.19,-0.09,-0.10,-0.07,0.03,
3.674,-0.10,0.19,-0.09,-0.02,-0.04,0.10,
3.675,-0.10,0.19,-0.09,-0.02,-0.04,0.10,
3.676,0.10,0.27,-0.10,-0.02,-0.04,0.10,
3.677,0.10,0.27,-0.10,-0.02,-0.04,0.10,
3.687,0.10,0.27,-0.10,0.03,-0.04,0.14,
3.689,0.10,0.27,-0.10,0.03,-0.04,0.14,
3.689,0.31,0.24,-0.04,0.03,-0.04,0.14,
3.69,0.31,0.24,-0.04,0.03,-0.04,0.14,
3.694,0.31,0.24,-0.04,0.07,-0.05,0.14,
3.695,0.31,0.24,-0.04,0.07,-0.05,0.14,
3.696,0.40,0.12,0.08,0.07,-0.05,0.14,
3.697,0.40,0.12,0.08,0.07,-0.05,0.14,
3.704,0.40,0.12,0.08,0.10,-0.05,0.07,
3.705,0.40,0.12,0.08,0.10,-0.05,0.07,
3.706,0.37,-0.01,0.26,0.10,-0.05,0.07,
3.707,0.37,-0.01,0.26,0.10,-0.05,0.07,
3.714,0.37,-0.01,0.26,0.13,-0.05,-0.02,
3.715,0.37,-0.01,0.26,0.13,-0.05,-0.02,
3.716,0.18,-0.09,0.47,0.13,-0.05,-0.02,
3.717,0.18,-0.09,0.47,0.13,-0.05,-0.02,
3.722,0.18,-0.09,0.47,0.19,-0.05,-0.12,
3.724,0.18,-0.09,0.47,0.19,-0.05,-0.12,
3.725,-0.09,-0.14,0.67,0.19,-0.05,-0.12,
3.726,-0.09,-0.14,0.67,0.19,-0.05,-0.12,
3.732,-0.09,-0.14,0.67,0.28,-0.05,-0.16,
3.734,-0.09,-0.14,0.67,0.28,-0.05,-0.16,
3.735,-0.33,-0.13,0.74,0.28,-0.05,-0.16,
3.736,-0.33,-0.13,0.74,0.28,-0.05,-0.16,
3.741,-0.33,-0.13,0.74,0.38,-0.05,-0.14,
3.742,-0.33,-0.13,0.74,0.38,-0.05,-0.14,
3.743,-0.47,-0.06,0.76,0.38,-0.05,-0.14,
3.744,-0.47,-0.06,0.76,0.38,-0.05,-0.14,
3.751,-0.47,-0.06,0.76,0.49,-0.06,-0.04,
3.752,-0.47,-0.06,0.76,0.49,-0.06,-0.04,
3.753,-0.49,0.03,0.75,0.49,-0.06,-0.04,
3.754,-0.49,0.03,0.75,0.49,-0.06,-0.04,
3.76,-0.49,0.03,0.75,0.56,-0.08,0.10,
3.761,-0.49,0.03,0.75,0.56,-0.08,0.10,
3.762,-0.42,0.15,0.68,0.56,-0.08,0.10,
3.763,-0.42,0.15,0.68,0.56,-0.08,0.10,
3.769,-0.42,0.15,0.68,0.56,-0.08,0.10,
3.77,-0.42,0.15,0.68,0.56,-0.08,0.10,
3.77,-0.42,0.15,0.68,0.56,-0.08,0.10,
3.771,-0.42,0.15,0.68,0.56,-0.08,0.10,
3.787,-0.42,0.15,0.68,0.61,-0.09,0.24,
3.788,-0.42,0.15,0.68,0.61,-0.09,0.24,
3.788,-0.15,0.32,0.54,0.61,-0.09,0.24,
3.789,-0.15,0.32,0.54,0.61,-0.09,0.24,
3.793,-0.15,0.32,0.54,0.57,-0.10,0.35,
3.795,-0.15,0.32,0.54,0.57,-0.10,0.35,
3.795,-0.03,0.29,0.45,0.57,-0.10,0.35,
3.796,-0.03,0.29,0.45,0.57,-0.10,0.35,
3.803,-0.03,0.29,0.45,0.57,-0.10,0.35,
3.804,-0.03,0.29,0.45,0.57,-0.10,0.35,
3.805,-0.03,0.29,0.45,0.57,-0.10,0.35,
3.806,-0.03,0.29,0.45,0.57,-0.10,0.35,
3.809,-0.03,0.29,0.45,0.49,-0.13,0.32,
3.811,-0.03,0.29,0.45,0.49,-0.13,0.32,
3.812,0.17,0.13,0.28,0.49,-0.13,0.32,
3.813,0.17,0.13,0.28,0.49,-0.13,0.32,
3.819,0.17,0.13,0.28,0.40,-0.16,0.24,
3.821,0.17,0.13,0.28,0.40,-0.16,0.24,
3.822,0.26,0.05,0.17,0.40,-0.16,0.24,
3.823,0.26,0.05,0.17,0.40,-0.16,0.24,
3.827,0.26,0.05,0.17,0.28,-0.16,0.14,
3.828,0.26,0.05,0.17,0.28,-0.16,0.14,
3.828,0.33,-0.03,-0.03,0.28,-0.16,0.14,
3.829,0.33,-0.03,-0.03,0.28,-0.16,0.14,
3.836,0.33,-0.03,-0.03,0.16,-0.15,0.02,
3.838,0.33,-0.03,-0.03,0.16,-0.15,0.02,
3.839,0.40,-0.14,-0.28,0.16,-0.15,0.02,
3.84,0.40,-0.14,-0.28,0.16,-0.15,0.02,
3.847,0.40,-0.14,-0.28,0.01,-0.14,-0.10,
3.848,0.40,-0.14,-0.28,0.01,-0.14,-0.10,
3.849,0.51,-0.25,-0.59,0.01,-0.14,-0.10,
3.85,0.51,-0.25,-0.59,0.01,-0.14,-0.10,
3.855,0.51,-0.25,-0.59,-0.18,-0.15,-0.21,
3.856,0.51,-0.25,-0.59,-0.18,-0.15,-0.21,
3.857,0.64,-0.33,-0.83,-0.18,-0.15,-0.21,
3.858,0.64,-0.33,-0.83,-0.18,-0.15,-0.21,
3.868,0.64,-0.33,-0.83,-0.39,-0.20,-0.30,
3.869,0.64,-0.33,-0.83,-0.39,-0.20,-0.30,
3.87,0.76,-0.34,-0.99,-0.39,-0.20,-0.30,
3.87,0.76,-0.34,-0.99,-0.39,-0.20,-0.30,
3.874,0.76,-0.34,-0.99,-0.61,-0.26,-0.39,
3.875,0.76,-0.34,-0.99,-0.61,-0.26,-0.39,
3.876,0.85,-0.27,-1.09,-0.61,-0.26,-0.39,
3.877,0.85,-0.27,-1.09,-0.61,-0.26,-0.39,
3.887,0.85,-0.27,-1.09,-0.83,-0.30,-0.47,
3.889,0.85,-0.27,-1.09,-0.83,-0.30,-0.47,
3.894,0.88,-0.18,-1.15,-0.83,-0.30,-0.47,
3.895,0.88,-0.18,-1.15,-0.83,-0.30,-0.47,
3.896,0.88,-0.18,-1.15,-0.99,-0.31,-0.55,
3.897,0.88,-0.18,-1.15,-0.99,-0.31,-0.55,
3.898,0.86,-0.06,-1.18,-0.99,-0.31,-0.55,
3.899,0.86,-0.06,-1.18,-0.99,-0.31,-0.55,
3.903,0.86,-0.06,-1.18,-1.11,-0.30,-0.61,
3.905,0.86,-0.06,-1.18,-1.11,-0.30,-0.61,
3.906,0.83,0.06,-1.22,-1.11,-0.30,-0.61,
3.906,0.83,0.06,-1.22,-1.11,-0.30,-0.61,
3.914,0.83,0.06,-1.22,-1.16,-0.30,-0.64,
3.917,0.83,0.06,-1.22,-1.16,-0.30,-0.64,
3.918,0.78,0.14,-1.30,-1.16,-0.30,-0.64,
3.92,0.78,0.14,-1.30,-1.16,-0.30,-0.64,
3.922,0.78,0.14,-1.30,-1.18,-0.30,-0.64,
3.923,0.78,0.14,-1.30,-1.18,-0.30,-0.64,
3.924,0.74,0.22,-1.43,-1.18,-0.30,-0.64,
3.925,0.74,0.22,-1.43,-1.18,-0.30,-0.64,
3.934,0.74,0.22,-1.43,-1.16,-0.31,-0.60,
3.936,0.74,0.22,-1.43,-1.16,-0.31,-0.60,
3.937,0.79,0.31,-1.64,-1.16,-0.31,-0.60,
3.937,0.79,0.31,-1.64,-1.16,-0.31,-0.60,
3.941,0.79,0.31,-1.64,-1.14,-0.31,-0.55,
3.942,0.79,0.31,-1.64,-1.14,-0.31,-0.55,
3.943,0.92,0.41,-1.77,-1.14,-0.31,-0.55,
3.944,0.92,0.41,-1.77,-1.14,-0.31,-0.55,
3.951,0.92,0.41,-1.77,-1.14,-0.30,-0.50,
3.953,0.92,0.41,-1.77,-1.14,-0.30,-0.50,
3.954,1.10,0.52,-1.77,-1.14,-0.30,-0.50,
3.954,1.10,0.52,-1.77,-1.14,-0.30,-0.50,
3.96,1.10,0.52,-1.77,-1.15,-0.29,-0.47,
3.961,1.10,0.52,-1.77,-1.15,-0.29,-0.47,
3.962,1.26,0.56,-1.59,-1.15,-0.29,-0.47,
3.963,1.26,0.56,-1.59,-1.15,-0.29,-0.47,
3.97,1.26,0.56,-1.59,-1.15,-0.29,-0.47,
3.971,1.26,0.56,-1.59,-1.15,-0.29,-0.47,
3.971,1.26,0.56,-1.59,-1.15,-0.29,-0.47,
3.972,1.26,0.56,-1.59,-1.15,-0.29,-0.47,
3.987,1.26,0.56,-1.59,-1.15,-0.27,-0.47,
3.988,1.26,0.56,-1.59,-1.15,-0.27,-0.47,
3.99,1.41,0.44,-0.83,-1.15,-0.27,-0.47,
3.991,1.41,0.44,-0.83,-1.15,-0.27,-0.47,
3.992,1.41,0.44,-0.83,-1.09,-0.22,-0.52,
3.993,1.41,0.44,-0.83,-1.09,-0.22,-0.52,
3.994,1.25,0.31,-0.64,-1.09,-0.22,-0.52,
3.994,1.25,0.31,-0.64,-1.09,-0.22,-0.52,
4.001,1.25,0.31,-0.64,-0.64,-0.06,-0.61,
4.002,1.25,0.31,-0.64,-0.64,-0.06,-0.61,
4.003,0.79,-0.10,-0.64,-0.64,-0.06,-0.61,
4.004,0.79,-0.10,-0.64,-0.64,-0.06,-0.61,
4.008,0.79,-0.10,-0.64,-0.64,-0.06,-0.61,
4.009,0.79,-0.10,-0.64,-0.64,-0.06,-0.61,
4.01,0.79,-0.10,-0.64,-0.64,-0.06,-0.61,
4.01,0.79,-0.10,-0.64,-0.64,-0.06,-0.61,
4.017,0.79,-0.10,-0.64,-0.34,0.05,-0.58,
4.019,0.79,-0.10,-0.64,-0.34,0.05,-0.58,
4.019,0.24,-0.75,-1.45,-0.34,0.05,-0.58,
4.02,0.24,-0.75,-1.45,-0.34,0.05,-0.58,
4.027,0.24,-0.75,-1.45,-0.12,0.16,-0.47,
4.028,0.24,-0.75,-1.45,-0.12,0.16,-0.47,
4.028,0.04,-1.22,-1.93,-0.12,0.16,-0.47,
4.029,0.04,-1.22,-1.93,-0.12,0.16,-0.47,
4.036,0.04,-1.22,-1.93,-0.07,0.23,-0.30,
4.038,0.04,-1.22,-1.93,-0.07,0.23,-0.30,
4.039,0.25,-1.28,-2.33,-0.07,0.23,-0.30,
4.039,0.25,-1.28,-2.33,-0.07,0.23,-0.30,
4.047,0.25,-1.28,-2.33,-0.20,0.24,-0.10,
4.049,0.25,-1.28,-2.33,-0.20,0.24,-0.10,
4.049,0.40,-1.45,-2.56,-0.20,0.24,-0.10,
4.05,0.40,-1.45,-2.56,-0.20,0.24,-0.10,
4.057,0.40,-1.45,-2.56,-0.46,0.21,0.06,
4.058,0.40,-1.45,-2.56,-0.46,0.21,0.06,
4.059,0.48,-1.73,-2.64,-0.46,0.21,0.06,
4.06,0.48,-1.73,-2.64,-0.46,0.21,0.06,
4.066,0.48,-1.73,-2.64,-0.75,0.17,0.15,
4.067,0.48,-1.73,-2.64,-0.75,0.17,0.15,
4.068,0.61,-1.83,-2.62,-0.75,0.17,0.15,
4.069,0.61,-1.83,-2.62,-0.75,0.17,0.15,
4.074,0.61,-1.83,-2.62,-0.99,0.15,0.16,
4.075,0.61,-1.83,-2.62,-0.99,0.15,0.16,
4.076,0.56,-1.99,-2.56,-0.99,0.15,0.16,
4.077,0.56,-1.99,-2.56,-0.99,0.15,0.16,
4.084,0.56,-1.99,-2.56,-1.15,0.16,0.12,
4.085,0.56,-1.99,-2.56,-1.15,0.16,0.12,
4.086,0.28,-2.09,-2.46,-1.15,0.16,0.12,
4.086,0.28,-2.09,-2.46,-1.15,0.16,0.12,
4.093,0.28,-2.09,-2.46,-1.21,0.18,0.07,
4.094,0.28,-2.09,-2.46,-1.21,0.18,0.07,
4.095,-0.20,-2.14,-2.31,-1.21,0.18,0.07,
4.095,-0.20,-2.14,-2.31,-1.21,0.18,0.07,
4.104,-0.20,-2.14,-2.31,-1.19,0.21,0.05,
4.106,-0.20,-2.14,-2.31,-1.19,0.21,0.05,
4.106,-0.75,-2.08,-2.05,-1.19,0.21,0.05,
4.107,-0.75,-2.08,-2.05,-1.19,0.21,0.05,
4.116,-0.75,-2.08,-2.05,-1.10,0.23,0.11,
4.118,-0.75,-2.08,-2.05,-1.10,0.23,0.11,
4.119,-1.30,-1.84,-1.63,-1.10,0.23,0.11,
4.119,-1.30,-1.84,-1.63,-1.10,0.23,0.11,
4.122,-1.30,-1.84,-1.63,-0.96,0.24,0.27,
4.123,-1.30,-1.84,-1.63,-0.96,0.24,0.27,
4.123,-1.70,-1.43,-1.06,-0.96,0.24,0.27,
4.124,-1.70,-1.43,-1.06,-0.96,0.24,0.27,
4.131,-1.70,-1.43,-1.06,-0.75,0.21,0.51,
4.133,-1.70,-1.43,-1.06,-0.75,0.21,0.51,
4.134,-1.90,-0.97,-0.41,-0.75,0.21,0.51,
4.135,-1.90,-0.97,-0.41,-0.75,0.21,0.51,
4.141,-1.90,-0.97,-0.41,-0.48,0.17,0.80,
4.142,-1.90,-0.97,-0.41,-0.48,0.17,0.80,
4.142,-1.91,-0.47,0.21,-0.48,0.17,0.80,
4.143,-1.91,-0.47,0.21,-0.48,0.17,0.80,
4.15,-1.91,-0.47,0.21,-0.15,0.11,1.07,
4.152,-1.91,-0.47,0.21,-0.15,0.11,1.07,
4.152,-1.75,-0.09,0.62,-0.15,0.11,1.07,
4.153,-1.75,-0.09,0.62,-0.15,0.11,1.07,
4.16,-1.75,-0.09,0.62,-0.15,0.11,1.07,
4.161,-1.75,-0.09,0.62,-0.15,0.11,1.07,
4.162,-1.75,-0.09,0.62,-0.15,0.11,1.07,
4.163,-1.75,-0.09,0.62,-0.15,0.11,1.07,
4.169,-1.75,-0.09,0.62,0.24,0.06,1.05,
4.171,-1.75,-0.09,0.62,0.24,0.06,1.05,
4.171,-1.18,0.41,0.54,0.24,0.06,1.05,
4.172,-1.18,0.41,0.54,0.24,0.06,1.05,
4.18,-1.18,0.41,0.54,0.63,0.06,0.97,
4.182,-1.18,0.41,0.54,0.63,0.06,0.97,
4.183,-0.85,0.58,0.25,0.63,0.06,0.97,
4.184,-0.85,0.58,0.25,0.63,0.06,0.97,
4.191,-0.85,0.58,0.25,0.97,0.14,1.03,
4.192,-0.85,0.58,0.25,0.97,0.14,1.03,
4.193,-0.59,0.66,-0.04,0.97,0.14,1.03,
4.194,-0.59,0.66,-0.04,0.97,0.14,1.03,
4.199,-0.59,0.66,-0.04,1.18,0.24,0.94,
4.201,-0.59,0.66,-0.04,1.18,0.24,0.94,
4.202,-0.34,0.74,-0.25,1.18,0.24,0.94,
4.203,-0.34,0.74,-0.25,1.18,0.24,0.94,
4.22,-0.34,0.74,-0.25,1.22,0.32,0.74,
4.222,-0.34,0.74,-0.25,1.22,0.32,0.74,
4.223,-0.12,0.82,-0.40,1.22,0.32,0.74,
4.223,-0.12,0.82,-0.40,1.22,0.32,0.74,
4.232,-0.12,0.82,-0.40,1.10,0.32,0.48,
4.234,-0.12,0.82,-0.40,1.10,0.32,0.48,
4.235,-0.03,0.91,-0.50,1.10,0.32,0.48,
4.236,-0.03,0.91,-0.50,1.10,0.32,0.48,
4.237,-0.03,0.91,-0.50,1.10,0.32,0.48,
4.238,-0.03,0.91,-0.50,1.10,0.32,0.48,
4.238,-0.03,0.91,-0.50,1.10,0.32,0.48,
4.239,-0.03,0.91,-0.50,1.10,0.32,0.48,
4.24,-0.03,0.91,-0.50,0.63,0.22,-0.05,
4.24,-0.03,0.91,-0.50,0.63,0.22,-0.05,
4.241,-0.12,1.22,-0.70,0.63,0.22,-0.05,
4.242,-0.12,1.22,-0.70,0.63,0.22,-0.05,
4.247,-0.12,1.22,-0.70,-0.00,0.04,-0.46,
4.249,-0.12,1.22,-0.70,-0.00,0.04,-0.46,
4.249,-0.29,1.36,-0.75,-0.00,0.04,-0.46,
4.25,-0.29,1.36,-0.75,-0.00,0.04,-0.46,
4.255,-0.29,1.36,-0.75,-0.00,0.04,-0.46,
4.256,-0.29,1.36,-0.75,-0.00,0.04,-0.46,
4.257,-0.29,1.36,-0.75,-0.00,0.04,-0.46,
4.258,-0.29,1.36,-0.75,-0.00,0.04,-0.46,
4.265,-0.29,1.36,-0.75,-0.54,-0.18,-0.53,
4.267,-0.29,1.36,-0.75,-0.54,-0.18,-0.53,
4.268,-0.53,1.59,-0.89,-0.54,-0.18,-0.53,
4.269,-0.53,1.59,-0.89,-0.54,-0.18,-0.53,
4.278,-0.53,1.59,-0.89,-0.71,-0.31,-0.45,
4.279,-0.53,1.59,-0.89,-0.71,-0.31,-0.45,
4.28,-0.52,1.66,-0.88,-0.71,-0.31,-0.45,
4.282,-0.52,1.66,-0.88,-0.71,-0.31,-0.45,
4.286,-0.52,1.66,-0.88,-0.83,-0.45,-0.35,
4.287,-0.52,1.66,-0.88,-0.83,-0.45,-0.35,
4.288,-0.43,1.74,-0.83,-0.83,-0.45,-0.35,
4.289,-0.43,1.74,-0.83,-0.83,-0.45,-0.35,
4.293,-0.43,1.74,-0.83,-0.92,-0.59,-0.24,
4.295,-0.43,1.74,-0.83,-0.92,-0.59,-0.24,
4.296,-0.30,1.82,-0.75,-0.92,-0.59,-0.24,
4.297,-0.30,1.82,-0.75,-0.92,-0.59,-0.24,
4.303,-0.30,1.82,-0.75,-0.96,-0.71,-0.17,
4.306,-0.30,1.82,-0.75,-0.96,-0.71,-0.17,
4.308,-0.10,1.86,-0.70,-0.96,-0.71,-0.17,
4.308,-0.10,1.86,-0.70,-0.96,-0.71,-0.17,
4.319,-0.10,1.86,-0.70,-0.97,-0.75,-0.15,
4.32,-0.10,1.86,-0.70,-0.97,-0.75,-0.15,
4.321,0.11,1.89,-0.73,-0.97,-0.75,-0.15,
4.322,0.11,1.89,-0.73,-0.97,-0.75,-0.15,
4.326,0.11,1.89,-0.73,-0.93,-0.73,-0.17,
4.326,0.11,1.89,-0.73,-0.93,-0.73,-0.17,
4.326,0.33,1.89,-0.85,-0.93,-0.73,-0.17,
4.327,0.33,1.89,-0.85,-0.93,-0.73,-0.17,
4.334,0.33,1.89,-0.85,-0.89,-0.67,-0.25,
4.335,0.33,1.89,-0.85,-0.89,-0.67,-0.25,
4.335,0.54,1.84,-1.06,-0.89,-0.67,-0.25,
4.335,0.54,1.84,-1.06,-0.89,-0.67,-0.25,
4.342,0.54,1.84,-1.06,-0.87,-0.61,-0.38,
4.342,0.54,1.84,-1.06,-0.87,-0.61,-0.38,
4.343,0.72,1.76,-1.29,-0.87,-0.61,-0.38,
4.343,0.72,1.76,-1.29,-0.87,-0.61,-0.38,
4.351,0.72,1.76,-1.29,-0.89,-0.58,-0.54,
4.352,0.72,1.76,-1.29,-0.89,-0.58,-0.54,
4.352,0.83,1.63,-1.51,-0.89,-0.58,-0.54,
4.352,0.83,1.63,-1.51,-0.89,-0.58,-0.54,
4.359,0.83,1.63,-1.51,-0.89,-0.58,-0.54,
4.36,0.83,1.63,-1.51,-0.89,-0.58,-0.54,
4.36,0.83,1.63,-1.51,-0.89,-0.58,-0.54,
4.361,0.83,1.63,-1.51,-0.89,-0.58,-0.54,
4.369,0.83,1.63,-1.51,-0.98,-0.59,-0.72,
4.37,0.83,1.63,-1.51,-0.98,-0.59,-0.72,
4.37,0.83,1.38,-1.86,-0.98,-0.59,-0.72,
4.371,0.83,1.38,-1.86,-0.98,-0.59,-0.72,
4.384,0.83,1.38,-1.86,-1.28,-0.65,-1.00,
4.384,0.83,1.38,-1.86,-1.28,-0.65,-1.00,
4.384,0.73,1.31,-1.93,-1.28,-0.65,-1.00,
4.385,0.73,1.31,-1.93,-1.28,-0.65,-1.00,
4.391,0.73,1.31,-1.93,-1.28,-0.65,-1.00,
4.391,0.73,1.31,-1.93,-1.28,-0.65,-1.00,
4.392,0.73,1.31,-1.93,-1.28,-0.65,-1.00,
4.393,0.73,1.31,-1.93,-1.28,-0.65,-1.00,
4.405,0.73,1.31,-1.93,-1.43,-0.68,-1.05,
4.406,0.73,1.31,-1.93,-1.43,-0.68,-1.05,
4.408,0.32,1.21,-1.97,-1.43,-0.68,-1.05,
4.409,0.32,1.21,-1.97,-1.43,-0.68,-1.05,
4.41,0.32,1.21,-1.97,-1.57,-0.75,-0.90,
4.411,0.32,1.21,-1.97,-1.57,-0.75,-0.90,
4.412,0.14,1.11,-1.90,-1.57,-0.75,-0.90,
4.413,0.14,1.11,-1.90,-1.57,-0.75,-0.90,
4.419,0.14,1.11,-1.90,-1.57,-0.75,-0.90,
4.42,0.14,1.11,-1.90,-1.57,-0.75,-0.90,
4.421,0.14,1.11,-1.90,-1.57,-0.75,-0.90,
4.422,0.14,1.11,-1.90,-1.57,-0.75,-0.90,
4.426,0.14,1.11,-1.90,-1.54,-0.78,-0.72,
4.427,0.14,1.11,-1.90,-1.54,-0.78,-0.72,
4.427,-0.00,0.77,-1.83,-1.54,-0.78,-0.72,
4.428,-0.00,0.77,-1.83,-1.54,-0.78,-0.72,
4.436,-0.00,0.77,-1.83,-1.46,-0.81,-0.50,
4.438,-0.00,0.77,-1.83,-1.46,-0.81,-0.50,
4.439,0.09,0.52,-1.86,-1.46,-0.81,-0.50,
4.44,0.09,0.52,-1.86,-1.46,-0.81,-0.50,
4.447,0.09,0.52,-1.86,-1.34,-0.80,-0.31,
4.449,0.09,0.52,-1.86,-1.34,-0.80,-0.31,
4.45,0.28,0.25,-1.92,-1.34,-0.80,-0.31,
4.451,0.28,0.25,-1.92,-1.34,-0.80,-0.31,
4.456,0.28,0.25,-1.92,-1.19,-0.78,-0.16,
4.457,0.28,0.25,-1.92,-1.19,-0.78,-0.16,
4.458,0.51,-0.05,-1.99,-1.19,-0.78,-0.16,
4.459,0.51,-0.05,-1.99,-1.19,-0.78,-0.16,
4.464,0.51,-0.05,-1.99,-1.04,-0.72,-0.08,
4.466,0.51,-0.05,-1.99,-1.04,-0.72,-0.08,
4.468,0.81,-0.31,-2.03,-1.04,-0.72,-0.08,
4.468,0.81,-0.31,-2.03,-1.04,-0.72,-0.08,
4.474,0.81,-0.31,-2.03,-0.90,-0.63,-0.08,
4.474,0.81,-0.31,-2.03,-0.90,-0.63,-0.08,
4.475,1.12,-0.50,-2.01,-0.90,-0.63,-0.08,
4.475,1.12,-0.50,-2.01,-0.90,-0.63,-0.08,
4.483,1.12,-0.50,-2.01,-0.77,-0.49,-0.16,
4.484,1.12,-0.50,-2.01,-0.77,-0.49,-0.16,
4.485,1.39,-0.59,-1.91,-0.77,-0.49,-0.16,
4.486,1.39,-0.59,-1.91,-0.77,-0.49,-0.16,
4.493,1.39,-0.59,-1.91,-0.66,-0.29,-0.28,
4.494,1.39,-0.59,-1.91,-0.66,-0.29,-0.28,
4.495,1.59,-0.51,-1.73,-0.66,-0.29,-0.28,
4.495,1.59,-0.51,-1.73,-0.66,-0.29,-0.28,
4.505,1.59,-0.51,-1.73,-0.54,-0.08,-0.44,
4.507,1.59,-0.51,-1.73,-0.54,-0.08,-0.44,
4.508,1.65,-0.34,-1.45,-0.54,-0.08,-0.44,
4.508,1.65,-0.34,-1.45,-0.54,-0.08,-0.44,
4.521,1.65,-0.34,-1.45,-0.42,0.11,-0.59,
4.522,1.65,-0.34,-1.45,-0.42,0.11,-0.59,
4.522,1.52,-0.11,-1.06,-0.42,0.11,-0.59,
4.523,1.52,-0.11,-1.06,-0.42,0.11,-0.59,
4.523,1.52,-0.11,-1.06,-0.29,0.26,-0.71,
4.523,1.52,-0.11,-1.06,-0.29,0.26,-0.71,
4.523,1.26,-0.01,-0.48,-0.29,0.26,-0.71,
4.524,1.26,-0.01,-0.48,-0.29,0.26,-0.71,
4.531,1.26,-0.01,-0.48,-0.13,0.36,-0.77,
4.533,1.26,-0.01,-0.48,-0.13,0.36,-0.77,
4.534,0.87,-0.19,1.27,-0.13,0.36,-0.77,
4.534,0.87,-0.19,1.27,-0.13,0.36,-0.77,
4.541,0.87,-0.19,1.27,0.12,0.42,-0.75,
4.541,0.87,-0.19,1.27,0.12,0.42,-0.75,
4.542,0.39,-0.65,1.65,0.12,0.42,-0.75,
4.542,0.39,-0.65,1.65,0.12,0.42,-0.75,
4.551,0.39,-0.65,1.65,0.53,0.45,-0.62,
4.552,0.39,-0.65,1.65,0.53,0.45,-0.62,
4.553,-0.08,-2.46,2.18,0.53,0.45,-0.62,
4.554,-0.08,-2.46,2.18,0.53,0.45,-0.62,
4.559,-0.08,-2.46,2.18,0.53,0.45,-0.62,
4.56,-0.08,-2.46,2.18,0.53,0.45,-0.62,
4.56,-0.08,-2.46,2.18,0.53,0.45,-0.62,
4.56,-0.08,-2.46,2.18,0.53,0.45,-0.62,
4.569,-0.08,-2.46,2.18,1.09,0.48,-0.39,
4.57,-0.08,-2.46,2.18,1.09,0.48,-0.39,
4.57,-0.93,-3.03,2.66,1.09,0.48,-0.39,
4.57,-0.93,-3.03,2.66,1.09,0.48,-0.39,
4.579,-0.93,-3.03,2.66,1.69,0.52,-0.05,
4.581,-0.93,-3.03,2.66,1.69,0.52,-0.05,
4.582,-1.33,-3.23,2.43,1.69,0.52,-0.05,
4.582,-1.33,-3.23,2.43,1.69,0.52,-0.05,
4.588,-1.33,-3.23,2.43,2.17,0.56,0.35,
4.589,-1.33,-3.23,2.43,2.17,0.56,0.35,
4.59,-1.88,-3.24,0.69,2.17,0.56,0.35,
4.591,-1.88,-3.24,0.69,2.17,0.56,0.35,
4.598,-1.88,-3.24,0.69,2.41,0.60,0.52,
4.599,-1.88,-3.24,0.69,2.41,0.60,0.52,
4.6,-2.38,-3.00,-3.05,2.41,0.60,0.52,
4.601,-2.38,-3.00,-3.05,2.41,0.60,0.52,
4.607,-2.38,-3.00,-3.05,2.23,0.56,0.70,
4.607,-2.38,-3.00,-3.05,2.23,0.56,0.70,
4.608,-2.55,-2.47,-5.18,2.23,0.56,0.70,
4.608,-2.55,-2.47,-5.18,2.23,0.56,0.70,
4.621,-2.55,-2.47,-5.18,1.47,0.35,1.10,
4.622,-2.55,-2.47,-5.18,1.47,0.35,1.10,
4.623,-2.34,-0.91,-5.30,1.47,0.35,1.10,
4.624,-2.34,-0.91,-5.30,1.47,0.35,1.10,
4.626,-2.34,-0.91,-5.30,0.21,0.02,1.38,
4.627,-2.34,-0.91,-5.30,0.21,0.02,1.38,
4.627,-1.81,-0.35,-3.43,0.21,0.02,1.38,
4.627,-1.81,-0.35,-3.43,0.21,0.02,1.38,
4.636,-1.81,-0.35,-3.43,-1.14,-0.28,1.51,
4.636,-1.81,-0.35,-3.43,-1.14,-0.28,1.51,
4.637,-1.27,1.25,0.24,-1.14,-0.28,1.51,
4.637,-1.27,1.25,0.24,-1.14,-0.28,1.51,
4.646,-1.27,1.25,0.24,-2.08,-0.43,1.52,
4.647,-1.27,1.25,0.24,-2.08,-0.43,1.52,
4.648,-1.07,1.66,3.49,-2.08,-0.43,1.52,
4.648,-1.07,1.66,3.49,-2.08,-0.43,1.52,
4.655,-1.07,1.66,3.49,-2.24,-0.45,1.45,
4.655,-1.07,1.66,3.49,-2.24,-0.45,1.45,
4.656,-1.34,2.16,5.17,-2.24,-0.45,1.45,
4.656,-1.34,2.16,5.17,-2.24,-0.45,1.45,
4.664,-1.34,2.16,5.17,-1.55,-0.39,1.36,
4.666,-1.34,2.16,5.17,-1.55,-0.39,1.36,
4.666,-1.84,2.65,5.45,-1.55,-0.39,1.36,
4.667,-1.84,2.65,5.45,-1.55,-0.39,1.36,
4.674,-1.84,2.65,5.45,-0.22,-0.29,1.32,
4.675,-1.84,2.65,5.45,-0.22,-0.29,1.32,
4.675,-2.35,2.98,5.78,-0.22,-0.29,1.32,
4.676,-2.35,2.98,5.78,-0.22,-0.29,1.32,
4.683,-2.35,2.98,5.78,1.39,-0.10,1.37,
4.684,-2.35,2.98,5.78,1.39,-0.10,1.37,
4.684,-2.68,3.00,6.18,1.39,-0.10,1.37,
4.685,-2.68,3.00,6.18,1.39,-0.10,1.37,
4.693,-2.68,3.00,6.18,2.92,0.20,1.51,
4.694,-2.68,3.00,6.18,2.92,0.20,1.51,
4.694,-2.64,2.69,6.71,2.92,0.20,1.51,
4.695,-2.64,2.69,6.71,2.92,0.20,1.51,
4.702,-2.64,2.69,6.71,4.19,0.59,1.68,
4.704,-2.64,2.69,6.71,4.19,0.59,1.68,
4.704,-2.23,0.96,7.27,4.19,0.59,1.68,
4.705,-2.23,0.96,7.27,4.19,0.59,1.68,
4.712,-2.23,0.96,7.27,5.21,0.65,1.62,
4.713,-2.23,0.96,7.27,5.21,0.65,1.62,
4.713,-0.51,0.61,7.68,5.21,0.65,1.62,
4.714,-0.51,0.61,7.68,5.21,0.65,1.62,
4.721,-0.51,0.61,7.68,5.98,0.35,1.36,
4.722,-0.51,0.61,7.68,5.98,0.35,1.36,
4.722,-0.23,0.02,7.74,5.98,0.35,1.36,
4.722,-0.23,0.02,7.74,5.98,0.35,1.36,
4.731,-0.23,0.02,7.74,6.45,0.08,1.16,
4.732,-0.23,0.02,7.74,6.45,0.08,1.16,
4.733,0.24,-0.55,7.46,6.45,0.08,1.16,
4.734,0.24,-0.55,7.46,6.45,0.08,1.16,
4.741,0.24,-0.55,7.46,6.52,0.23,0.50,
4.742,0.24,-0.55,7.46,6.52,0.23,0.50,
4.742,0.76,-0.99,6.87,6.52,0.23,0.50,
4.742,0.76,-0.99,6.87,6.52,0.23,0.50,
4.75,0.76,-0.99,6.87,6.52,0.23,0.50,
4.751,0.76,-0.99,6.87,6.52,0.23,0.50,
4.752,0.76,-0.99,6.87,6.52,0.23,0.50,
4.752,0.76,-0.99,6.87,6.52,0.23,0.50,
4.76,0.76,-0.99,6.87,6.18,0.60,-0.53,
4.76,0.76,-0.99,6.87,6.18,0.60,-0.53,
4.761,1.86,-1.34,3.58,6.18,0.60,-0.53,
4.761,1.86,-1.34,3.58,6.18,0.60,-0.53,
4.769,1.86,-1.34,3.58,5.41,0.58,-1.32,
4.77,1.86,-1.34,3.58,5.41,0.58,-1.32,
4.77,2.43,-1.17,3.14,5.41,0.58,-1.32,
4.771,2.43,-1.17,3.14,5.41,0.58,-1.32,
4.78,2.43,-1.17,3.14,4.32,0.38,-1.84,
4.782,2.43,-1.17,3.14,4.32,0.38,-1.84,
4.782,2.80,-0.80,2.44,4.32,0.38,-1.84,
4.783,2.80,-0.80,2.44,4.32,0.38,-1.84,
4.788,2.80,-0.80,2.44,2.96,0.16,-1.70,
4.789,2.80,-0.80,2.44,2.96,0.16,-1.70,
4.789,2.82,-0.35,1.77,2.96,0.16,-1.70,
4.79,2.82,-0.35,1.77,2.96,0.16,-1.70,
4.798,2.82,-0.35,1.77,1.53,-0.06,-1.02,
4.799,2.82,-0.35,1.77,1.53,-0.06,-1.02,
4.801,2.37,0.03,1.37,1.53,-0.06,-1.02,
4.802,2.37,0.03,1.37,1.53,-0.06,-1.02,
4.807,2.37,0.03,1.37,0.32,-0.50,-0.91,
4.809,2.37,0.03,1.37,0.32,-0.50,-0.91,
4.81,0.63,0.23,1.29,0.32,-0.50,-0.91,
4.811,0.63,0.23,1.29,0.32,-0.50,-0.91,
4.82,0.63,0.23,1.29,-0.58,-1.01,-1.18,
4.822,0.63,0.23,1.29,-0.58,-1.01,-1.18,
4.822,0.07,0.26,1.54,-0.58,-1.01,-1.18,
4.824,0.07,0.26,1.54,-0.58,-1.01,-1.18,
4.826,0.07,0.26,1.54,-1.22,-1.34,-1.12,
4.827,0.07,0.26,1.54,-1.22,-1.34,-1.12,
4.827,-1.31,0.15,1.95,-1.22,-1.34,-1.12,
4.827,-1.31,0.15,1.95,-1.22,-1.34,-1.12,
4.836,-1.31,0.15,1.95,-1.59,-1.53,-0.70,
4.837,-1.31,0.15,1.95,-1.59,-1.53,-0.70,
4.837,-1.38,0.03,2.25,-1.59,-1.53,-0.70,
4.837,-1.38,0.03,2.25,-1.59,-1.53,-0.70,
4.845,-1.38,0.03,2.25,-1.42,-1.46,-0.02,
4.846,-1.38,0.03,2.25,-1.42,-1.46,-0.02,
4.846,-1.35,0.02,2.29,-1.42,-1.46,-0.02,
4.846,-1.35,0.02,2.29,-1.42,-1.46,-0.02,
4.854,-1.35,0.02,2.29,-1.08,-1.30,0.71,
4.855,-1.35,0.02,2.29,-1.08,-1.30,0.71,
4.855,-1.16,0.05,2.06,-1.08,-1.30,0.71,
4.856,-1.16,0.05,2.06,-1.08,-1.30,0.71,
4.864,-1.16,0.05,2.06,-0.94,-1.23,1.33,
4.866,-1.16,0.05,2.06,-0.94,-1.23,1.33,
4.866,-0.85,0.22,1.74,-0.94,-1.23,1.33,
4.866,-0.85,0.22,1.74,-0.94,-1.23,1.33,
4.874,-0.85,0.22,1.74,-0.77,-1.11,1.72,
4.875,-0.85,0.22,1.74,-0.77,-1.11,1.72,
4.876,-0.49,0.44,1.49,-0.77,-1.11,1.72,
4.876,-0.49,0.44,1.49,-0.77,-1.11,1.72,
4.883,-0.49,0.44,1.49,-0.63,-0.95,1.86,
4.884,-0.49,0.44,1.49,-0.63,-0.95,1.86,
4.885,-0.04,0.67,1.43,-0.63,-0.95,1.86,
4.886,-0.04,0.67,1.43,-0.63,-0.95,1.86,
4.893,-0.04,0.67,1.43,-0.54,-0.75,1.81,
4.894,-0.04,0.67,1.43,-0.54,-0.75,1.81,
4.895,0.44,0.93,1.53,-0.54,-0.75,1.81,
4.895,0.44,0.93,1.53,-0.54,-0.75,1.81,
4.904,0.44,0.93,1.53,-0.46,-0.54,1.59,
4.905,0.44,0.93,1.53,-0.46,-0.54,1.59,
4.905,0.89,1.15,1.66,-0.46,-0.54,1.59,
4.906,0.89,1.15,1.66,-0.46,-0.54,1.59,
4.92,0.89,1.15,1.66,-0.37,-0.34,1.27,
4.921,0.89,1.15,1.66,-0.37,-0.34,1.27,
4.921,1.32,1.34,1.74,-0.37,-0.34,1.27,
4.921,1.32,1.34,1.74,-0.37,-0.34,1.27,
4.922,1.32,1.34,1.74,-0.21,-0.15,0.86,
4.922,1.32,1.34,1.74,-0.21,-0.15,0.86,
4.922,1.74,1.45,1.75,-0.21,-0.15,0.86,
4.922,1.74,1.45,1.75,-0.21,-0.15,0.86,
4.931,1.74,1.45,1.75,-0.01,0.04,0.40,
4.932,1.74,1.45,1.75,-0.01,0.04,0.40,
4.932,2.12,1.40,1.72,-0.01,0.04,0.40,
4.932,2.12,1.40,1.72,-0.01,0.04,0.40,
4.942,2.12,1.40,1.72,0.21,0.20,-0.08,
4.943,2.12,1.40,1.72,0.21,0.20,-0.08,
4.943,2.45,1.17,1.67,0.21,0.20,-0.08,
4.944,2.45,1.17,1.67,0.21,0.20,-0.08,
4.951,2.45,1.17,1.67,0.21,0.20,-0.08,
4.952,2.45,1.17,1.67,0.21,0.20,-0.08,
4.952,2.45,1.17,1.67,0.21,0.20,-0.08,
4.953,2.45,1.17,1.67,0.21,0.20,-0.08,
4.96,2.45,1.17,1.67,0.42,0.31,-0.56,
4.96,2.45,1.17,1.67,0.42,0.31,-0.56,
4.961,2.73,0.33,1.62,0.42,0.31,-0.56,
4.961,2.73,0.33,1.62,0.42,0.31,-0.56,
4.969,2.73,0.33,1.62,0.57,0.35,-1.00,
4.97,2.73,0.33,1.62,0.57,0.35,-1.00,
4.971,2.66,-0.05,1.35,0.57,0.35,-1.00,
4.971,2.66,-0.05,1.35,0.57,0.35,-1.00,
4.98,2.66,-0.05,1.35,0.65,0.34,-1.38,
4.981,2.66,-0.05,1.35,0.65,0.34,-1.38,
4.982,2.37,-0.26,0.91,0.65,0.34,-1.38,
4.983,2.37,-0.26,0.91,0.65,0.34,-1.38,
4.988,2.37,-0.26,0.91,0.64,0.27,-1.63,
4.989,2.37,-0.26,0.91,0.64,0.27,-1.63,
4.99,1.87,-0.33,0.39,0.64,0.27,-1.63,
4.99,1.87,-0.33,0.39,0.64,0.27,-1.63,
4.997,1.87,-0.33,0.39,0.53,0.16,-1.70,
4.998,1.87,-0.33,0.39,0.53,0.16,-1.70,
4.998,0.07,-0.23,-0.11,0.53,0.16,-1.70,
4.999,0.07,-0.23,-0.11,0.53,0.16,-1.70,
5.007,0.07,-0.23,-0.11,0.33,0.02,-1.52,
5.008,0.07,-0.23,-0.11,0.33,0.02,-1.52,
5.008,-0.27,-0.04,-0.44,0.33,0.02,-1.52,
5.009,-0.27,-0.04,-0.44,0.33,0.02,-1.52,
5.017,-0.27,-0.04,-0.44,0.07,-0.13,-1.07,
5.019,-0.27,-0.04,-0.44,0.07,-0.13,-1.07,
5.019,-0.73,0.21,-0.54,0.07,-0.13,-1.07,
5.02,-0.73,0.21,-0.54,0.07,-0.13,-1.07,
5.026,-0.73,0.21,-0.54,-0.21,-0.27,-0.41,
5.027,-0.73,0.21,-0.54,-0.21,-0.27,-0.41,
5.027,-1.07,0.47,-0.48,-0.21,-0.27,-0.41,
5.028,-1.07,0.47,-0.48,-0.21,-0.27,-0.41,
5.035,-1.07,0.47,-0.48,-0.46,-0.37,0.31,
5.036,-1.07,0.47,-0.48,-0.46,-0.37,0.31,
5.037,-1.21,0.67,-0.29,-0.46,-0.37,0.31,
5.037,-1.21,0.67,-0.29,-0.46,-0.37,0.31,
5.047,-1.21,0.67,-0.29,-0.61,-0.41,0.94,
5.048,-1.21,0.67,-0.29,-0.61,-0.41,0.94,
5.048,-1.05,0.76,-0.01,-0.61,-0.41,0.94,
5.049,-1.05,0.76,-0.01,-0.61,-0.41,0.94,
5.055,-1.05,0.76,-0.01,-0.65,-0.42,1.40,
5.056,-1.05,0.76,-0.01,-0.65,-0.42,1.40,
5.057,-0.61,0.73,0.28,-0.65,-0.42,1.40,
5.057,-0.61,0.73,0.28,-0.65,-0.42,1.40,
5.064,-0.61,0.73,0.28,-0.57,-0.42,1.69,
5.065,-0.61,0.73,0.28,-0.57,-0.42,1.69,
5.065,-0.02,0.60,0.59,-0.57,-0.42,1.69,
5.066,-0.02,0.60,0.59,-0.57,-0.42,1.69,
5.074,-0.02,0.60,0.59,-0.39,-0.42,1.76,
5.074,-0.02,0.60,0.59,-0.39,-0.42,1.76,
5.075,1.48,0.45,0.81,-0.39,-0.42,1.76,
5.076,1.48,0.45,0.81,-0.39,-0.42,1.76,
5.083,1.48,0.45,0.81,-0.14,-0.39,1.57,
5.084,1.48,0.45,0.81,-0.14,-0.39,1.57,
5.084,1.75,0.30,0.91,-0.14,-0.39,1.57,
5.084,1.75,0.30,0.91,-0.14,-0.39,1.57,
5.092,1.75,0.30,0.91,0.15,-0.30,1.10,
5.093,1.75,0.30,0.91,0.15,-0.30,1.10,
5.094,1.99,0.17,0.89,0.15,-0.30,1.10,
5.094,1.99,0.17,0.89,0.15,-0.30,1.10,
5.102,1.99,0.17,0.89,0.41,-0.19,0.43,
5.104,1.99,0.17,0.89,0.41,-0.19,0.43,
5.104,2.16,0.07,0.74,0.41,-0.19,0.43,
5.105,2.16,0.07,0.74,0.41,-0.19,0.43,
5.112,2.16,0.07,0.74,0.60,-0.11,-0.26,
5.113,2.16,0.07,0.74,0.60,-0.11,-0.26,
5.114,2.16,0.02,0.48,0.60,-0.11,-0.26,
5.114,2.16,0.02,0.48,0.60,-0.11,-0.26,
5.121,2.16,0.02,0.48,0.69,-0.08,-0.83,
5.122,2.16,0.02,0.48,0.69,-0.08,-0.83,
5.122,2.04,-0.01,0.12,0.69,-0.08,-0.83,
5.123,2.04,-0.01,0.12,0.69,-0.08,-0.83,
5.131,2.04,-0.01,0.12,0.66,-0.12,-1.22,
5.132,2.04,-0.01,0.12,0.66,-0.12,-1.22,
5.133,1.85,-0.03,-0.32,0.66,-0.12,-1.22,
5.133,1.85,-0.03,-0.32,0.66,-0.12,-1.22,
5.14,1.85,-0.03,-0.32,0.52,-0.11,-1.42,
5.141,1.85,-0.03,-0.32,0.52,-0.11,-1.42,
5.142,1.65,-0.07,-0.73,0.52,-0.11,-1.42,
5.142,1.65,-0.07,-0.73,0.52,-0.11,-1.42,
5.15,1.65,-0.07,-0.73,0.52,-0.11,-1.42,
5.151,1.65,-0.07,-0.73,0.52,-0.11,-1.42,
5.151,1.65,-0.07,-0.73,0.52,-0.11,-1.42,
5.151,1.65,-0.07,-0.73,0.52,-0.11,-1.42,
5.159,1.65,-0.07,-0.73,0.29,-0.15,-1.47,
5.16,1.65,-0.07,-0.73,0.29,-0.15,-1.47,
5.16,1.62,-0.24,-1.22,0.29,-0.15,-1.47,
5.161,1.62,-0.24,-1.22,0.29,-0.15,-1.47,
5.169,1.62,-0.24,-1.22,-0.02,-0.30,-1.41,
5.17,1.62,-0.24,-1.22,-0.02,-0.30,-1.41,
5.171,1.69,-0.38,-1.21,-0.02,-0.30,-1.41,
5.172,1.69,-0.38,-1.21,-0.02,-0.30,-1.41,
5.179,1.69,-0.38,-1.21,-0.36,-0.44,-1.29,
5.18,1.69,-0.38,-1.21,-0.36,-0.44,-1.29,
5.18,1.79,-0.56,-1.11,-0.36,-0.44,-1.29,
5.18,1.79,-0.56,-1.11,-0.36,-0.44,-1.29,
5.188,1.79,-0.56,-1.11,-0.67,-0.55,-1.17,
5.188,1.79,-0.56,-1.11,-0.67,-0.55,-1.17,
5.188,1.85,-0.87,-0.93,-0.67,-0.55,-1.17,
5.189,1.85,-0.87,-0.93,-0.67,-0.55,-1.17,
5.197,1.85,-0.87,-0.93,-0.90,-0.63,-1.08,
5.198,1.85,-0.87,-0.93,-0.90,-0.63,-1.08,
5.199,1.85,-1.37,-0.84,-0.90,-0.63,-1.08,
5.2,1.85,-1.37,-0.84,-0.90,-0.63,-1.08,
5.207,1.85,-1.37,-0.84,-1.00,-0.67,-1.02,
5.208,1.85,-1.37,-0.84,-1.00,-0.67,-1.02,
5.209,1.70,-1.95,-1.01,-1.00,-0.67,-1.02,
5.209,1.70,-1.95,-1.01,-1.00,-0.67,-1.02,
5.229,1.70,-1.95,-1.01,-1.00,-0.70,-0.98,
5.23,1.70,-1.95,-1.01,-1.00,-0.70,-0.98,
5.23,1.36,-2.47,-2.97,-1.00,-0.70,-0.98,
5.231,1.36,-2.47,-2.97,-1.00,-0.70,-0.98,
5.235,1.36,-2.47,-2.97,-1.00,-0.70,-0.98,
5.235,1.36,-2.47,-2.97,-1.00,-0.70,-0.98,
5.236,1.36,-2.47,-2.97,-1.00,-0.70,-0.98,
5.237,1.36,-2.47,-2.97,-1.00,-0.70,-0.98,
5.237,1.36,-2.47,-2.97,-1.25,-0.53,-0.78,
5.238,1.36,-2.47,-2.97,-1.25,-0.53,-0.78,
5.238,0.53,-2.87,-6.54,-1.25,-0.53,-0.78,
5.238,0.53,-2.87,-6.54,-1.25,-0.53,-0.78,
5.246,0.53,-2.87,-6.54,-1.87,-0.44,-0.57,
5.247,0.53,-2.87,-6.54,-1.87,-0.44,-0.57,
5.247,0.35,-2.72,-6.80,-1.87,-0.44,-0.57,
5.248,0.35,-2.72,-6.80,-1.87,-0.44,-0.57,
5.254,0.35,-2.72,-6.80,-2.72,-0.36,-0.31,
5.255,0.35,-2.72,-6.80,-2.72,-0.36,-0.31,
5.255,0.43,-2.51,-6.81,-2.72,-0.36,-0.31,
5.256,0.43,-2.51,-6.81,-2.72,-0.36,-0.31,
5.264,0.43,-2.51,-6.81,-3.48,-0.30,-0.08,
5.265,0.43,-2.51,-6.81,-3.48,-0.30,-0.08,
5.266,0.56,-2.37,-6.32,-3.48,-0.30,-0.08,
5.267,0.56,-2.37,-6.32,-3.48,-0.30,-0.08,
5.273,0.56,-2.37,-6.32,-3.91,-0.30,0.07,
5.274,0.56,-2.37,-6.32,-3.91,-0.30,0.07,
5.274,0.48,-2.33,-4.66,-3.91,-0.30,0.07,
5.274,0.48,-2.33,-4.66,-3.91,-0.30,0.07,
5.283,0.48,-2.33,-4.66,-3.98,-0.35,0.15,
5.284,0.48,-2.33,-4.66,-3.98,-0.35,0.15,
5.284,0.07,-2.46,-4.09,-3.98,-0.35,0.15,
5.284,0.07,-2.46,-4.09,-3.98,-0.35,0.15,
5.292,0.07,-2.46,-4.09,-3.70,-0.36,0.19,
5.293,0.07,-2.46,-4.09,-3.70,-0.36,0.19,
5.293,-1.72,-2.65,-2.46,-3.70,-0.36,0.19,
5.293,-1.72,-2.65,-2.46,-3.70,-0.36,0.19,
5.302,-1.72,-2.65,-2.46,-3.12,-0.35,0.27,
5.303,-1.72,-2.65,-2.46,-3.12,-0.35,0.27,
5.303,-2.04,-2.83,-0.58,-3.12,-0.35,0.27,
5.304,-2.04,-2.83,-0.58,-3.12,-0.35,0.27,
5.312,-2.04,-2.83,-0.58,-2.29,-0.34,0.48,
5.312,-2.04,-2.83,-0.58,-2.29,-0.34,0.48,
5.313,-2.50,-2.95,1.71,-2.29,-0.34,0.48,
5.313,-2.50,-2.95,1.71,-2.29,-0.34,0.48,
5.32,-2.50,-2.95,1.71,-1.24,-0.32,0.84,
5.321,-2.50,-2.95,1.71,-1.24,-0.32,0.84,
5.321,-2.90,-3.00,4.32,-1.24,-0.32,0.84,
5.322,-2.90,-3.00,4.32,-1.24,-0.32,0.84,
5.331,-2.90,-3.00,4.32,0.04,-0.24,1.27,
5.332,-2.90,-3.00,4.32,0.04,-0.24,1.27,
5.333,-3.16,-3.04,6.51,0.04,-0.24,1.27,
5.334,-3.16,-3.04,6.51,0.04,-0.24,1.27,
5.34,-3.16,-3.04,6.51,0.04,-0.24,1.27,
5.341,-3.16,-3.04,6.51,0.04,-0.24,1.27,
5.341,-3.16,-3.04,6.51,0.04,-0.24,1.27,
5.342,-3.16,-3.04,6.51,0.04,-0.24,1.27,
5.35,-3.16,-3.04,6.51,1.52,-0.04,1.65,
5.352,-3.16,-3.04,6.51,1.52,-0.04,1.65,
5.352,-3.35,-3.20,8.22,1.52,-0.04,1.65,
5.353,-3.35,-3.20,8.22,1.52,-0.04,1.65,
5.359,-3.35,-3.20,8.22,3.12,0.33,1.92,
5.36,-3.35,-3.20,8.22,3.12,0.33,1.92,
5.361,-3.19,-3.15,8.07,3.12,0.33,1.92,
5.362,-3.19,-3.15,8.07,3.12,0.33,1.92,
5.368,-3.19,-3.15,8.07,4.63,0.90,1.99,
5.37,-3.19,-3.15,8.07,4.63,0.90,1.99,
5.37,-2.78,-2.91,6.46,4.63,0.90,1.99,
5.371,-2.78,-2.91,6.46,4.63,0.90,1.99,
5.379,-2.78,-2.91,6.46,5.76,1.58,1.82,
5.379,-2.78,-2.91,6.46,5.76,1.58,1.82,
5.38,-1.08,-2.43,2.16,5.76,1.58,1.82,
5.38,-1.08,-2.43,2.16,5.76,1.58,1.82,
5.388,-1.08,-2.43,2.16,6.22,2.17,1.44,
5.389,-1.08,-2.43,2.16,6.22,2.17,1.44,
5.389,-0.76,-1.86,-1.60,6.22,2.17,1.44,
5.39,-0.76,-1.86,-1.60,6.22,2.17,1.44,
5.398,-0.76,-1.86,-1.60,5.80,2.41,0.97,
5.398,-0.76,-1.86,-1.60,5.80,2.41,0.97,
5.399,-0.22,-1.34,-4.71,5.80,2.41,0.97,
5.399,-0.22,-1.34,-4.71,5.80,2.41,0.97,
5.407,-0.22,-1.34,-4.71,4.50,2.15,0.55,
5.408,-0.22,-1.34,-4.71,4.50,2.15,0.55,
5.408,0.20,-0.93,-5.11,4.50,2.15,0.55,
5.409,0.20,-0.93,-5.11,4.50,2.15,0.55,
5.417,0.20,-0.93,-5.11,2.57,1.45,0.22,
5.419,0.20,-0.93,-5.11,2.57,1.45,0.22,
5.419,0.40,-0.66,-5.11,2.57,1.45,0.22,
5.42,0.40,-0.66,-5.11,2.57,1.45,0.22,
5.43,0.40,-0.66,-5.11,0.46,0.59,-0.10,
5.431,0.40,-0.66,-5.11,0.46,0.59,-0.10,
5.432,0.33,-0.46,-2.74,0.46,0.59,-0.10,
5.432,0.33,-0.46,-2.74,0.46,0.59,-0.10,
5.435,0.33,-0.46,-2.74,-1.34,0.32,-0.46,
5.436,0.33,-0.46,-2.74,-1.34,0.32,-0.46,
5.436,-0.01,-0.25,-0.60,-1.34,0.32,-0.46,
5.436,-0.01,-0.25,-0.60,-1.34,0.32,-0.46,
5.446,-0.01,-0.25,-0.60,-2.41,0.30,-0.80,
5.447,-0.01,-0.25,-0.60,-2.41,0.30,-0.80,
5.448,-0.50,-0.01,-0.13,-2.41,0.30,-0.80,
5.449,-0.50,-0.01,-0.13,-2.41,0.30,-0.80,
5.454,-0.50,-0.01,-0.13,-2.65,0.11,-1.02,
5.455,-0.50,-0.01,-0.13,-2.65,0.11,-1.02,
5.455,-0.93,0.26,0.35,-2.65,0.11,-1.02,
5.456,-0.93,0.26,0.35,-2.65,0.11,-1.02,
5.464,-0.93,0.26,0.35,-2.27,0.11,-1.05,
5.465,-0.93,0.26,0.35,-2.27,0.11,-1.05,
5.466,-1.23,0.57,0.61,-2.27,0.11,-1.05,
5.467,-1.23,0.57,0.61,-2.27,0.11,-1.05,
5.473,-1.23,0.57,0.61,-1.62,0.17,-0.92,
5.474,-1.23,0.57,0.61,-1.62,0.17,-0.92,
5.474,-1.31,0.89,0.63,-1.62,0.17,-0.92,
5.475,-1.31,0.89,0.63,-1.62,0.17,-0.92,
5.482,-1.31,0.89,0.63,-0.97,0.22,-0.67,
5.483,-1.31,0.89,0.63,-0.97,0.22,-0.67,
5.484,-1.17,1.22,0.55,-0.97,0.22,-0.67,
5.484,-1.17,1.22,0.55,-0.97,0.22,-0.67,
5.492,-1.17,1.22,0.55,-0.42,0.25,-0.39,
5.493,-1.17,1.22,0.55,-0.42,0.25,-0.39,
5.493,-0.92,1.54,0.50,-0.42,0.25,-0.39,
5.494,-0.92,1.54,0.50,-0.42,0.25,-0.39,
5.502,-0.92,1.54,0.50,-0.01,0.27,-0.15,
5.502,-0.92,1.54,0.50,-0.01,0.27,-0.15,
5.503,-0.68,1.82,0.51,-0.01,0.27,-0.15,
5.503,-0.68,1.82,0.51,-0.01,0.27,-0.15,
5.512,-0.68,1.82,0.51,0.26,0.27,0.00,
5.514,-0.68,1.82,0.51,0.26,0.27,0.00,
5.515,-0.57,2.14,0.61,0.26,0.27,0.00,
5.516,-0.57,2.14,0.61,0.26,0.27,0.00,
5.521,-0.57,2.14,0.61,0.43,0.25,0.07,
5.521,-0.57,2.14,0.61,0.43,0.25,0.07,
5.522,-0.66,2.44,0.77,0.43,0.25,0.07,
5.522,-0.66,2.44,0.77,0.43,0.25,0.07,
5.531,-0.66,2.44,0.77,0.54,0.22,0.07,
5.533,-0.66,2.44,0.77,0.54,0.22,0.07,
5.533,-0.92,2.76,1.00,0.54,0.22,0.07,
5.533,-0.92,2.76,1.00,0.54,0.22,0.07,
5.54,-0.92,2.76,1.00,0.54,0.22,0.07,
5.541,-0.92,2.76,1.00,0.54,0.22,0.07,
5.541,-0.92,2.76,1.00,0.54,0.22,0.07,
5.541,-0.92,2.76,1.00,0.54,0.22,0.07,
5.549,-0.92,2.76,1.00,0.64,0.14,0.06,
5.55,-0.92,2.76,1.00,0.64,0.14,0.06,
5.55,-1.67,3.32,1.21,0.64,0.14,0.06,
5.55,-1.67,3.32,1.21,0.64,0.14,0.06,
5.559,-1.67,3.32,1.21,0.75,0.01,0.14,
5.56,-1.67,3.32,1.21,0.75,0.01,0.14,
5.56,-2.01,3.54,1.08,0.75,0.01,0.14,
5.56,-2.01,3.54,1.08,0.75,0.01,0.14,
5.568,-2.01,3.54,1.08,0.88,-0.17,0.35,
5.569,-2.01,3.54,1.08,0.88,-0.17,0.35,
5.57,-2.29,3.69,0.82,0.88,-0.17,0.35,
5.57,-2.29,3.69,0.82,0.88,-0.17,0.35,
5.578,-2.29,3.69,0.82,0.99,-0.40,0.73,
5.579,-2.29,3.69,0.82,0.99,-0.40,0.73,
5.579,-2.48,3.81,0.50,0.99,-0.40,0.73,
5.579,-2.48,3.81,0.50,0.99,-0.40,0.73,
5.587,-2.48,3.81,0.50,1.00,-0.74,1.23,
5.588,-2.48,3.81,0.50,1.00,-0.74,1.23,
5.588,-2.54,3.87,0.30,1.00,-0.74,1.23,
5.589,-2.54,3.87,0.30,1.00,-0.74,1.23,
5.597,-2.54,3.87,0.30,0.86,-1.24,1.77,
5.599,-2.54,3.87,0.30,0.86,-1.24,1.77,
5.6,-2.48,3.92,0.24,0.86,-1.24,1.77,
5.6,-2.48,3.92,0.24,0.86,-1.24,1.77,
5.607,-2.48,3.92,0.24,0.56,-1.86,2.26,
5.608,-2.48,3.92,0.24,0.56,-1.86,2.26,
5.609,-2.36,3.92,0.29,0.56,-1.86,2.26,
5.61,-2.36,3.92,0.29,0.56,-1.86,2.26,
5.619,-2.36,3.92,0.29,0.42,-2.49,2.13,
5.62,-2.36,3.92,0.29,0.42,-2.49,2.13,
5.62,-2.23,3.84,0.38,0.42,-2.49,2.13,
5.62,-2.23,3.84,0.38,0.42,-2.49,2.13,
5.626,-2.23,3.84,0.38,0.50,-3.00,1.52,
5.627,-2.23,3.84,0.38,0.50,-3.00,1.52,
5.627,-2.16,3.66,0.37,0.50,-3.00,1.52,
5.628,-2.16,3.66,0.37,0.50,-3.00,1.52,
5.635,-2.16,3.66,0.37,0.57,-3.31,1.05,
5.636,-2.16,3.66,0.37,0.57,-3.31,1.05,
5.636,-2.15,3.32,0.22,0.57,-3.31,1.05,
5.636,-2.15,3.32,0.22,0.57,-3.31,1.05,
5.645,-2.15,3.32,0.22,0.63,-3.42,0.64,
5.646,-2.15,3.32,0.22,0.63,-3.42,0.64,
5.647,-2.19,2.85,-0.06,0.63,-3.42,0.64,
5.648,-2.19,2.85,-0.06,0.63,-3.42,0.64,
5.655,-2.19,2.85,-0.06,0.47,-3.37,0.52,
5.656,-2.19,2.85,-0.06,0.47,-3.37,0.52,
5.657,-2.23,2.23,-0.50,0.47,-3.37,0.52,
5.658,-2.23,2.23,-0.50,0.47,-3.37,0.52,
5.663,-2.23,2.23,-0.50,0.08,-3.22,0.61,
5.665,-2.23,2.23,-0.50,0.08,-3.22,0.61,
5.665,-2.23,0.53,-1.10,0.08,-3.22,0.61,
5.666,-2.23,0.53,-1.10,0.08,-3.22,0.61,
5.673,-2.23,0.53,-1.10,-0.35,-2.99,0.57,
5.674,-2.23,0.53,-1.10,-0.35,-2.99,0.57,
5.674,-2.05,-1.46,-3.10,-0.35,-2.99,0.57,
5.674,-2.05,-1.46,-3.10,-0.35,-2.99,0.57,
5.682,-2.05,-1.46,-3.10,-0.92,-2.58,0.39,
5.683,-2.05,-1.46,-3.10,-0.92,-2.58,0.39,
5.683,-0.30,-3.23,-6.61,-0.92,-2.58,0.39,
5.684,-0.30,-3.23,-6.61,-0.92,-2.58,0.39,
5.692,-0.30,-3.23,-6.61,-1.74,-2.05,-0.01,
5.693,-0.30,-3.23,-6.61,-1.74,-2.05,-0.01,
5.694,2.35,-4.80,-9.70,-1.74,-2.05,-0.01,
5.694,2.35,-4.80,-9.70,-1.74,-2.05,-0.01,
5.709,2.35,-4.80,-9.70,-2.91,-1.43,-0.45,
5.71,2.35,-4.80,-9.70,-2.91,-1.43,-0.45,
5.711,5.65,-5.15,-11.75,-2.91,-1.43,-0.45,
5.711,5.65,-5.15,-11.75,-2.91,-1.43,-0.45,
5.711,5.65,-5.15,-11.75,-4.28,-0.72,-0.78,
5.712,5.65,-5.15,-11.75,-4.28,-0.72,-0.78,
5.712,7.44,-5.42,-11.93,-4.28,-0.72,-0.78,
5.713,7.44,-5.42,-11.93,-4.28,-0.72,-0.78,
5.727,7.44,-5.42,-11.93,-5.49,-0.15,-1.03,
5.728,7.44,-5.42,-11.93,-5.49,-0.15,-1.03,
5.728,7.99,-5.21,-10.32,-5.49,-0.15,-1.03,
5.73,7.99,-5.21,-10.32,-5.49,-0.15,-1.03,
5.73,7.99,-5.21,-10.32,-5.50,0.17,-1.81,
5.731,7.99,-5.21,-10.32,-5.50,0.17,-1.81,
5.731,7.74,-3.06,-7.40,-5.50,0.17,-1.81,
5.732,7.74,-3.06,-7.40,-5.50,0.17,-1.81,
5.74,7.74,-3.06,-7.40,-5.50,0.17,-1.81,
5.741,7.74,-3.06,-7.40,-5.50,0.17,-1.81,
5.741,7.74,-3.06,-7.40,-5.50,0.17,-1.81,
5.741,7.74,-3.06,-7.40,-5.50,0.17,-1.81,
5.749,7.74,-3.06,-7.40,-4.97,0.61,-2.94,
5.75,7.74,-3.06,-7.40,-4.97,0.61,-2.94,
5.751,2.63,0.92,-2.46,-4.97,0.61,-2.94,
5.751,2.63,0.92,-2.46,-4.97,0.61,-2.94,
5.759,2.63,0.92,-2.46,-4.61,1.13,-3.52,
5.76,2.63,0.92,-2.46,-4.61,1.13,-3.52,
5.76,0.77,1.42,-1.98,-4.61,1.13,-3.52,
5.761,0.77,1.42,-1.98,-4.61,1.13,-3.52,
5.769,0.77,1.42,-1.98,-3.76,1.29,-3.54,
5.77,0.77,1.42,-1.98,-3.76,1.29,-3.54,
5.77,-0.79,1.94,-0.50,-3.76,1.29,-3.54,
5.77,-0.79,1.94,-0.50,-3.76,1.29,-3.54,
5.779,-0.79,1.94,-0.50,-2.63,1.17,-3.03,
5.78,-0.79,1.94,-0.50,-2.63,1.17,-3.03,
5.78,-1.22,1.86,-0.05,-2.63,1.17,-3.03,
5.781,-1.22,1.86,-0.05,-2.63,1.17,-3.03,
5.787,-1.22,1.86,-0.05,-1.38,0.84,-2.11,
5.788,-1.22,1.86,-0.05,-1.38,0.84,-2.11,
5.789,-2.98,0.21,1.50,-1.38,0.84,-2.11,
5.789,-2.98,0.21,1.50,-1.38,0.84,-2.11,
5.797,-2.98,0.21,1.50,-0.08,0.40,-0.93,
5.798,-2.98,0.21,1.50,-0.08,0.40,-0.93,
5.799,-3.51,-2.27,3.29,-0.08,0.40,-0.93,
5.799,-3.51,-2.27,3.29,-0.08,0.40,-0.93,
5.806,-3.51,-2.27,3.29,1.31,-0.07,0.38,
5.807,-3.51,-2.27,3.29,1.31,-0.07,0.38,
5.808,-4.00,-4.52,3.67,1.31,-0.07,0.38,
5.808,-4.00,-4.52,3.67,1.31,-0.07,0.38,
5.817,-4.00,-4.52,3.67,2.81,-0.50,1.72,
5.819,-4.00,-4.52,3.67,2.81,-0.50,1.72,
5.819,-4.01,-6.23,4.08,2.81,-0.50,1.72,
5.82,-4.01,-6.23,4.08,2.81,-0.50,1.72,
5.825,-4.01,-6.23,4.08,4.20,-0.78,2.85,
5.826,-4.01,-6.23,4.08,4.20,-0.78,2.85,
5.826,-3.61,-6.24,4.03,4.20,-0.78,2.85,
5.827,-3.61,-6.24,4.03,4.20,-0.78,2.85,
5.835,-3.61,-6.24,4.03,5.14,-0.83,3.51,
5.836,-3.61,-6.24,4.03,5.14,-0.83,3.51,
5.836,-3.13,-5.79,2.25,5.14,-0.83,3.51,
5.837,-3.13,-5.79,2.25,5.14,-0.83,3.51,
5.846,-3.13,-5.79,2.25,5.48,-0.67,3.66,
5.847,-3.13,-5.79,2.25,5.48,-0.67,3.66,
5.847,-1.33,-3.91,-3.55,5.48,-0.67,3.66,
5.847,-1.33,-3.91,-3.55,5.48,-0.67,3.66,
5.854,-1.33,-3.91,-3.55,5.16,-0.45,3.44,
5.855,-1.33,-3.91,-3.55,5.16,-0.45,3.44,
5.855,-0.94,-2.27,-7.51,5.16,-0.45,3.44,
5.855,-0.94,-2.27,-7.51,5.16,-0.45,3.44,
5.863,-0.94,-2.27,-7.51,4.08,-0.37,3.02,
5.864,-0.94,-2.27,-7.51,4.08,-0.37,3.02,
5.864,-0.32,-0.71,-7.94,4.08,-0.37,3.02,
5.865,-0.32,-0.71,-7.94,4.08,-0.37,3.02,
5.873,-0.32,-0.71,-7.94,2.32,-0.46,2.53,
5.873,-0.32,-0.71,-7.94,2.32,-0.46,2.53,
5.874,1.39,1.09,-8.02,2.32,-0.46,2.53,
5.874,1.39,1.09,-8.02,2.32,-0.46,2.53,
5.882,1.39,1.09,-8.02,0.24,-0.55,1.97,
5.883,1.39,1.09,-8.02,0.24,-0.55,1.97,
5.884,1.64,1.55,-2.21,0.24,-0.55,1.97,
5.884,1.64,1.55,-2.21,0.24,-0.55,1.97,
5.892,1.64,1.55,-2.21,-1.53,-0.52,1.65,
5.893,1.64,1.55,-2.21,-1.53,-0.52,1.65,
5.893,1.41,3.32,2.21,-1.53,-0.52,1.65,
5.894,1.41,3.32,2.21,-1.53,-0.52,1.65,
5.902,1.41,3.32,2.21,-2.37,-0.36,1.57,
5.903,1.41,3.32,2.21,-2.37,-0.36,1.57,
5.903,0.99,4.99,4.16,-2.37,-0.36,1.57,
5.904,0.99,4.99,4.16,-2.37,-0.36,1.57,
5.92,0.99,4.99,4.16,-2.01,-0.17,1.46,
5.921,0.99,4.99,4.16,-2.01,-0.17,1.46,
5.921,0.48,5.23,4.33,-2.01,-0.17,1.46,
5.922,0.48,5.23,4.33,-2.01,-0.17,1.46,
5.922,0.48,5.23,4.33,-0.59,0.02,1.24,
5.922,0.48,5.23,4.33,-0.59,0.02,1.24,
5.922,-0.06,5.32,4.23,-0.59,0.02,1.24,
5.923,-0.06,5.32,4.23,-0.59,0.02,1.24,
5.932,-0.06,5.32,4.23,1.37,0.25,1.03,
5.932,-0.06,5.32,4.23,1.37,0.25,1.03,
5.933,-0.35,4.93,3.84,1.37,0.25,1.03,
5.933,-0.35,4.93,3.84,1.37,0.25,1.03,
5.94,-0.35,4.93,3.84,1.37,0.25,1.03,
5.94,-0.35,4.93,3.84,1.37,0.25,1.03,
5.941,-0.35,4.93,3.84,1.37,0.25,1.03,
5.942,-0.35,4.93,3.84,1.37,0.25,1.03,
5.95,-0.35,4.93,3.84,3.28,0.52,1.05,
5.952,-0.35,4.93,3.84,3.28,0.52,1.05,
5.952,-0.40,0.69,3.04,3.28,0.52,1.05,
5.953,-0.40,0.69,3.04,3.28,0.52,1.05,
5.958,-0.40,0.69,3.04,4.70,0.71,0.92,
5.959,-0.40,0.69,3.04,4.70,0.71,0.92,
5.96,-0.11,-1.29,2.94,4.70,0.71,0.92,
5.96,-0.11,-1.29,2.94,4.70,0.71,0.92,
5.968,-0.11,-1.29,2.94,5.30,0.81,0.74,
5.969,-0.11,-1.29,2.94,5.30,0.81,0.74,
5.969,0.35,-1.90,2.95,5.30,0.81,0.74,
5.97,0.35,-1.90,2.95,5.30,0.81,0.74,
5.979,0.35,-1.90,2.95,5.04,0.86,0.61,
5.979,0.35,-1.90,2.95,5.04,0.86,0.61,
5.98,2.07,-2.36,2.93,5.04,0.86,0.61,
5.98,2.07,-2.36,2.93,5.04,0.86,0.61,
5.987,2.07,-2.36,2.93,4.26,0.86,0.22,
5.988,2.07,-2.36,2.93,4.26,0.86,0.22,
5.989,2.47,-2.44,2.50,4.26,0.86,0.22,
5.989,2.47,-2.44,2.50,4.26,0.86,0.22,
5.997,2.47,-2.44,2.50,3.41,0.86,-0.38,
5.997,2.47,-2.44,2.50,3.41,0.86,-0.38,
5.998,4.13,-2.10,0.47,3.41,0.86,-0.38,
5.998,4.13,-2.10,0.47,3.41,0.86,-0.38,
6.006,4.13,-2.10,0.47,2.60,0.84,-1.09,
6.007,4.13,-2.10,0.47,2.60,0.84,-1.09,
6.008,4.56,-0.47,-1.50,2.60,0.84,-1.09,
6.008,4.56,-0.47,-1.50,2.60,0.84,-1.09,
6.017,4.56,-0.47,-1.50,1.73,0.70,-1.81,
6.018,4.56,-0.47,-1.50,1.73,0.70,-1.81,
6.02,4.75,-0.20,-3.04,1.73,0.70,-1.81,
6.021,4.75,-0.20,-3.04,1.73,0.70,-1.81,
6.025,4.75,-0.20,-3.04,0.69,0.40,-2.43,
6.026,4.75,-0.20,-3.04,0.69,0.40,-2.43,
6.026,4.45,0.14,-3.26,0.69,0.40,-2.43,
6.027,4.45,0.14,-3.26,0.69,0.40,-2.43,
6.035,4.45,0.14,-3.26,-0.47,-0.02,-2.89,
6.035,4.45,0.14,-3.26,-0.47,-0.02,-2.89,
6.036,2.58,0.37,-2.88,-0.47,-0.02,-2.89,
6.036,2.58,0.37,-2.88,-0.47,-0.02,-2.89,
6.045,2.58,0.37,-2.88,-1.57,-0.45,-3.11,
6.047,2.58,0.37,-2.88,-1.57,-0.45,-3.11,
6.048,0.93,0.48,-0.76,-1.57,-0.45,-3.11,
6.048,0.93,0.48,-0.76,-1.57,-0.45,-3.11,
6.055,0.93,0.48,-0.76,-2.32,-0.80,-2.95,
6.055,0.93,0.48,-0.76,-2.32,-0.80,-2.95,
6.056,0.47,0.52,1.00,-2.32,-0.80,-2.95,
6.056,0.47,0.52,1.00,-2.32,-0.80,-2.95,
6.063,0.47,0.52,1.00,-2.50,-1.00,-2.36,
6.064,0.47,0.52,1.00,-2.50,-1.00,-2.36,
6.065,0.04,0.54,2.70,-2.50,-1.00,-2.36,
6.066,0.04,0.54,2.70,-2.50,-1.00,-2.36,
6.073,0.04,0.54,2.70,-2.03,-1.06,-1.46,
6.074,0.04,0.54,2.70,-2.03,-1.06,-1.46,
6.075,-0.16,0.54,2.74,-2.03,-1.06,-1.46,
6.075,-0.16,0.54,2.74,-2.03,-1.06,-1.46,
6.082,-0.16,0.54,2.74,-1.05,-0.99,-0.49,
6.084,-0.16,0.54,2.74,-1.05,-0.99,-0.49,
6.084,-0.17,0.51,2.65,-1.05,-0.99,-0.49,
6.085,-0.17,0.51,2.65,-1.05,-0.99,-0.49,
6.091,-0.17,0.51,2.65,0.11,-0.86,0.34,
6.092,-0.17,0.51,2.65,0.11,-0.86,0.34,
6.093,-0.07,0.46,2.30,0.11,-0.86,0.34,
6.093,-0.07,0.46,2.30,0.11,-0.86,0.34,
6.101,-0.07,0.46,2.30,1.09,-0.73,0.96,
6.102,-0.07,0.46,2.30,1.09,-0.73,0.96,
6.103,0.14,0.41,1.74,1.09,-0.73,0.96,
6.103,0.14,0.41,1.74,1.09,-0.73,0.96,
6.113,0.14,0.41,1.74,1.72,-0.62,1.35,
6.114,0.14,0.41,1.74,1.72,-0.62,1.35,
6.114,0.37,0.37,1.05,1.72,-0.62,1.35,
6.115,0.37,0.37,1.05,1.72,-0.62,1.35,
6.121,0.37,0.37,1.05,1.96,-0.54,1.51,
6.121,0.37,0.37,1.05,1.96,-0.54,1.51,
6.122,0.63,0.35,0.36,1.96,-0.54,1.51,
6.122,0.63,0.35,0.36,1.96,-0.54,1.51,
6.13,0.63,0.35,0.36,1.96,-0.54,1.51,
6.131,0.63,0.35,0.36,1.96,-0.54,1.51,
6.132,0.63,0.35,0.36,1.96,-0.54,1.51,
6.132,0.63,0.35,0.36,1.96,-0.54,1.51,
6.14,0.63,0.35,0.36,1.88,-0.48,1.50,
6.141,0.63,0.35,0.36,1.88,-0.48,1.50,
6.141,1.15,0.39,-0.40,1.88,-0.48,1.50,
6.141,1.15,0.39,-0.40,1.88,-0.48,1.50,
6.15,1.15,0.39,-0.40,1.56,-0.44,1.34,
6.152,1.15,0.39,-0.40,1.56,-0.44,1.34,
6.152,1.35,0.49,-0.41,1.56,-0.44,1.34,
6.153,1.35,0.49,-0.41,1.56,-0.44,1.34,
6.158,1.35,0.49,-0.41,1.08,-0.42,1.06,
6.159,1.35,0.49,-0.41,1.08,-0.42,1.06,
6.159,1.47,0.64,-0.28,1.08,-0.42,1.06,
6.16,1.47,0.64,-0.28,1.08,-0.42,1.06,
6.168,1.47,0.64,-0.28,0.58,-0.40,0.71,
6.17,1.47,0.64,-0.28,0.58,-0.40,0.71,
6.17,1.57,0.81,-0.10,0.58,-0.40,0.71,
6.171,1.57,0.81,-0.10,0.58,-0.40,0.71,
6.179,1.57,0.81,-0.10,0.19,-0.37,0.34,
6.18,1.57,0.81,-0.10,0.19,-0.37,0.34,
6.181,1.65,0.89,0.02,0.19,-0.37,0.34,
6.181,1.65,0.89,0.02,0.19,-0.37,0.34,
6.187,1.65,0.89,0.02,-0.02,-0.31,0.00,
6.188,1.65,0.89,0.02,-0.02,-0.31,0.00,
6.188,1.67,0.87,0.06,-0.02,-0.31,0.00,
6.189,1.67,0.87,0.06,-0.02,-0.31,0.00,
6.197,1.67,0.87,0.06,-0.08,-0.24,-0.28,
6.198,1.67,0.87,0.06,-0.08,-0.24,-0.28,
6.198,1.65,0.76,0.06,-0.08,-0.24,-0.28,
6.198,1.65,0.76,0.06,-0.08,-0.24,-0.28,
6.206,1.65,0.76,0.06,-0.03,-0.15,-0.51,
6.207,1.65,0.76,0.06,-0.03,-0.15,-0.51,
6.207,1.53,0.58,-0.01,-0.03,-0.15,-0.51,
6.207,1.53,0.58,-0.01,-0.03,-0.15,-0.51,
6.228,1.53,0.58,-0.01,0.06,-0.08,-0.68,
6.229,1.53,0.58,-0.01,0.06,-0.08,-0.68,
6.23,1.31,0.41,-0.15,0.06,-0.08,-0.68,
6.23,1.31,0.41,-0.15,0.06,-0.08,-0.68,
6.23,1.31,0.41,-0.15,0.13,-0.03,-0.76,
6.23,1.31,0.41,-0.15,0.13,-0.03,-0.76,
6.231,1.03,0.24,-0.30,0.13,-0.03,-0.76,
6.231,1.03,0.24,-0.30,0.13,-0.03,-0.76,
6.235,1.03,0.24,-0.30,0.17,-0.00,-0.76,
6.235,1.03,0.24,-0.30,0.17,-0.00,-0.76,
6.236,0.71,0.09,-0.45,0.17,-0.00,-0.76,
6.236,0.71,0.09,-0.45,0.17,-0.00,-0.76,
6.245,0.71,0.09,-0.45,0.17,0.02,-0.68,
6.246,0.71,0.09,-0.45,0.17,0.02,-0.68,
6.247,0.39,-0.02,-0.60,0.17,0.02,-0.68,
6.247,0.39,-0.02,-0.60,0.17,0.02,-0.68,
6.254,0.39,-0.02,-0.60,0.12,0.05,-0.51,
6.254,0.39,-0.02,-0.60,0.12,0.05,-0.51,
6.255,0.12,-0.11,-0.78,0.12,0.05,-0.51,
6.255,0.12,-0.11,-0.78,0.12,0.05,-0.51,
6.264,0.12,-0.11,-0.78,0.04,0.05,-0.28,
6.265,0.12,-0.11,-0.78,0.04,0.05,-0.28,
6.265,-0.08,-0.14,-0.96,0.04,0.05,-0.28,
6.265,-0.08,-0.14,-0.96,0.04,0.05,-0.28,
6.273,-0.08,-0.14,-0.96,-0.05,0.03,-0.02,
6.273,-0.08,-0.14,-0.96,-0.05,0.03,-0.02,
6.274,-0.11,-0.16,-1.09,-0.05,0.03,-0.02,
6.274,-0.11,-0.16,-1.09,-0.05,0.03,-0.02,
6.282,-0.11,-0.16,-1.09,-0.15,-0.01,0.23,
6.283,-0.11,-0.16,-1.09,-0.15,-0.01,0.23,
6.283,-0.04,-0.23,-1.21,-0.15,-0.01,0.23,
6.284,-0.04,-0.23,-1.21,-0.15,-0.01,0.23,
6.292,-0.04,-0.23,-1.21,-0.26,-0.05,0.43,
6.292,-0.04,-0.23,-1.21,-0.26,-0.05,0.43,
6.293,0.13,-0.35,-1.32,-0.26,-0.05,0.43,
6.293,0.13,-0.35,-1.32,-0.26,-0.05,0.43,
6.301,0.13,-0.35,-1.32,-0.37,-0.09,0.56,
6.302,0.13,-0.35,-1.32,-0.37,-0.09,0.56,
6.302,0.34,-0.49,-1.41,-0.37,-0.09,0.56,
6.303,0.34,-0.49,-1.41,-0.37,-0.09,0.56,
6.315,0.34,-0.49,-1.41,-0.47,-0.11,0.58,
6.316,0.34,-0.49,-1.41,-0.47,-0.11,0.58,
6.316,0.54,-0.59,-1.57,-0.47,-0.11,0.58,
6.316,0.54,-0.59,-1.57,-0.47,-0.11,0.58,
6.321,0.54,-0.59,-1.57,-0.57,-0.11,0.51,
6.321,0.54,-0.59,-1.57,-0.57,-0.11,0.51,
6.322,0.80,-0.62,-1.75,-0.57,-0.11,0.51,
6.322,0.80,-0.62,-1.75,-0.57,-0.11,0.51,
6.331,0.80,-0.62,-1.75,-0.67,-0.10,0.37,
6.332,0.80,-0.62,-1.75,-0.67,-0.10,0.37,
6.332,1.08,-0.58,-1.91,-0.67,-0.10,0.37,
6.332,1.08,-0.58,-1.91,-0.67,-0.10,0.37,
6.34,1.08,-0.58,-1.91,-0.67,-0.10,0.37,
6.34,1.08,-0.58,-1.91,-0.67,-0.10,0.37,
6.341,1.08,-0.58,-1.91,-0.67,-0.10,0.37,
6.342,1.08,-0.58,-1.91,-0.67,-0.10,0.37,
6.349,1.08,-0.58,-1.91,-0.77,-0.08,0.16,
6.35,1.08,-0.58,-1.91,-0.77,-0.08,0.16,
6.35,1.73,-0.46,-2.16,-0.77,-0.08,0.16,
6.351,1.73,-0.46,-2.16,-0.77,-0.08,0.16,
6.358,1.73,-0.46,-2.16,-0.88,-0.05,-0.09,
6.359,1.73,-0.46,-2.16,-0.88,-0.05,-0.09,
6.359,2.00,-0.43,-2.18,-0.88,-0.05,-0.09,
6.36,2.00,-0.43,-2.18,-0.88,-0.05,-0.09,
6.368,2.00,-0.43,-2.18,-0.98,-0.02,-0.39,
6.369,2.00,-0.43,-2.18,-0.98,-0.02,-0.39,
6.37,2.27,-0.39,-2.18,-0.98,-0.02,-0.39,
6.37,2.27,-0.39,-2.18,-0.98,-0.02,-0.39,
6.379,2.27,-0.39,-2.18,-1.07,0.03,-0.73,
6.382,2.27,-0.39,-2.18,-1.07,0.03,-0.73,
6.382,2.57,-0.35,-2.20,-1.07,0.03,-0.73,
6.383,2.57,-0.35,-2.20,-1.07,0.03,-0.73,
6.387,2.57,-0.35,-2.20,-1.13,0.10,-1.08,
6.388,2.57,-0.35,-2.20,-1.13,0.10,-1.08,
6.389,2.87,-0.36,-2.24,-1.13,0.10,-1.08,
6.39,2.87,-0.36,-2.24,-1.13,0.10,-1.08,
6.397,2.87,-0.36,-2.24,-1.16,0.14,-1.39,
6.399,2.87,-0.36,-2.24,-1.16,0.14,-1.39,
6.399,3.06,-0.55,-2.31,-1.16,0.14,-1.39,
6.4,3.06,-0.55,-2.31,-1.16,0.14,-1.39,
6.406,3.06,-0.55,-2.31,-1.16,0.14,-1.66,
6.408,3.06,-0.55,-2.31,-1.16,0.14,-1.66,
6.409,3.07,-1.04,-2.42,-1.16,0.14,-1.66,
6.41,3.07,-1.04,-2.42,-1.16,0.14,-1.66,
6.418,3.07,-1.04,-2.42,-1.16,0.12,-1.88,
6.42,3.07,-1.04,-2.42,-1.16,0.12,-1.88,
6.42,2.79,-2.71,-2.69,-1.16,0.12,-1.88,
6.421,2.79,-2.71,-2.69,-1.16,0.12,-1.88,
6.43,2.79,-2.71,-2.69,-1.17,0.09,-1.99,
6.431,2.79,-2.71,-2.69,-1.17,0.09,-1.99,
6.431,2.19,-3.19,-3.14,-1.17,0.09,-1.99,
6.431,2.19,-3.19,-3.14,-1.17,0.09,-1.99,
6.434,2.19,-3.19,-3.14,-1.22,0.06,-1.96,
6.435,2.19,-3.19,-3.14,-1.22,0.06,-1.96,
6.435,0.56,-3.62,-4.86,-1.22,0.06,-1.96,
6.436,0.56,-3.62,-4.86,-1.22,0.06,-1.96,
6.45,0.56,-3.62,-4.86,-1.35,0.02,-1.71,
6.451,0.56,-3.62,-4.86,-1.35,0.02,-1.71,
6.451,0.02,-3.76,-4.99,-1.35,0.02,-1.71,
6.452,0.02,-3.76,-4.99,-1.35,0.02,-1.71,
6.454,0.02,-3.76,-4.99,-1.61,-0.04,-1.23,
6.455,0.02,-3.76,-4.99,-1.61,-0.04,-1.23,
6.455,-0.62,-3.58,-5.10,-1.61,-0.04,-1.23,
6.455,-0.62,-3.58,-5.10,-1.61,-0.04,-1.23,
6.463,-0.62,-3.58,-5.10,-1.94,-0.12,-0.60,
6.464,-0.62,-3.58,-5.10,-1.94,-0.12,-0.60,
6.465,-1.21,-3.25,-5.04,-1.94,-0.12,-0.60,
6.465,-1.21,-3.25,-5.04,-1.94,-0.12,-0.60,
6.473,-1.21,-3.25,-5.04,-2.23,-0.20,0.07,
6.474,-1.21,-3.25,-5.04,-2.23,-0.20,0.07,
6.475,-1.74,-2.91,-4.73,-2.23,-0.20,0.07,
6.475,-1.74,-2.91,-4.73,-2.23,-0.20,0.07,
6.482,-1.74,-2.91,-4.73,-2.39,-0.26,0.66,
6.483,-1.74,-2.91,-4.73,-2.39,-0.26,0.66,
6.484,-2.19,-2.59,-4.21,-2.39,-0.26,0.66,
6.485,-2.19,-2.59,-4.21,-2.39,-0.26,0.66,
6.492,-2.19,-2.59,-4.21,-2.38,-0.30,1.17,
6.492,-2.19,-2.59,-4.21,-2.38,-0.30,1.17,
6.493,-2.54,-2.31,-2.23,-2.38,-0.30,1.17,
6.494,-2.54,-2.31,-2.23,-2.38,-0.30,1.17,
6.502,-2.54,-2.31,-2.23,-2.20,-0.33,1.59,
6.503,-2.54,-2.31,-2.23,-2.20,-0.33,1.59,
6.504,-2.66,-2.08,-1.65,-2.20,-0.33,1.59,
6.504,-2.66,-2.08,-1.65,-2.20,-0.33,1.59,
6.522,-2.66,-2.08,-1.65,-1.81,-0.35,1.92,
6.522,-2.66,-2.08,-1.65,-1.81,-0.35,1.92,
6.523,-2.49,-1.95,0.56,-1.81,-0.35,1.92,
6.523,-2.49,-1.95,0.56,-1.81,-0.35,1.92,
6.523,-2.49,-1.95,0.56,-1.18,-0.33,2.16,
6.523,-2.49,-1.95,0.56,-1.18,-0.33,2.16,
6.524,-2.10,-1.94,2.53,-1.18,-0.33,2.16,
6.524,-2.10,-1.94,2.53,-1.18,-0.33,2.16,
6.531,-2.10,-1.94,2.53,-1.18,-0.33,2.16,
6.532,-2.10,-1.94,2.53,-1.18,-0.33,2.16,
6.532,-2.10,-1.94,2.53,-1.18,-0.33,2.16,
6.532,-2.10,-1.94,2.53,-1.18,-0.33,2.16,
6.54,-2.10,-1.94,2.53,-0.32,-0.27,2.27,
6.541,-2.10,-1.94,2.53,-0.32,-0.27,2.27,
6.541,-1.05,-2.06,4.74,-0.32,-0.27,2.27,
6.541,-1.05,-2.06,4.74,-0.32,-0.27,2.27,
6.549,-1.05,-2.06,4.74,0.77,-0.11,2.23,
6.55,-1.05,-2.06,4.74,0.77,-0.11,2.23,
6.55,-0.57,-2.08,5.16,0.77,-0.11,2.23,
6.551,-0.57,-2.08,5.16,0.77,-0.11,2.23,
6.558,-0.57,-2.08,5.16,2.02,0.18,1.99,
6.559,-0.57,-2.08,5.16,2.02,0.18,1.99,
6.56,-0.19,-2.07,5.04,2.02,0.18,1.99,
6.56,-0.19,-2.07,5.04,2.02,0.18,1.99,
6.567,-0.19,-2.07,5.04,3.25,0.64,1.53,
6.569,-0.19,-2.07,5.04,3.25,0.64,1.53,
6.569,0.10,-2.06,3.28,3.25,0.64,1.53,
6.57,0.10,-2.06,3.28,3.25,0.64,1.53,
6.578,0.10,-2.06,3.28,4.14,1.20,0.92,
6.58,0.10,-2.06,3.28,4.14,1.20,0.92,
6.58,0.28,-2.04,-0.47,4.14,1.20,0.92,
6.581,0.28,-2.04,-0.47,4.14,1.20,0.92,
6.587,0.28,-2.04,-0.47,4.42,1.71,0.28,
6.588,0.28,-2.04,-0.47,4.42,1.71,0.28,
6.588,0.33,-1.97,-2.24,4.42,1.71,0.28,
6.589,0.33,-1.97,-2.24,4.42,1.71,0.28,
6.597,0.33,-1.97,-2.24,3.94,1.98,-0.23,
6.598,0.33,-1.97,-2.24,3.94,1.98,-0.23,
6.598,0.23,-1.79,-4.17,3.94,1.98,-0.23,
6.599,0.23,-1.79,-4.17,3.94,1.98,-0.23,
6.606,0.23,-1.79,-4.17,2.78,1.91,-0.56,
6.607,0.23,-1.79,-4.17,2.78,1.91,-0.56,
6.608,-0.03,-1.47,-4.37,2.78,1.91,-0.56,
6.608,-0.03,-1.47,-4.37,2.78,1.91,-0.56,
6.617,-0.03,-1.47,-4.37,1.24,1.60,-0.70,
6.619,-0.03,-1.47,-4.37,1.24,1.60,-0.70,
6.62,-0.35,-1.13,-4.06,1.24,1.60,-0.70,
6.62,-0.35,-1.13,-4.06,1.24,1.60,-0.70,
6.625,-0.35,-1.13,-4.06,-0.27,1.20,-0.73,
6.626,-0.35,-1.13,-4.06,-0.27,1.20,-0.73,
6.626,-0.74,-0.84,-2.33,-0.27,1.20,-0.73,
6.626,-0.74,-0.84,-2.33,-0.27,1.20,-0.73,
6.635,-0.74,-0.84,-2.33,-1.44,0.97,-0.67,
6.636,-0.74,-0.84,-2.33,-1.44,0.97,-0.67,
6.636,-1.16,-0.62,-0.65,-1.44,0.97,-0.67,
6.636,-1.16,-0.62,-0.65,-1.44,0.97,-0.67,
6.645,-1.16,-0.62,-0.65,-2.06,0.81,-0.52,
6.646,-1.16,-0.62,-0.65,-2.06,0.81,-0.52,
6.646,-1.52,-0.41,1.18,-2.06,0.81,-0.52,
6.647,-1.52,-0.41,1.18,-2.06,0.81,-0.52,
6.654,-1.52,-0.41,1.18,-2.06,0.61,-0.28,
6.654,-1.52,-0.41,1.18,-2.06,0.61,-0.28,
6.655,-1.79,-0.13,1.34,-2.06,0.61,-0.28,
6.655,-1.79,-0.13,1.34,-2.06,0.61,-0.28,
6.663,-1.79,-0.13,1.34,-1.54,0.55,0.01,
6.665,-1.79,-0.13,1.34,-1.54,0.55,0.01,
6.666,-1.86,0.23,1.53,-1.54,0.55,0.01,
6.667,-1.86,0.23,1.53,-1.54,0.55,0.01,
6.672,-1.86,0.23,1.53,-0.75,0.58,0.32,
6.673,-1.86,0.23,1.53,-0.75,0.58,0.32,
6.674,-1.75,0.62,1.54,-0.75,0.58,0.32,
6.674,-1.75,0.62,1.54,-0.75,0.58,0.32,
6.683,-1.75,0.62,1.54,0.03,0.65,0.59,
6.684,-1.75,0.62,1.54,0.03,0.65,0.59,
6.685,-1.48,0.93,1.38,0.03,0.65,0.59,
6.686,-1.48,0.93,1.38,0.03,0.65,0.59,
6.691,-1.48,0.93,1.38,0.63,0.74,0.79,
6.692,-1.48,0.93,1.38,0.63,0.74,0.79,
6.692,-1.12,1.15,1.25,0.63,0.74,0.79,
6.692,-1.12,1.15,1.25,0.63,0.74,0.79,
6.701,-1.12,1.15,1.25,1.02,0.83,0.88,
6.702,-1.12,1.15,1.25,1.02,0.83,0.88,
6.702,-0.74,1.32,1.14,1.02,0.83,0.88,
6.702,-0.74,1.32,1.14,1.02,0.83,0.88,
6.716,-0.74,1.32,1.14,1.23,0.87,0.80,
6.717,-0.74,1.32,1.14,1.23,0.87,0.80,
6.717,-0.41,1.46,1.01,1.23,0.87,0.80,
6.717,-0.41,1.46,1.01,1.23,0.87,0.80,
6.72,-0.41,1.46,1.01,1.23,0.87,0.80,
6.72,-0.41,1.46,1.01,1.23,0.87,0.80,
6.721,-0.41,1.46,1.01,1.23,0.87,0.80,
6.721,-0.41,1.46,1.01,1.23,0.87,0.80,
6.73,-0.41,1.46,1.01,1.30,0.87,0.61,
6.731,-0.41,1.46,1.01,1.30,0.87,0.61,
6.732,-0.29,1.82,0.81,1.30,0.87,0.61,
6.733,-0.29,1.82,0.81,1.30,0.87,0.61,
6.739,-0.29,1.82,0.81,1.25,0.87,0.42,
6.74,-0.29,1.82,0.81,1.25,0.87,0.42,
6.74,-0.47,2.05,0.84,1.25,0.87,0.42,
6.74,-0.47,2.05,0.84,1.25,0.87,0.42,
6.749,-0.47,2.05,0.84,1.13,0.84,0.21,
6.75,-0.47,2.05,0.84,1.13,0.84,0.21,
6.751,-0.75,2.34,0.98,1.13,0.84,0.21,
6.751,-0.75,2.34,0.98,1.13,0.84,0.21,
6.758,-0.75,2.34,0.98,0.98,0.76,0.07,
6.759,-0.75,2.34,0.98,0.98,0.76,0.07,
6.76,-1.00,2.71,1.16,0.98,0.76,0.07,
6.76,-1.00,2.71,1.16,0.98,0.76,0.07,
6.767,-1.00,2.71,1.16,0.85,0.62,0.04,
6.769,-1.00,2.71,1.16,0.85,0.62,0.04,
6.769,-1.20,3.12,1.37,0.85,0.62,0.04,
6.77,-1.20,3.12,1.37,0.85,0.62,0.04,
6.778,-1.20,3.12,1.37,0.79,0.45,0.14,
6.779,-1.20,3.12,1.37,0.79,0.45,0.14,
6.779,-1.36,3.50,1.45,0.79,0.45,0.14,
6.779,-1.36,3.50,1.45,0.79,0.45,0.14,
6.787,-1.36,3.50,1.45,0.80,0.29,0.34,
6.787,-1.36,3.50,1.45,0.80,0.29,0.34,
6.788,-1.40,3.85,1.44,0.80,0.29,0.34,
6.788,-1.40,3.85,1.44,0.80,0.29,0.34,
6.796,-1.40,3.85,1.44,0.88,0.14,0.61,
6.797,-1.40,3.85,1.44,0.88,0.14,0.61,
6.797,-1.42,4.14,1.35,0.88,0.14,0.61,
6.798,-1.42,4.14,1.35,0.88,0.14,0.61,
6.806,-1.42,4.14,1.35,0.97,-0.03,0.91,
6.807,-1.42,4.14,1.35,0.97,-0.03,0.91,
6.807,-1.39,4.25,1.18,0.97,-0.03,0.91,
6.808,-1.39,4.25,1.18,0.97,-0.03,0.91,
6.817,-1.39,4.25,1.18,1.02,-0.24,1.19,
6.818,-1.39,4.25,1.18,1.02,-0.24,1.19,
6.818,-1.37,4.28,1.01,1.02,-0.24,1.19,
6.819,-1.37,4.28,1.01,1.02,-0.24,1.19,
6.825,-1.37,4.28,1.01,0.99,-0.52,1.45,
6.826,-1.37,4.28,1.01,0.99,-0.52,1.45,
6.826,-1.37,4.18,0.83,0.99,-0.52,1.45,
6.826,-1.37,4.18,0.83,0.99,-0.52,1.45,
6.837,-1.37,4.18,0.83,0.86,-0.86,1.66,
6.838,-1.37,4.18,0.83,0.86,-0.86,1.66,
6.838,-1.35,3.93,0.61,0.86,-0.86,1.66,
6.839,-1.35,3.93,0.61,0.86,-0.86,1.66,
6.845,-1.35,3.93,0.61,0.62,-1.21,1.81,
6.846,-1.35,3.93,0.61,0.62,-1.21,1.81,
6.846,-1.32,3.62,0.39,0.62,-1.21,1.81,
6.846,-1.32,3.62,0.39,0.62,-1.21,1.81,
6.854,-1.32,3.62,0.39,0.52,-1.57,1.64,
6.854,-1.32,3.62,0.39,0.52,-1.57,1.64,
6.855,-1.23,3.17,0.12,0.52,-1.57,1.64,
6.855,-1.23,3.17,0.12,0.52,-1.57,1.64,
6.863,-1.23,3.17,0.12,0.53,-1.90,1.24,
6.864,-1.23,3.17,0.12,0.53,-1.90,1.24,
6.864,-1.13,1.48,-0.23,0.53,-1.90,1.24,
6.865,-1.13,1.48,-0.23,0.53,-1.90,1.24,
6.873,-1.13,1.48,-0.23,0.53,-2.17,0.93,
6.873,-1.13,1.48,-0.23,0.53,-2.17,0.93,
6.874,-0.99,1.05,-0.78,0.53,-2.17,0.93,
6.875,-0.99,1.05,-0.78,0.53,-2.17,0.93,
6.882,-0.99,1.05,-0.78,0.17,-1.90,0.69,
6.883,-0.99,1.05,-0.78,0.17,-1.90,0.69,
6.883,-0.75,-0.79,-2.56,0.17,-1.90,0.69,
6.884,-0.75,-0.79,-2.56,0.17,-1.90,0.69,
6.891,-0.75,-0.79,-2.56,-0.62,-1.53,0.49,
6.892,-0.75,-0.79,-2.56,-0.62,-1.53,0.49,
6.892,-0.26,-2.56,-4.57,-0.62,-1.53,0.49,
6.893,-0.26,-2.56,-4.57,-0.62,-1.53,0.49,
6.901,-0.26,-2.56,-4.57,-1.54,-1.48,0.31,
6.902,-0.26,-2.56,-4.57,-1.54,-1.48,0.31,
6.902,1.54,-4.22,-8.32,-1.54,-1.48,0.31,
6.902,1.54,-4.22,-8.32,-1.54,-1.48,0.31,
6.911,1.54,-4.22,-8.32,-2.69,-1.28,-0.14,
6.911,1.54,-4.22,-8.32,-2.69,-1.28,-0.14,
6.912,3.71,-4.69,-10.78,-2.69,-1.28,-0.14,
6.912,3.71,-4.69,-10.78,-2.69,-1.28,-0.14,
6.92,3.71,-4.69,-10.78,-2.69,-1.28,-0.14,
6.921,3.71,-4.69,-10.78,-2.69,-1.28,-0.14,
6.921,3.71,-4.69,-10.78,-2.69,-1.28,-0.14,
6.922,3.71,-4.69,-10.78,-2.69,-1.28,-0.14,
6.933,3.71,-4.69,-10.78,-4.05,-0.87,-0.98,
6.934,3.71,-4.69,-10.78,-4.05,-0.87,-0.98,
6.935,6.57,-4.86,-11.45,-4.05,-0.87,-0.98,
6.936,6.57,-4.86,-11.45,-4.05,-0.87,-0.98,
6.939,6.57,-4.86,-11.45,-5.35,-0.26,-1.97,
6.94,6.57,-4.86,-11.45,-5.35,-0.26,-1.97,
6.94,6.78,-4.37,-9.25,-5.35,-0.26,-1.97,
6.94,6.78,-4.37,-9.25,-5.35,-0.26,-1.97,
6.949,6.78,-4.37,-9.25,-6.20,0.21,-2.43,
6.95,6.78,-4.37,-9.25,-6.20,0.21,-2.43,
6.95,4.89,-2.81,-6.46,-6.20,0.21,-2.43,
6.95,4.89,-2.81,-6.46,-6.20,0.21,-2.43,
6.959,4.89,-2.81,-6.46,-6.36,0.62,-2.73,
6.96,4.89,-2.81,-6.46,-6.36,0.62,-2.73,
6.96,2.80,-1.11,-4.79,-6.36,0.62,-2.73,
6.96,2.80,-1.11,-4.79,-6.36,0.62,-2.73,
6.967,2.80,-1.11,-4.79,-5.86,1.07,-3.15,
6.968,2.80,-1.11,-4.79,-5.86,1.07,-3.15,
6.969,1.18,-0.64,-2.69,-5.86,1.07,-3.15,
6.969,1.18,-0.64,-2.69,-5.86,1.07,-3.15,
6.977,1.18,-0.64,-2.69,-4.90,1.19,-3.04,
6.978,1.18,-0.64,-2.69,-4.90,1.19,-3.04,
6.978,0.80,0.96,-1.03,-4.90,1.19,-3.04,
6.979,0.80,0.96,-1.03,-4.90,1.19,-3.04,
6.987,0.80,0.96,-1.03,-3.68,1.05,-2.51,
6.988,0.80,0.96,-1.03,-3.68,1.05,-2.51,
6.988,-0.88,1.18,-0.88,-3.68,1.05,-2.51,
6.988,-0.88,1.18,-0.88,-3.68,1.05,-2.51,
6.996,-0.88,1.18,-0.88,-2.37,0.78,-1.73,
6.997,-0.88,1.18,-0.88,-2.37,0.78,-1.73,
6.999,-1.22,1.04,-0.67,-2.37,0.78,-1.73,
6.999,-1.22,1.04,-0.67,-2.37,0.78,-1.73,
7.006,-1.22,1.04,-0.67,-1.07,0.42,-0.81,
7.007,-1.22,1.04,-0.67,-1.07,0.42,-0.81,
7.007,-3.03,-0.65,-0.47,-1.07,0.42,-0.81,
7.008,-3.03,-0.65,-0.47,-1.07,0.42,-0.81,
7.017,-3.03,-0.65,-0.47,0.11,-0.00,0.18,
7.02,-3.03,-0.65,-0.47,0.11,-0.00,0.18,
7.021,-3.23,-1.15,-0.33,0.11,-0.00,0.18,
7.022,-3.23,-1.15,-0.33,0.11,-0.00,0.18,
7.025,-3.23,-1.15,-0.33,1.08,-0.50,1.22,
7.025,-3.23,-1.15,-0.33,1.08,-0.50,1.22,
7.026,-3.36,-2.76,-0.24,1.08,-0.50,1.22,
7.026,-3.36,-2.76,-0.24,1.08,-0.50,1.22,
7.035,-3.36,-2.76,-0.24,1.50,-0.61,2.19,
7.036,-3.36,-2.76,-0.24,1.50,-0.61,2.19,
7.036,-3.13,-3.06,-0.21,1.50,-0.61,2.19,
7.036,-3.13,-3.06,-0.21,1.50,-0.61,2.19,
7.044,-3.13,-3.06,-0.21,1.55,-0.26,2.90,
7.045,-3.13,-3.06,-0.21,1.55,-0.26,2.90,
7.046,-2.57,-3.17,-0.16,1.55,-0.26,2.90,
7.047,-2.57,-3.17,-0.16,1.55,-0.26,2.90,
7.054,-2.57,-3.17,-0.16,1.72,-0.18,3.24,
7.055,-2.57,-3.17,-0.16,1.72,-0.18,3.24,
7.055,-1.94,-2.97,0.11,1.72,-0.18,3.24,
7.055,-1.94,-2.97,0.11,1.72,-0.18,3.24,
7.063,-1.94,-2.97,0.11,1.93,-0.26,2.85,
7.066,-1.94,-2.97,0.11,1.93,-0.26,2.85,
7.066,-1.42,-1.39,0.26,1.93,-0.26,2.85,
7.067,-1.42,-1.39,0.26,1.93,-0.26,2.85,
7.072,-1.42,-1.39,0.26,2.10,-0.14,2.29,
7.073,-1.42,-1.39,0.26,2.10,-0.14,2.29,
7.073,0.40,-1.03,-1.55,2.10,-0.14,2.29,
7.073,0.40,-1.03,-1.55,2.10,-0.14,2.29,
7.082,0.40,-1.03,-1.55,2.16,0.10,1.97,
7.084,0.40,-1.03,-1.55,2.16,0.10,1.97,
7.084,0.79,-0.52,-1.95,2.16,0.10,1.97,
7.085,0.79,-0.52,-1.95,2.16,0.10,1.97,
7.091,0.79,-0.52,-1.95,2.03,0.39,1.49,
7.092,0.79,-0.52,-1.95,2.03,0.39,1.49,
7.093,2.53,-0.00,-2.49,2.03,0.39,1.49,
7.093,2.53,-0.00,-2.49,2.03,0.39,1.49,
7.101,2.53,-0.00,-2.49,1.69,0.67,0.88,
7.102,2.53,-0.00,-2.49,1.69,0.67,0.88,
7.102,2.80,0.47,-2.57,1.69,0.67,0.88,
7.103,2.80,0.47,-2.57,1.69,0.67,0.88,
