
time,ax,ay,az,wx,wy,wz,
0.002,-0.06,0.11,0.51,-0.17,0.45,-0.38,
0.002,-0.06,0.11,0.51,-0.17,0.45,-0.38,
0.002,0.01,0.15,0.42,-0.17,0.45,-0.38,
0.003,0.01,0.15,0.42,-0.17,0.45,-0.38,
0.012,0.01,0.15,0.42,-0.13,0.34,-0.22,
0.013,0.01,0.15,0.42,-0.13,0.34,-0.22,
0.013,-0.05,0.13,0.31,-0.13,0.34,-0.22,
0.013,-0.05,0.13,0.31,-0.13,0.34,-0.22,
0.017,-0.05,0.13,0.31,-0.09,0.21,-0.04,
0.017,-0.05,0.13,0.31,-0.09,0.21,-0.04,
0.018,-0.17,0.10,0.27,-0.09,0.21,-0.04,
0.018,-0.17,0.10,0.27,-0.09,0.21,-0.04,
0.027,-0.17,0.10,0.27,-0.04,0.11,0.09,
0.028,-0.17,0.10,0.27,-0.04,0.11,0.09,
0.028,-0.23,0.08,0.30,-0.04,0.11,0.09,
0.029,-0.23,0.08,0.30,-0.04,0.11,0.09,
0.044,-0.23,0.08,0.30,-0.00,0.04,0.16,
0.045,-0.23,0.08,0.30,-0.00,0.04,0.16,
0.046,-0.24,0.06,0.36,-0.00,0.04,0.16,
0.046,-0.24,0.06,0.36,-0.00,0.04,0.16,
0.047,-0.24,0.06,0.36,0.02,0.00,0.17,
0.047,-0.24,0.06,0.36,0.02,0.00,0.17,
0.048,-0.22,0.06,0.40,0.02,0.00,0.17,
0.049,-0.22,0.06,0.40,0.02,0.00,0.17,
0.055,-0.22,0.06,0.40,0.03,-0.02,0.14,
0.056,-0.22,0.06,0.40,0.03,-0.02,0.14,
0.057,-0.15,0.06,0.36,0.03,-0.02,0.14,
0.057,-0.15,0.06,0.36,0.03,-0.02,0.14,
0.065,-0.15,0.06,0.36,0.03,-0.02,0.11,
0.065,-0.15,0.06,0.36,0.03,-0.02,0.11,
0.066,-0.09,0.08,0.22,0.03,-0.02,0.11,
0.066,-0.09,0.08,0.22,0.03,-0.02,0.11,
0.074,-0.09,0.08,0.22,0.03,-0.03,0.10,
0.075,-0.09,0.08,0.22,0.03,-0.03,0.10,
0.075,-0.05,0.09,-0.01,0.03,-0.03,0.10,
0.076,-0.05,0.09,-0.01,0.03,-0.03,0.10,
0.083,-0.05,0.09,-0.01,0.02,-0.04,0.10,
0.084,-0.05,0.09,-0.01,0.02,-0.04,0.10,
0.085,-0.00,0.12,-0.32,0.02,-0.04,0.10,
0.085,-0.00,0.12,-0.32,0.02,-0.04,0.10,
0.093,-0.00,0.12,-0.32,0.04,-0.06,0.13,
0.094,-0.00,0.12,-0.32,0.04,-0.06,0.13,
0.094,-0.01,0.15,-0.64,0.04,-0.06,0.13,
0.095,-0.01,0.15,-0.64,0.04,-0.06,0.13,
0.103,-0.01,0.15,-0.64,0.07,-0.07,0.17,
0.104,-0.01,0.15,-0.64,0.07,-0.07,0.17,
0.104,-0.06,0.15,-0.86,0.07,-0.07,0.17,
0.105,-0.06,0.15,-0.86,0.07,-0.07,0.17,
0.112,-0.06,0.15,-0.86,0.13,-0.06,0.21,
0.113,-0.06,0.15,-0.86,0.13,-0.06,0.21,
0.113,-0.13,0.11,-0.93,0.13,-0.06,0.21,
0.113,-0.13,0.11,-0.93,0.13,-0.06,0.21,
0.121,-0.13,0.11,-0.93,0.20,-0.04,0.24,
0.122,-0.13,0.11,-0.93,0.20,-0.04,0.24,
0.123,-0.23,-0.02,-0.75,0.20,-0.04,0.24,
0.123,-0.23,-0.02,-0.75,0.20,-0.04,0.24,
0.131,-0.23,-0.02,-0.75,0.26,-0.00,0.24,
0.132,-0.23,-0.02,-0.75,0.26,-0.00,0.24,
0.132,-0.32,-0.12,-0.32,0.26,-0.00,0.24,
0.133,-0.32,-0.12,-0.32,0.26,-0.00,0.24,
0.145,-0.32,-0.12,-0.32,0.28,0.04,0.20,
0.146,-0.32,-0.12,-0.32,0.28,0.04,0.20,
0.146,-0.36,-0.12,0.17,0.28,0.04,0.20,
0.147,-0.36,-0.12,0.17,0.28,0.04,0.20,
0.15,-0.36,-0.12,0.17,0.24,0.08,0.12,
0.151,-0.36,-0.12,0.17,0.24,0.08,0.12,
0.152,-0.32,-0.09,0.61,0.24,0.08,0.12,
0.153,-0.32,-0.09,0.61,0.24,0.08,0.12,
0.16,-0.32,-0.09,0.61,0.24,0.08,0.12,
0.161,-0.32,-0.09,0.61,0.24,0.08,0.12,
0.162,-0.32,-0.09,0.61,0.24,0.08,0.12,
0.162,-0.32,-0.09,0.61,0.24,0.08,0.12,
0.169,-0.32,-0.09,0.61,0.15,0.09,0.02,
0.17,-0.32,-0.09,0.61,0.15,0.09,0.02,
0.171,0.03,0.01,0.96,0.15,0.09,0.02,
0.171,0.03,0.01,0.96,0.15,0.09,0.02,
0.178,0.03,0.01,0.96,0.02,0.07,-0.07,
0.179,0.03,0.01,0.96,0.02,0.07,-0.07,
0.18,0.27,-0.05,0.97,0.02,0.07,-0.07,
0.18,0.27,-0.05,0.97,0.02,0.07,-0.07,
0.188,0.27,-0.05,0.97,-0.11,0.01,-0.10,
0.189,0.27,-0.05,0.97,-0.11,0.01,-0.10,
0.19,0.55,-0.11,0.91,-0.11,0.01,-0.10,
0.19,0.55,-0.11,0.91,-0.11,0.01,-0.10,
0.2,0.55,-0.11,0.91,-0.22,-0.09,-0.06,
0.201,0.55,-0.11,0.91,-0.22,-0.09,-0.06,
0.201,0.87,-0.12,0.75,-0.22,-0.09,-0.06,
0.202,0.87,-0.12,0.75,-0.22,-0.09,-0.06,
0.208,0.87,-0.12,0.75,-0.29,-0.23,0.04,
0.208,0.87,-0.12,0.75,-0.29,-0.23,0.04,
0.209,1.19,-0.04,0.46,-0.29,-0.23,0.04,
0.209,1.19,-0.04,0.46,-0.29,-0.23,0.04,
0.217,1.19,-0.04,0.46,-0.34,-0.39,0.18,
0.217,1.19,-0.04,0.46,-0.34,-0.39,0.18,
0.218,1.50,0.10,-0.00,-0.34,-0.39,0.18,
0.218,1.50,0.10,-0.00,-0.34,-0.39,0.18,
0.226,1.50,0.10,-0.00,-0.33,-0.56,0.34,
0.226,1.50,0.10,-0.00,-0.33,-0.56,0.34,
0.227,1.72,0.22,-0.56,-0.33,-0.56,0.34,
0.227,1.72,0.22,-0.56,-0.33,-0.56,0.34,
0.244,1.72,0.22,-0.56,-0.26,-0.72,0.53,
0.245,1.72,0.22,-0.56,-0.26,-0.72,0.53,
0.245,1.86,0.26,-1.13,-0.26,-0.72,0.53,
0.246,1.86,0.26,-1.13,-0.26,-0.72,0.53,
0.247,1.86,0.26,-1.13,-0.13,-0.87,0.70,
0.247,1.86,0.26,-1.13,-0.13,-0.87,0.70,
0.248,1.87,0.17,-1.74,-0.13,-0.87,0.70,
0.248,1.87,0.17,-1.74,-0.13,-0.87,0.70,
0.255,1.87,0.17,-1.74,0.06,-1.00,0.83,
0.256,1.87,0.17,-1.74,0.06,-1.00,0.83,
0.257,1.86,-0.03,-2.39,0.06,-1.00,0.83,
0.258,1.86,-0.03,-2.39,0.06,-1.00,0.83,
0.264,1.86,-0.03,-2.39,0.26,-1.09,0.91,
0.265,1.86,-0.03,-2.39,0.26,-1.09,0.91,
0.265,1.86,-0.26,-3.04,0.26,-1.09,0.91,
0.266,1.86,-0.26,-3.04,0.26,-1.09,0.91,
0.274,1.86,-0.26,-3.04,0.45,-1.14,0.94,
0.275,1.86,-0.26,-3.04,0.45,-1.14,0.94,
0.275,1.84,-0.50,-3.57,0.45,-1.14,0.94,
0.276,1.84,-0.50,-3.57,0.45,-1.14,0.94,
0.283,1.84,-0.50,-3.57,0.61,-1.16,0.92,
0.284,1.84,-0.50,-3.57,0.61,-1.16,0.92,
0.284,1.77,-0.77,-3.88,0.61,-1.16,0.92,
0.285,1.77,-0.77,-3.88,0.61,-1.16,0.92,
0.293,1.77,-0.77,-3.88,0.71,-1.16,0.83,
0.294,1.77,-0.77,-3.88,0.71,-1.16,0.83,
0.295,1.61,-1.05,-3.91,0.71,-1.16,0.83,
0.295,1.61,-1.05,-3.91,0.71,-1.16,0.83,
0.302,1.61,-1.05,-3.91,0.75,-1.15,0.70,
0.303,1.61,-1.05,-3.91,0.75,-1.15,0.70,
0.303,1.34,-1.34,-3.70,0.75,-1.15,0.70,
0.304,1.34,-1.34,-3.70,0.75,-1.15,0.70,
0.312,1.34,-1.34,-3.70,0.69,-1.12,0.50,
0.312,1.34,-1.34,-3.70,0.69,-1.12,0.50,
0.313,1.04,-1.51,-3.36,0.69,-1.12,0.50,
0.313,1.04,-1.51,-3.36,0.69,-1.12,0.50,
0.321,1.04,-1.51,-3.36,0.52,-1.03,0.23,
0.322,1.04,-1.51,-3.36,0.52,-1.03,0.23,
0.323,0.93,-1.52,-3.05,0.52,-1.03,0.23,
0.323,0.93,-1.52,-3.05,0.52,-1.03,0.23,
0.331,0.93,-1.52,-3.05,0.49,-0.89,-0.11,
0.332,0.93,-1.52,-3.05,0.49,-0.89,-0.11,
0.332,1.20,-1.32,-2.91,0.49,-0.89,-0.11,
0.332,1.20,-1.32,-2.91,0.49,-0.89,-0.11,
0.341,1.20,-1.32,-2.91,0.37,-0.72,-0.48,
0.343,1.20,-1.32,-2.91,0.37,-0.72,-0.48,
0.344,3.15,-0.95,-2.94,0.37,-0.72,-0.48,
0.345,3.15,-0.95,-2.94,0.37,-0.72,-0.48,
0.35,3.15,-0.95,-2.94,0.04,-0.64,-0.70,
0.351,3.15,-0.95,-2.94,0.04,-0.64,-0.70,
0.352,4.65,-0.58,-3.08,0.04,-0.64,-0.70,
0.352,4.65,-0.58,-3.08,0.04,-0.64,-0.70,
0.36,4.65,-0.58,-3.08,0.04,-0.64,-0.70,
0.361,4.65,-0.58,-3.08,0.04,-0.64,-0.70,
0.361,4.65,-0.58,-3.08,0.04,-0.64,-0.70,
0.362,4.65,-0.58,-3.08,0.04,-0.64,-0.70,
0.369,4.65,-0.58,-3.08,-0.11,-0.82,-0.53,
0.37,4.65,-0.58,-3.08,-0.11,-0.82,-0.53,
0.37,6.78,-0.39,-2.94,-0.11,-0.82,-0.53,
0.371,6.78,-0.39,-2.94,-0.11,-0.82,-0.53,
0.378,6.78,-0.39,-2.94,-0.05,-1.42,0.18,
0.379,6.78,-0.39,-2.94,-0.05,-1.42,0.18,
0.38,6.86,-0.71,-0.89,-0.05,-1.42,0.18,
0.38,6.86,-0.71,-0.89,-0.05,-1.42,0.18,
0.388,6.86,-0.71,-0.89,0.15,-2.34,1.31,
0.389,6.86,-0.71,-0.89,0.15,-2.34,1.31,
0.39,6.73,-1.18,-0.41,0.15,-2.34,1.31,
0.391,6.73,-1.18,-0.41,0.15,-2.34,1.31,
0.398,6.73,-1.18,-0.41,0.29,-3.26,2.39,
0.398,6.73,-1.18,-0.41,0.29,-3.26,2.39,
0.399,6.42,-1.74,1.20,0.29,-3.26,2.39,
0.399,6.42,-1.74,1.20,0.29,-3.26,2.39,
0.407,6.42,-1.74,1.20,0.16,-3.83,2.96,
0.409,6.42,-1.74,1.20,0.16,-3.83,2.96,
0.409,6.08,-2.31,1.46,0.16,-3.83,2.96,
0.41,6.08,-2.31,1.46,0.16,-3.83,2.96,
0.417,6.08,-2.31,1.46,-0.33,-3.93,2.89,
0.417,6.08,-2.31,1.46,-0.33,-3.93,2.89,
0.418,5.78,-2.79,1.39,-0.33,-3.93,2.89,
0.418,5.78,-2.79,1.39,-0.33,-3.93,2.89,
0.426,5.78,-2.79,1.39,-1.05,-3.68,2.37,
0.427,5.78,-2.79,1.39,-1.05,-3.68,2.37,
0.427,5.71,-3.24,1.00,-1.05,-3.68,2.37,
0.427,5.71,-3.24,1.00,-1.05,-3.68,2.37,
0.439,5.71,-3.24,1.00,-1.80,-3.27,1.66,
0.44,5.71,-3.24,1.00,-1.80,-3.27,1.66,
0.44,5.72,-3.61,0.62,-1.80,-3.27,1.66,
0.441,5.72,-3.61,0.62,-1.80,-3.27,1.66,
0.445,5.72,-3.61,0.62,-2.44,-2.82,0.97,
0.446,5.72,-3.61,0.62,-2.44,-2.82,0.97,
0.446,5.71,-3.87,0.50,-2.44,-2.82,0.97,
0.447,5.71,-3.87,0.50,-2.44,-2.82,0.97,
0.467,5.71,-3.87,0.50,-2.92,-2.44,0.41,
0.469,5.71,-3.87,0.50,-2.92,-2.44,0.41,
0.469,5.80,-4.00,0.57,-2.92,-2.44,0.41,
0.47,5.80,-4.00,0.57,-2.92,-2.44,0.41,
0.471,5.80,-4.00,0.57,-3.25,-2.14,-0.02,
0.471,5.80,-4.00,0.57,-3.25,-2.14,-0.02,
0.472,6.05,-3.88,0.68,-3.25,-2.14,-0.02,
0.472,6.05,-3.88,0.68,-3.25,-2.14,-0.02,
0.478,6.05,-3.88,0.68,-3.43,-1.90,-0.32,
0.479,6.05,-3.88,0.68,-3.43,-1.90,-0.32,
0.48,6.48,-3.53,0.68,-3.43,-1.90,-0.32,
0.48,6.48,-3.53,0.68,-3.43,-1.90,-0.32,
0.483,6.48,-3.53,0.68,-3.44,-1.71,-0.48,
0.484,6.48,-3.53,0.68,-3.44,-1.71,-0.48,
0.485,6.99,-3.03,0.46,-3.44,-1.71,-0.48,
0.485,6.99,-3.03,0.46,-3.44,-1.71,-0.48,
0.493,6.99,-3.03,0.46,-3.24,-1.61,-0.49,
0.494,6.99,-3.03,0.46,-3.24,-1.61,-0.49,
0.494,7.37,-2.56,-0.03,-3.24,-1.61,-0.49,
0.495,7.37,-2.56,-0.03,-3.24,-1.61,-0.49,
0.502,7.37,-2.56,-0.03,-2.84,-1.61,-0.37,
0.503,7.37,-2.56,-0.03,-2.84,-1.61,-0.37,
0.504,7.45,-2.25,-1.60,-2.84,-1.61,-0.37,
0.504,7.45,-2.25,-1.60,-2.84,-1.61,-0.37,
0.512,7.45,-2.25,-1.60,-2.25,-1.74,-0.15,
0.512,7.45,-2.25,-1.60,-2.25,-1.74,-0.15,
0.513,7.23,-2.14,-3.34,-2.25,-1.74,-0.15,
0.513,7.23,-2.14,-3.34,-2.25,-1.74,-0.15,
0.521,7.23,-2.14,-3.34,-1.54,-2.00,0.06,
0.522,7.23,-2.14,-3.34,-1.54,-2.00,0.06,
0.522,6.69,-2.21,-3.74,-1.54,-2.00,0.06,
0.523,6.69,-2.21,-3.74,-1.54,-2.00,0.06,
0.531,6.69,-2.21,-3.74,-0.90,-2.35,0.12,
0.532,6.69,-2.21,-3.74,-0.90,-2.35,0.12,
0.533,5.86,-2.37,-4.28,-0.90,-2.35,0.12,
0.533,5.86,-2.37,-4.28,-0.90,-2.35,0.12,
0.542,5.86,-2.37,-4.28,-0.30,-2.72,0.33,
0.544,5.86,-2.37,-4.28,-0.30,-2.72,0.33,
0.544,4.10,-2.59,-4.77,-0.30,-2.72,0.33,
0.545,4.10,-2.59,-4.77,-0.30,-2.72,0.33,
0.55,4.10,-2.59,-4.77,-0.30,-2.72,0.33,
0.55,4.10,-2.59,-4.77,-0.30,-2.72,0.33,
0.551,4.10,-2.59,-4.77,-0.30,-2.72,0.33,
0.551,4.10,-2.59,-4.77,-0.30,-2.72,0.33,
0.561,4.10,-2.59,-4.77,0.57,-3.01,0.85,
0.562,4.10,-2.59,-4.77,0.57,-3.01,0.85,
0.562,2.69,-3.32,-5.13,0.57,-3.01,0.85,
0.563,2.69,-3.32,-5.13,0.57,-3.01,0.85,
0.573,2.69,-3.32,-5.13,0.56,-2.83,0.88,
0.574,2.69,-3.32,-5.13,0.56,-2.83,0.88,
0.574,1.99,-3.87,-5.23,0.56,-2.83,0.88,
0.574,1.99,-3.87,-5.23,0.56,-2.83,0.88,
0.578,1.99,-3.87,-5.23,0.56,-2.83,0.88,
0.579,1.99,-3.87,-5.23,0.56,-2.83,0.88,
0.579,1.99,-3.87,-5.23,0.56,-2.83,0.88,
0.579,1.99,-3.87,-5.23,0.56,-2.83,0.88,
0.588,1.99,-3.87,-5.23,0.28,-2.50,0.82,
0.588,1.99,-3.87,-5.23,0.28,-2.50,0.82,
0.589,1.13,-5.63,-5.49,0.28,-2.50,0.82,
0.589,1.13,-5.63,-5.49,0.28,-2.50,0.82,
0.597,1.13,-5.63,-5.49,-0.25,-2.11,0.76,
0.598,1.13,-5.63,-5.49,-0.25,-2.11,0.76,
0.599,0.76,-5.98,-5.49,-0.25,-2.11,0.76,
0.599,0.76,-5.98,-5.49,-0.25,-2.11,0.76,
0.607,0.76,-5.98,-5.49,-1.13,-1.69,0.73,
0.608,0.76,-5.98,-5.49,-1.13,-1.69,0.73,
0.609,0.61,-6.23,-5.26,-1.13,-1.69,0.73,
0.61,0.61,-6.23,-5.26,-1.13,-1.69,0.73,
0.617,0.61,-6.23,-5.26,-2.38,-1.44,0.65,
0.617,0.61,-6.23,-5.26,-2.38,-1.44,0.65,
0.618,0.75,-6.34,-4.74,-2.38,-1.44,0.65,
0.618,0.75,-6.34,-4.74,-2.38,-1.44,0.65,
0.627,0.75,-6.34,-4.74,-3.86,-1.08,0.50,
0.628,0.75,-6.34,-4.74,-3.86,-1.08,0.50,
0.629,2.22,-6.26,-3.02,-3.86,-1.08,0.50,
0.629,2.22,-6.26,-3.02,-3.86,-1.08,0.50,
0.639,2.22,-6.26,-3.02,-5.16,-0.43,0.32,
0.64,2.22,-6.26,-3.02,-5.16,-0.43,0.32,
0.641,2.37,-6.12,-2.77,-5.16,-0.43,0.32,
0.641,2.37,-6.12,-2.77,-5.16,-0.43,0.32,
0.645,2.37,-6.12,-2.77,-5.89,0.12,0.11,
0.646,2.37,-6.12,-2.77,-5.89,0.12,0.11,
0.646,2.77,-5.96,-2.39,-5.89,0.12,0.11,
0.646,2.77,-5.96,-2.39,-5.89,0.12,0.11,
0.656,2.77,-5.96,-2.39,-5.90,0.39,-0.01,
0.657,2.77,-5.96,-2.39,-5.90,0.39,-0.01,
0.658,3.18,-5.82,-2.01,-5.90,0.39,-0.01,
0.658,3.18,-5.82,-2.01,-5.90,0.39,-0.01,
0.664,3.18,-5.82,-2.01,-5.33,0.37,-0.03,
0.665,3.18,-5.82,-2.01,-5.33,0.37,-0.03,
0.665,3.46,-5.76,-1.55,-5.33,0.37,-0.03,
0.666,3.46,-5.76,-1.55,-5.33,0.37,-0.03,
0.674,3.46,-5.76,-1.55,-4.49,0.16,0.04,
0.675,3.46,-5.76,-1.55,-4.49,0.16,0.04,
0.675,3.58,-5.78,-0.99,-4.49,0.16,0.04,
0.676,3.58,-5.78,-0.99,-4.49,0.16,0.04,
0.683,3.58,-5.78,-0.99,-3.58,-0.12,0.14,
0.684,3.58,-5.78,-0.99,-3.58,-0.12,0.14,
0.684,3.61,-5.93,0.85,-3.58,-0.12,0.14,
0.685,3.61,-5.93,0.85,-3.58,-0.12,0.14,
0.692,3.61,-5.93,0.85,-2.73,-0.33,0.23,
0.693,3.61,-5.93,0.85,-2.73,-0.33,0.23,
0.694,3.68,-6.08,1.32,-2.73,-0.33,0.23,
0.695,3.68,-6.08,1.32,-2.73,-0.33,0.23,
0.702,3.68,-6.08,1.32,-2.01,-0.36,0.30,
0.703,3.68,-6.08,1.32,-2.01,-0.36,0.30,
0.703,3.94,-6.18,2.89,-2.01,-0.36,0.30,
0.704,3.94,-6.18,2.89,-2.01,-0.36,0.30,
0.712,3.94,-6.18,2.89,-1.40,-0.22,0.35,
0.712,3.94,-6.18,2.89,-1.40,-0.22,0.35,
0.713,5.57,-6.17,4.82,-1.40,-0.22,0.35,
0.713,5.57,-6.17,4.82,-1.40,-0.22,0.35,
0.721,5.57,-6.17,4.82,-0.87,-0.02,0.42,
0.722,5.57,-6.17,4.82,-0.87,-0.02,0.42,
0.722,5.74,-5.97,5.33,-0.87,-0.02,0.42,
0.723,5.74,-5.97,5.33,-0.87,-0.02,0.42,
0.731,5.74,-5.97,5.33,-0.33,0.12,0.52,
0.731,5.74,-5.97,5.33,-0.33,0.12,0.52,
0.732,6.16,-5.66,6.00,-0.33,0.12,0.52,
0.733,6.16,-5.66,6.00,-0.33,0.12,0.52,
0.741,6.16,-5.66,6.00,0.19,0.15,0.64,
0.742,6.16,-5.66,6.00,0.19,0.15,0.64,
0.743,6.61,-5.17,6.45,0.19,0.15,0.64,
0.743,6.61,-5.17,6.45,0.19,0.15,0.64,
0.75,6.61,-5.17,6.45,0.19,0.15,0.64,
0.75,6.61,-5.17,6.45,0.19,0.15,0.64,
0.751,6.61,-5.17,6.45,0.19,0.15,0.64,
0.751,6.61,-5.17,6.45,0.19,0.15,0.64,
0.76,6.61,-5.17,6.45,0.68,0.08,0.75,
0.761,6.61,-5.17,6.45,0.68,0.08,0.75,
0.761,8.33,-2.67,4.59,0.68,0.08,0.75,
0.761,8.33,-2.67,4.59,0.68,0.08,0.75,
0.769,8.33,-2.67,4.59,1.13,-0.13,0.86,
0.77,8.33,-2.67,4.59,1.13,-0.13,0.86,
0.771,10.00,-2.04,2.99,1.13,-0.13,0.86,
0.771,10.00,-2.04,2.99,1.13,-0.13,0.86,
0.778,10.00,-2.04,2.99,1.63,-0.55,0.94,
0.779,10.00,-2.04,2.99,1.63,-0.55,0.94,
0.779,10.13,-1.26,1.40,1.63,-0.55,0.94,
0.78,10.13,-1.26,1.40,1.63,-0.55,0.94,
0.788,10.13,-1.26,1.40,2.08,-1.23,0.99,
0.789,10.13,-1.26,1.40,2.08,-1.23,0.99,
0.79,10.35,-0.53,-0.35,2.08,-1.23,0.99,
0.79,10.35,-0.53,-0.35,2.08,-1.23,0.99,
0.797,10.35,-0.53,-0.35,2.49,-2.06,1.00,
0.798,10.35,-0.53,-0.35,2.49,-2.06,1.00,
0.799,10.46,0.04,-2.21,2.49,-2.06,1.00,
0.799,10.46,0.04,-2.21,2.49,-2.06,1.00,
0.807,10.46,0.04,-2.21,2.83,-2.93,0.98,
0.808,10.46,0.04,-2.21,2.83,-2.93,0.98,
0.809,10.43,0.50,-3.88,2.83,-2.93,0.98,
0.81,10.43,0.50,-3.88,2.83,-2.93,0.98,
0.816,10.43,0.50,-3.88,3.14,-3.73,0.95,
0.817,10.43,0.50,-3.88,3.14,-3.73,0.95,
0.818,10.29,0.94,-4.32,3.14,-3.73,0.95,
0.819,10.29,0.94,-4.32,3.14,-3.73,0.95,
0.826,10.29,0.94,-4.32,3.49,-4.45,0.88,
0.827,10.29,0.94,-4.32,3.49,-4.45,0.88,
0.828,10.14,1.34,-5.88,3.49,-4.45,0.88,
0.829,10.14,1.34,-5.88,3.49,-4.45,0.88,
0.835,10.14,1.34,-5.88,3.74,-5.05,0.77,
0.836,10.14,1.34,-5.88,3.74,-5.05,0.77,
0.837,9.94,1.63,-6.06,3.74,-5.05,0.77,
0.838,9.94,1.63,-6.06,3.74,-5.05,0.77,
0.846,9.94,1.63,-6.06,3.88,-5.50,0.63,
0.847,9.94,1.63,-6.06,3.88,-5.50,0.63,
0.848,9.58,1.71,-6.08,3.88,-5.50,0.63,
0.848,9.58,1.71,-6.08,3.88,-5.50,0.63,
0.854,9.58,1.71,-6.08,3.94,-5.77,0.48,
0.855,9.58,1.71,-6.08,3.94,-5.77,0.48,
0.855,8.96,1.60,-5.87,3.94,-5.77,0.48,
0.856,8.96,1.60,-5.87,3.94,-5.77,0.48,
0.864,8.96,1.60,-5.87,3.92,-5.85,0.33,
0.865,8.96,1.60,-5.87,3.92,-5.85,0.33,
0.865,7.42,1.35,-5.48,3.92,-5.85,0.33,
0.865,7.42,1.35,-5.48,3.92,-5.85,0.33,
0.873,7.42,1.35,-5.48,3.78,-5.70,0.21,
0.875,7.42,1.35,-5.48,3.78,-5.70,0.21,
0.875,6.96,1.00,-5.06,3.78,-5.70,0.21,
0.876,6.96,1.00,-5.06,3.78,-5.70,0.21,
0.883,6.96,1.00,-5.06,3.57,-5.35,0.16,
0.883,6.96,1.00,-5.06,3.57,-5.35,0.16,
0.884,6.48,0.67,-4.76,3.57,-5.35,0.16,
0.884,6.48,0.67,-4.76,3.57,-5.35,0.16,
0.893,6.48,0.67,-4.76,3.32,-4.86,0.20,
0.894,6.48,0.67,-4.76,3.32,-4.86,0.20,
0.894,6.16,0.31,-4.69,3.32,-4.86,0.20,
0.895,6.16,0.31,-4.69,3.32,-4.86,0.20,
0.902,6.16,0.31,-4.69,3.08,-4.30,0.32,
0.903,6.16,0.31,-4.69,3.08,-4.30,0.32,
0.903,5.86,-0.07,-4.89,3.08,-4.30,0.32,
0.904,5.86,-0.07,-4.89,3.08,-4.30,0.32,
0.911,5.86,-0.07,-4.89,2.86,-3.75,0.51,
0.913,5.86,-0.07,-4.89,2.86,-3.75,0.51,
0.913,5.55,-0.48,-5.29,2.86,-3.75,0.51,
0.914,5.55,-0.48,-5.29,2.86,-3.75,0.51,
0.922,5.55,-0.48,-5.29,2.69,-3.27,0.75,
0.923,5.55,-0.48,-5.29,2.69,-3.27,0.75,
0.923,5.18,-0.91,-6.99,2.69,-3.27,0.75,
0.924,5.18,-0.91,-6.99,2.69,-3.27,0.75,
0.931,5.18,-0.91,-6.99,2.56,-2.95,1.01,
0.932,5.18,-0.91,-6.99,2.56,-2.95,1.01,
0.932,4.73,-1.16,-7.35,2.56,-2.95,1.01,
0.933,4.73,-1.16,-7.35,2.56,-2.95,1.01,
0.94,4.73,-1.16,-7.35,2.47,-2.84,1.15,
0.941,4.73,-1.16,-7.35,2.47,-2.84,1.15,
0.942,2.93,-1.24,-8.83,2.47,-2.84,1.15,
0.942,2.93,-1.24,-8.83,2.47,-2.84,1.15,
0.95,2.93,-1.24,-8.83,2.47,-2.84,1.15,
0.951,2.93,-1.24,-8.83,2.47,-2.84,1.15,
0.951,2.93,-1.24,-8.83,2.47,-2.84,1.15,
0.952,2.93,-1.24,-8.83,2.47,-2.84,1.15,
0.959,2.93,-1.24,-8.83,2.45,-2.96,1.19,
0.96,2.93,-1.24,-8.83,2.45,-2.96,1.19,
0.961,0.87,-1.22,-9.29,2.45,-2.96,1.19,
0.961,0.87,-1.22,-9.29,2.45,-2.96,1.19,
0.97,0.87,-1.22,-9.29,2.50,-3.28,1.37,
0.97,0.87,-1.22,-9.29,2.50,-3.28,1.37,
0.971,0.19,-1.33,-8.79,2.50,-3.28,1.37,
0.971,0.19,-1.33,-8.79,2.50,-3.28,1.37,
0.978,0.19,-1.33,-8.79,2.58,-3.68,1.66,
0.979,0.19,-1.33,-8.79,2.58,-3.68,1.66,
0.979,-0.43,-1.58,-6.89,2.58,-3.68,1.66,
0.979,-0.43,-1.58,-6.89,2.58,-3.68,1.66,
0.988,-0.43,-1.58,-6.89,2.62,-4.04,1.89,
0.989,-0.43,-1.58,-6.89,2.62,-4.04,1.89,
0.989,-0.67,-1.88,-6.31,2.62,-4.04,1.89,
0.989,-0.67,-1.88,-6.31,2.62,-4.04,1.89,
0.997,-0.67,-1.88,-6.31,2.61,-4.16,2.11,
0.998,-0.67,-1.88,-6.31,2.61,-4.16,2.11,
0.999,-0.61,-2.09,-5.47,2.61,-4.16,2.11,
0.999,-0.61,-2.09,-5.47,2.61,-4.16,2.11,
1.007,-0.61,-2.09,-5.47,2.56,-3.97,2.32,
1.008,-0.61,-2.09,-5.47,2.56,-3.97,2.32,
1.009,-0.43,-2.29,-3.81,2.56,-3.97,2.32,
1.009,-0.43,-2.29,-3.81,2.56,-3.97,2.32,
1.016,-0.43,-2.29,-3.81,2.51,-3.48,2.52,
1.017,-0.43,-2.29,-3.81,2.51,-3.48,2.52,
1.018,-0.21,-2.41,-3.50,2.51,-3.48,2.52,
1.018,-0.21,-2.41,-3.50,2.51,-3.48,2.52,
1.026,-0.21,-2.41,-3.50,2.41,-2.76,2.68,
1.027,-0.21,-2.41,-3.50,2.41,-2.76,2.68,
1.028,-0.15,-2.46,-3.50,2.41,-2.76,2.68,
1.028,-0.15,-2.46,-3.50,2.41,-2.76,2.68,
1.041,-0.15,-2.46,-3.50,2.26,-1.94,2.76,
1.042,-0.15,-2.46,-3.50,2.26,-1.94,2.76,
1.042,-0.19,-2.42,-3.63,2.26,-1.94,2.76,
1.043,-0.19,-2.42,-3.63,2.26,-1.94,2.76,
1.045,-0.19,-2.42,-3.63,2.15,-1.19,2.75,
1.046,-0.19,-2.42,-3.63,2.15,-1.19,2.75,
1.046,-0.30,-2.32,-3.84,2.15,-1.19,2.75,
1.047,-0.30,-2.32,-3.84,2.15,-1.19,2.75,
1.054,-0.30,-2.32,-3.84,2.05,-0.67,2.63,
1.055,-0.30,-2.32,-3.84,2.05,-0.67,2.63,
1.056,-0.28,-2.26,-3.72,2.05,-0.67,2.63,
1.056,-0.28,-2.26,-3.72,2.05,-0.67,2.63,
1.064,-0.28,-2.26,-3.72,1.93,-0.41,2.43,
1.065,-0.28,-2.26,-3.72,1.93,-0.41,2.43,
1.066,-0.18,-2.23,-3.13,1.93,-0.41,2.43,
1.066,-0.18,-2.23,-3.13,1.93,-0.41,2.43,
1.074,-0.18,-2.23,-3.13,1.80,-0.31,2.17,
1.075,-0.18,-2.23,-3.13,1.80,-0.31,2.17,
1.075,-0.14,-2.26,-2.41,1.80,-0.31,2.17,
1.076,-0.14,-2.26,-2.41,1.80,-0.31,2.17,
1.083,-0.14,-2.26,-2.41,1.66,-0.24,1.87,
1.083,-0.14,-2.26,-2.41,1.66,-0.24,1.87,
1.084,-0.16,-2.29,-1.83,1.66,-0.24,1.87,
1.085,-0.16,-2.29,-1.83,1.66,-0.24,1.87,
1.092,-0.16,-2.29,-1.83,1.53,-0.10,1.57,
1.094,-0.16,-2.29,-1.83,1.53,-0.10,1.57,
1.094,-0.35,-2.31,-1.62,1.53,-0.10,1.57,
1.095,-0.35,-2.31,-1.62,1.53,-0.10,1.57,
1.102,-0.35,-2.31,-1.62,1.43,0.13,1.30,
1.103,-0.35,-2.31,-1.62,1.43,0.13,1.30,
1.104,-0.64,-2.37,-1.78,1.43,0.13,1.30,
1.105,-0.64,-2.37,-1.78,1.43,0.13,1.30,
1.113,-0.64,-2.37,-1.78,1.35,0.37,1.08,
1.114,-0.64,-2.37,-1.78,1.35,0.37,1.08,
1.115,-0.84,-2.52,-2.08,1.35,0.37,1.08,
1.115,-0.84,-2.52,-2.08,1.35,0.37,1.08,
1.121,-0.84,-2.52,-2.08,1.26,0.53,0.93,
1.122,-0.84,-2.52,-2.08,1.26,0.53,0.93,
1.123,-0.87,-2.85,-2.23,1.26,0.53,0.93,
1.123,-0.87,-2.85,-2.23,1.26,0.53,0.93,
1.131,-0.87,-2.85,-2.23,1.15,0.55,0.85,
1.132,-0.87,-2.85,-2.23,1.15,0.55,0.85,
1.133,-0.72,-3.28,-1.99,1.15,0.55,0.85,
1.133,-0.72,-3.28,-1.99,1.15,0.55,0.85,
1.142,-0.72,-3.28,-1.99,1.15,0.55,0.85,
1.143,-0.72,-3.28,-1.99,1.15,0.55,0.85,
1.144,-0.72,-3.28,-1.99,1.15,0.55,0.85,
1.144,-0.72,-3.28,-1.99,1.15,0.55,0.85,
1.15,-0.72,-3.28,-1.99,1.02,0.44,0.86,
1.15,-0.72,-3.28,-1.99,1.02,0.44,0.86,
1.15,-0.72,-4.10,-1.33,1.02,0.44,0.86,
1.151,-0.72,-4.10,-1.33,1.02,0.44,0.86,
1.159,-0.72,-4.10,-1.33,0.88,0.29,0.95,
1.16,-0.72,-4.10,-1.33,0.88,0.29,0.95,
1.16,-0.99,-4.27,-1.37,0.88,0.29,0.95,
1.161,-0.99,-4.27,-1.37,0.88,0.29,0.95,
1.169,-0.99,-4.27,-1.37,0.74,0.17,1.12,
1.169,-0.99,-4.27,-1.37,0.74,0.17,1.12,
1.17,-1.31,-4.25,-1.68,0.74,0.17,1.12,
1.17,-1.31,-4.25,-1.68,0.74,0.17,1.12,
1.178,-1.31,-4.25,-1.68,0.65,0.10,1.35,
1.179,-1.31,-4.25,-1.68,0.65,0.10,1.35,
1.179,-1.63,-4.12,-2.06,0.65,0.10,1.35,
1.18,-1.63,-4.12,-2.06,0.65,0.10,1.35,
1.188,-1.63,-4.12,-2.06,0.56,0.00,1.57,
1.189,-1.63,-4.12,-2.06,0.56,0.00,1.57,
1.189,-1.83,-3.95,-2.26,0.56,0.00,1.57,
1.19,-1.83,-3.95,-2.26,0.56,0.00,1.57,
1.197,-1.83,-3.95,-2.26,0.48,-0.17,1.74,
1.198,-1.83,-3.95,-2.26,0.48,-0.17,1.74,
1.198,-2.04,-3.79,-2.06,0.48,-0.17,1.74,
1.198,-2.04,-3.79,-2.06,0.48,-0.17,1.74,
1.207,-2.04,-3.79,-2.06,0.40,-0.41,1.82,
1.208,-2.04,-3.79,-2.06,0.40,-0.41,1.82,
1.208,-2.30,-3.67,-1.63,0.40,-0.41,1.82,
1.209,-2.30,-3.67,-1.63,0.40,-0.41,1.82,
1.216,-2.30,-3.67,-1.63,0.31,-0.65,1.84,
1.217,-2.30,-3.67,-1.63,0.31,-0.65,1.84,
1.217,-2.45,-3.57,-1.09,0.31,-0.65,1.84,
1.217,-2.45,-3.57,-1.09,0.31,-0.65,1.84,
1.226,-2.45,-3.57,-1.09,0.26,-0.80,1.82,
1.226,-2.45,-3.57,-1.09,0.26,-0.80,1.82,
1.227,-2.49,-3.49,-0.43,0.26,-0.80,1.82,
1.227,-2.49,-3.49,-0.43,0.26,-0.80,1.82,
1.238,-2.49,-3.49,-0.43,0.25,-0.80,1.77,
1.239,-2.49,-3.49,-0.43,0.25,-0.80,1.77,
1.239,-2.44,-3.39,0.16,0.25,-0.80,1.77,
1.24,-2.44,-3.39,0.16,0.25,-0.80,1.77,
1.245,-2.44,-3.39,0.16,0.29,-0.65,1.71,
1.245,-2.44,-3.39,0.16,0.29,-0.65,1.71,
1.246,-2.34,-3.21,0.49,0.29,-0.65,1.71,
1.246,-2.34,-3.21,0.49,0.29,-0.65,1.71,
1.255,-2.34,-3.21,0.49,0.36,-0.36,1.63,
1.256,-2.34,-3.21,0.49,0.36,-0.36,1.63,
1.257,-2.29,-2.99,0.65,0.36,-0.36,1.63,
1.257,-2.29,-2.99,0.65,0.36,-0.36,1.63,
1.264,-2.29,-2.99,0.65,0.43,-0.02,1.50,
1.265,-2.29,-2.99,0.65,0.43,-0.02,1.50,
1.265,-2.28,-2.77,0.65,0.43,-0.02,1.50,
1.266,-2.28,-2.77,0.65,0.43,-0.02,1.50,
1.273,-2.28,-2.77,0.65,0.48,0.31,1.35,
1.274,-2.28,-2.77,0.65,0.48,0.31,1.35,
1.275,-2.30,-2.59,0.48,0.48,0.31,1.35,
1.276,-2.30,-2.59,0.48,0.48,0.31,1.35,
1.283,-2.30,-2.59,0.48,0.51,0.57,1.17,
1.284,-2.30,-2.59,0.48,0.51,0.57,1.17,
1.285,-2.37,-2.43,0.35,0.51,0.57,1.17,
1.285,-2.37,-2.43,0.35,0.51,0.57,1.17,
1.292,-2.37,-2.43,0.35,0.49,0.71,0.99,
1.294,-2.37,-2.43,0.35,0.49,0.71,0.99,
1.294,-2.47,-2.28,0.23,0.49,0.71,0.99,
1.295,-2.47,-2.28,0.23,0.49,0.71,0.99,
1.302,-2.47,-2.28,0.23,0.44,0.75,0.84,
1.303,-2.47,-2.28,0.23,0.44,0.75,0.84,
1.303,-2.62,-2.10,0.15,0.44,0.75,0.84,
1.304,-2.62,-2.10,0.15,0.44,0.75,0.84,
1.312,-2.62,-2.10,0.15,0.37,0.71,0.73,
1.313,-2.62,-2.10,0.15,0.37,0.71,0.73,
1.314,-2.90,-1.75,0.14,0.37,0.71,0.73,
1.314,-2.90,-1.75,0.14,0.37,0.71,0.73,
1.321,-2.90,-1.75,0.14,0.28,0.62,0.67,
1.322,-2.90,-1.75,0.14,0.28,0.62,0.67,
1.322,-3.31,-1.31,0.16,0.28,0.62,0.67,
1.323,-3.31,-1.31,0.16,0.28,0.62,0.67,
1.331,-3.31,-1.31,0.16,0.19,0.53,0.64,
1.332,-3.31,-1.31,0.16,0.19,0.53,0.64,
1.332,-5.18,-0.83,0.06,0.19,0.53,0.64,
1.333,-5.18,-0.83,0.06,0.19,0.53,0.64,
1.34,-5.18,-0.83,0.06,0.19,0.53,0.64,
1.341,-5.18,-0.83,0.06,0.19,0.53,0.64,
1.342,-5.18,-0.83,0.06,0.19,0.53,0.64,
1.342,-5.18,-0.83,0.06,0.19,0.53,0.64,
1.349,-5.18,-0.83,0.06,0.12,0.46,0.68,
1.35,-5.18,-0.83,0.06,0.12,0.46,0.68,
1.35,-7.21,-0.42,-0.22,0.12,0.46,0.68,
1.351,-7.21,-0.42,-0.22,0.12,0.46,0.68,
1.359,-7.21,-0.42,-0.22,0.09,0.40,0.89,
1.36,-7.21,-0.42,-0.22,0.09,0.40,0.89,
1.36,-7.38,-0.40,-0.45,0.09,0.40,0.89,
1.361,-7.38,-0.40,-0.45,0.09,0.40,0.89,
1.368,-7.38,-0.40,-0.45,0.07,0.33,1.36,
1.369,-7.38,-0.40,-0.45,0.07,0.33,1.36,
1.37,-7.17,-0.35,-0.74,0.07,0.33,1.36,
1.37,-7.17,-0.35,-0.74,0.07,0.33,1.36,
1.378,-7.17,-0.35,-0.74,0.04,0.22,2.08,
1.379,-7.17,-0.35,-0.74,0.04,0.22,2.08,
1.379,-5.06,-0.26,-0.76,0.04,0.22,2.08,
1.379,-5.06,-0.26,-0.76,0.04,0.22,2.08,
1.387,-5.06,-0.26,-0.76,-0.02,0.04,2.80,
1.388,-5.06,-0.26,-0.76,-0.02,0.04,2.80,
1.389,-2.89,-0.01,-0.56,-0.02,0.04,2.80,
1.39,-2.89,-0.01,-0.56,-0.02,0.04,2.80,
1.397,-2.89,-0.01,-0.56,-0.16,-0.16,3.09,
1.398,-2.89,-0.01,-0.56,-0.16,-0.16,3.09,
1.398,-2.41,0.47,-0.17,-0.16,-0.16,3.09,
1.399,-2.41,0.47,-0.17,-0.16,-0.16,3.09,
1.407,-2.41,0.47,-0.17,-0.34,-0.25,2.65,
1.408,-2.41,0.47,-0.17,-0.34,-0.25,2.65,
1.409,-2.03,0.96,1.54,-0.34,-0.25,2.65,
1.409,-2.03,0.96,1.54,-0.34,-0.25,2.65,
1.416,-2.03,0.96,1.54,-0.46,-0.08,1.64,
1.417,-2.03,0.96,1.54,-0.46,-0.08,1.64,
1.417,-1.89,1.41,1.63,-0.46,-0.08,1.64,
1.418,-1.89,1.41,1.63,-0.46,-0.08,1.64,
1.427,-1.89,1.41,1.63,-0.41,0.37,0.43,
1.428,-1.89,1.41,1.63,-0.41,0.37,0.43,
1.428,-2.14,1.74,1.65,-0.41,0.37,0.43,
1.429,-2.14,1.74,1.65,-0.41,0.37,0.43,
1.435,-2.14,1.74,1.65,-0.19,0.96,-0.63,
1.438,-2.14,1.74,1.65,-0.19,0.96,-0.63,
1.438,-2.61,1.58,1.42,-0.19,0.96,-0.63,
1.439,-2.61,1.58,1.42,-0.19,0.96,-0.63,
1.445,-2.61,1.58,1.42,0.10,1.50,-1.40,
1.446,-2.61,1.58,1.42,0.10,1.50,-1.40,
1.446,-3.06,-0.20,0.87,0.10,1.50,-1.40,
1.447,-3.06,-0.20,0.87,0.10,1.50,-1.40,
1.467,-3.06,-0.20,0.87,0.30,1.80,-1.76,
1.468,-3.06,-0.20,0.87,0.30,1.80,-1.76,
1.468,-3.24,-1.90,-0.66,0.30,1.80,-1.76,
1.469,-3.24,-1.90,-0.66,0.30,1.80,-1.76,
1.469,-3.24,-1.90,-0.66,0.31,1.79,-1.58,
1.47,-3.24,-1.90,-0.66,0.31,1.79,-1.58,
1.47,-3.25,-3.47,-0.88,0.31,1.79,-1.58,
1.471,-3.25,-3.47,-0.88,0.31,1.79,-1.58,
1.473,-3.25,-3.47,-0.88,0.36,1.46,-0.84,
1.474,-3.25,-3.47,-0.88,0.36,1.46,-0.84,
1.474,-2.83,-3.63,-0.71,0.36,1.46,-0.84,
1.475,-2.83,-3.63,-0.71,0.36,1.46,-0.84,
1.483,-2.83,-3.63,-0.71,0.51,0.92,0.24,
1.483,-2.83,-3.63,-0.71,0.51,0.92,0.24,
1.484,-0.74,-3.83,-0.45,0.51,0.92,0.24,
1.484,-0.74,-3.83,-0.45,0.51,0.92,0.24,
1.492,-0.74,-3.83,-0.45,0.56,0.38,1.21,
1.493,-0.74,-3.83,-0.45,0.56,0.38,1.21,
1.494,-0.04,-3.60,-0.58,0.56,0.38,1.21,
1.494,-0.04,-3.60,-0.58,0.56,0.38,1.21,
1.502,-0.04,-3.60,-0.58,0.32,0.01,1.69,
1.503,-0.04,-3.60,-0.58,0.32,0.01,1.69,
1.504,1.56,-2.01,-0.78,0.32,0.01,1.69,
1.504,1.56,-2.01,-0.78,0.32,0.01,1.69,
1.511,1.56,-2.01,-0.78,-0.09,-0.19,1.57,
1.512,1.56,-2.01,-0.78,-0.09,-0.19,1.57,
1.512,2.08,-1.66,-0.99,-0.09,-0.19,1.57,
1.513,2.08,-1.66,-0.99,-0.09,-0.19,1.57,
1.521,2.08,-1.66,-0.99,-0.35,-0.28,0.99,
1.521,2.08,-1.66,-0.99,-0.35,-0.28,0.99,
1.522,2.49,-1.84,-0.93,-0.35,-0.28,0.99,
1.522,2.49,-1.84,-0.93,-0.35,-0.28,0.99,
1.531,2.49,-1.84,-0.93,-0.52,-0.33,0.21,
1.532,2.49,-1.84,-0.93,-0.52,-0.33,0.21,
1.533,2.45,-5.94,0.68,-0.52,-0.33,0.21,
1.533,2.45,-5.94,0.68,-0.52,-0.33,0.21,
1.542,2.45,-5.94,0.68,-0.52,-0.33,0.21,
1.543,2.45,-5.94,0.68,-0.52,-0.33,0.21,
1.543,2.45,-5.94,0.68,-0.52,-0.33,0.21,
1.544,2.45,-5.94,0.68,-0.52,-0.33,0.21,
1.55,2.45,-5.94,0.68,-0.60,-0.32,-0.44,
1.55,2.45,-5.94,0.68,-0.60,-0.32,-0.44,
1.55,-2.06,-13.79,1.10,-0.60,-0.32,-0.44,
1.551,-2.06,-13.79,1.10,-0.60,-0.32,-0.44,
1.559,-2.06,-13.79,1.10,-0.58,-0.20,-0.48,
1.56,-2.06,-13.79,1.10,-0.58,-0.20,-0.48,
1.56,-3.66,-13.62,0.65,-0.58,-0.20,-0.48,
1.56,-3.66,-13.62,0.65,-0.58,-0.20,-0.48,
1.568,-3.66,-13.62,0.65,-0.46,0.01,0.44,
1.569,-3.66,-13.62,0.65,-0.46,0.01,0.44,
1.569,-5.23,-10.01,0.05,-0.46,0.01,0.44,
1.57,-5.23,-10.01,0.05,-0.46,0.01,0.44,
1.578,-5.23,-10.01,0.05,-0.33,0.22,1.95,
1.578,-5.23,-10.01,0.05,-0.33,0.22,1.95,
1.579,-5.24,-5.54,-0.32,-0.33,0.22,1.95,
1.579,-5.24,-5.54,-0.32,-0.33,0.22,1.95,
1.588,-5.24,-5.54,-0.32,-0.25,0.33,3.33,
1.589,-5.24,-5.54,-0.32,-0.25,0.33,3.33,
1.59,-4.86,-1.66,-0.34,-0.25,0.33,3.33,
1.591,-4.86,-1.66,-0.34,-0.25,0.33,3.33,
1.597,-4.86,-1.66,-0.34,-0.21,0.37,4.07,
1.598,-4.86,-1.66,-0.34,-0.21,0.37,4.07,
1.598,-3.35,-1.16,0.02,-0.21,0.37,4.07,
1.598,-3.35,-1.16,0.02,-0.21,0.37,4.07,
1.607,-3.35,-1.16,0.02,-0.20,0.37,4.11,
1.608,-3.35,-1.16,0.02,-0.20,0.37,4.11,
1.608,-2.99,-0.63,0.18,-0.20,0.37,4.11,
1.608,-2.99,-0.63,0.18,-0.20,0.37,4.11,
1.616,-2.99,-0.63,0.18,-0.16,0.40,3.65,
1.617,-2.99,-0.63,0.18,-0.16,0.40,3.65,
1.617,-2.41,-0.45,0.09,-0.16,0.40,3.65,
1.617,-2.41,-0.45,0.09,-0.16,0.40,3.65,
1.625,-2.41,-0.45,0.09,-0.09,0.44,2.90,
1.626,-2.41,-0.45,0.09,-0.09,0.44,2.90,
1.626,-1.94,-0.40,-0.10,-0.09,0.44,2.90,
1.627,-1.94,-0.40,-0.10,-0.09,0.44,2.90,
1.638,-1.94,-0.40,-0.10,0.01,0.43,2.04,
1.639,-1.94,-0.40,-0.10,0.01,0.43,2.04,
1.639,-1.76,-0.43,-0.20,0.01,0.43,2.04,
1.64,-1.76,-0.43,-0.20,0.01,0.43,2.04,
1.645,-1.76,-0.43,-0.20,0.11,0.36,1.21,
1.646,-1.76,-0.43,-0.20,0.11,0.36,1.21,
1.646,-1.84,-0.56,-0.19,0.11,0.36,1.21,
1.646,-1.84,-0.56,-0.19,0.11,0.36,1.21,
1.654,-1.84,-0.56,-0.19,0.16,0.24,0.50,
1.656,-1.84,-0.56,-0.19,0.16,0.24,0.50,
1.656,-2.15,-0.75,-0.14,0.16,0.24,0.50,
1.657,-2.15,-0.75,-0.14,0.16,0.24,0.50,
1.663,-2.15,-0.75,-0.14,0.17,0.12,-0.02,
1.664,-2.15,-0.75,-0.14,0.17,0.12,-0.02,
1.664,-2.54,-0.91,-0.19,0.17,0.12,-0.02,
1.664,-2.54,-0.91,-0.19,0.17,0.12,-0.02,
1.673,-2.54,-0.91,-0.19,0.16,0.02,-0.32,
1.674,-2.54,-0.91,-0.19,0.16,0.02,-0.32,
1.674,-2.91,-0.98,-0.26,0.16,0.02,-0.32,
1.674,-2.91,-0.98,-0.26,0.16,0.02,-0.32,
1.682,-2.91,-0.98,-0.26,0.16,-0.08,-0.38,
1.683,-2.91,-0.98,-0.26,0.16,-0.08,-0.38,
1.683,-3.15,-0.96,-0.28,0.16,-0.08,-0.38,
1.683,-3.15,-0.96,-0.28,0.16,-0.08,-0.38,
1.692,-3.15,-0.96,-0.28,0.15,-0.16,-0.24,
1.693,-3.15,-0.96,-0.28,0.15,-0.16,-0.24,
1.693,-3.29,-0.96,-0.26,0.15,-0.16,-0.24,
1.693,-3.29,-0.96,-0.26,0.15,-0.16,-0.24,
1.702,-3.29,-0.96,-0.26,0.14,-0.22,0.02,
1.703,-3.29,-0.96,-0.26,0.14,-0.22,0.02,
1.703,-3.33,-1.02,-0.24,0.14,-0.22,0.02,
1.703,-3.33,-1.02,-0.24,0.14,-0.22,0.02,
1.711,-3.33,-1.02,-0.24,0.11,-0.26,0.32,
1.712,-3.33,-1.02,-0.24,0.11,-0.26,0.32,
1.712,-3.30,-1.12,-0.20,0.11,-0.26,0.32,
1.713,-3.30,-1.12,-0.20,0.11,-0.26,0.32,
1.72,-3.30,-1.12,-0.20,0.08,-0.26,0.60,
1.721,-3.30,-1.12,-0.20,0.08,-0.26,0.60,
1.722,-3.17,-1.21,-0.16,0.08,-0.26,0.60,
1.722,-3.17,-1.21,-0.16,0.08,-0.26,0.60,
1.731,-3.17,-1.21,-0.16,0.07,-0.26,0.83,
1.731,-3.17,-1.21,-0.16,0.07,-0.26,0.83,
1.732,-2.98,-1.28,-0.13,0.07,-0.26,0.83,
1.733,-2.98,-1.28,-0.13,0.07,-0.26,0.83,
1.74,-2.98,-1.28,-0.13,0.07,-0.26,0.83,
1.741,-2.98,-1.28,-0.13,0.07,-0.26,0.83,
1.741,-2.98,-1.28,-0.13,0.07,-0.26,0.83,
1.742,-2.98,-1.28,-0.13,0.07,-0.26,0.83,
1.749,-2.98,-1.28,-0.13,0.07,-0.26,0.99,
1.75,-2.98,-1.28,-0.13,0.07,-0.26,0.99,
1.75,-2.56,-1.70,-0.14,0.07,-0.26,0.99,
1.751,-2.56,-1.70,-0.14,0.07,-0.26,0.99,
1.759,-2.56,-1.70,-0.14,0.07,-0.26,1.08,
1.76,-2.56,-1.70,-0.14,0.07,-0.26,1.08,
1.76,-2.38,-1.99,-0.16,0.07,-0.26,1.08,
1.761,-2.38,-1.99,-0.16,0.07,-0.26,1.08,
1.769,-2.38,-1.99,-0.16,0.07,-0.27,1.10,
1.77,-2.38,-1.99,-0.16,0.07,-0.27,1.10,
1.771,-2.39,-2.04,-0.18,0.07,-0.27,1.10,
1.771,-2.39,-2.04,-0.18,0.07,-0.27,1.10,
1.778,-2.39,-2.04,-0.18,0.07,-0.29,1.06,
1.779,-2.39,-2.04,-0.18,0.07,-0.29,1.06,
1.779,-2.71,-0.28,-0.29,0.07,-0.29,1.06,
1.78,-2.71,-0.28,-0.29,0.07,-0.29,1.06,
1.787,-2.71,-0.28,-0.29,0.05,-0.31,1.00,
1.789,-2.71,-0.28,-0.29,0.05,-0.31,1.00,
1.79,-2.89,4.15,-0.69,0.05,-0.31,1.00,
1.79,-2.89,4.15,-0.69,0.05,-0.31,1.00,
1.797,-2.89,4.15,-0.69,0.03,-0.32,0.87,
1.798,-2.89,4.15,-0.69,0.03,-0.32,0.87,
1.798,-2.96,7.50,-0.65,0.03,-0.32,0.87,
1.799,-2.96,7.50,-0.65,0.03,-0.32,0.87,
1.806,-2.96,7.50,-0.65,0.00,-0.31,0.57,
1.808,-2.96,7.50,-0.65,0.00,-0.31,0.57,
1.809,-3.03,8.06,1.01,0.00,-0.31,0.57,
1.809,-3.03,8.06,1.01,0.00,-0.31,0.57,
1.816,-3.03,8.06,1.01,0.02,-0.23,-0.01,
1.816,-3.03,8.06,1.01,0.02,-0.23,-0.01,
1.817,-3.11,8.34,2.59,0.02,-0.23,-0.01,
1.817,-3.11,8.34,2.59,0.02,-0.23,-0.01,
1.825,-3.11,8.34,2.59,0.25,0.08,-0.89,
1.826,-3.11,8.34,2.59,0.25,0.08,-0.89,
1.826,-3.51,4.89,4.56,0.25,0.08,-0.89,
1.827,-3.51,4.89,4.56,0.25,0.08,-0.89,
1.838,-3.51,4.89,4.56,0.97,0.82,-1.85,
1.839,-3.51,4.89,4.56,0.97,0.82,-1.85,
1.84,-4.04,3.11,4.34,0.97,0.82,-1.85,
1.84,-4.04,3.11,4.34,0.97,0.82,-1.85,
1.845,-4.04,3.11,4.34,2.19,2.03,-2.37,
1.846,-4.04,3.11,4.34,2.19,2.03,-2.37,
1.846,-4.50,1.41,3.75,2.19,2.03,-2.37,
1.846,-4.50,1.41,3.75,2.19,2.03,-2.37,
1.854,-4.50,1.41,3.75,3.37,3.37,-2.01,
1.855,-4.50,1.41,3.75,3.37,3.37,-2.01,
1.855,-4.89,-0.15,3.46,3.37,3.37,-2.01,
1.856,-4.89,-0.15,3.46,3.37,3.37,-2.01,
1.863,-4.89,-0.15,3.46,3.60,4.32,-1.39,
1.864,-4.89,-0.15,3.46,3.60,4.32,-1.39,
1.865,-5.31,-0.55,3.24,3.60,4.32,-1.39,
1.865,-5.31,-0.55,3.24,3.60,4.32,-1.39,
1.873,-5.31,-0.55,3.24,3.06,4.35,-0.34,
1.874,-5.31,-0.55,3.24,3.06,4.35,-0.34,
1.874,-5.70,-2.17,-0.27,3.06,4.35,-0.34,
1.875,-5.70,-2.17,-0.27,3.06,4.35,-0.34,
1.883,-5.70,-2.17,-0.27,2.19,3.75,1.32,
1.884,-5.70,-2.17,-0.27,2.19,3.75,1.32,
1.885,-5.47,-2.50,-2.98,2.19,3.75,1.32,
1.885,-5.47,-2.50,-2.98,2.19,3.75,1.32,
1.892,-5.47,-2.50,-2.98,0.85,2.73,2.79,
1.894,-5.47,-2.50,-2.98,0.85,2.73,2.79,
1.895,-5.06,-2.63,-4.58,0.85,2.73,2.79,
1.896,-5.06,-2.63,-4.58,0.85,2.73,2.79,
1.903,-5.06,-2.63,-4.58,0.85,2.73,2.79,
1.904,-5.06,-2.63,-4.58,0.85,2.73,2.79,
1.905,-5.06,-2.63,-4.58,0.85,2.73,2.79,
1.905,-5.06,-2.63,-4.58,0.85,2.73,2.79,
1.911,-5.06,-2.63,-4.58,-2.59,0.95,3.27,
1.911,-5.06,-2.63,-4.58,-2.59,0.95,3.27,
1.912,-4.10,1.59,-1.85,-2.59,0.95,3.27,
1.912,-4.10,1.59,-1.85,-2.59,0.95,3.27,
1.921,-4.10,1.59,-1.85,-3.75,-0.69,3.40,
1.922,-4.10,1.59,-1.85,-3.75,-0.69,3.40,
1.922,-4.11,2.00,0.20,-3.75,-0.69,3.40,
1.922,-4.11,2.00,0.20,-3.75,-0.69,3.40,
1.931,-4.11,2.00,0.20,-3.75,-0.69,3.40,
1.932,-4.11,2.00,0.20,-3.75,-0.69,3.40,
1.932,-4.11,2.00,0.20,-3.75,-0.69,3.40,
1.933,-4.11,2.00,0.20,-3.75,-0.69,3.40,
1.939,-4.11,2.00,0.20,-4.15,-1.48,3.05,
1.941,-4.11,2.00,0.20,-4.15,-1.48,3.05,
1.941,-4.85,2.43,2.68,-4.15,-1.48,3.05,
1.942,-4.85,2.43,2.68,-4.15,-1.48,3.05,
1.949,-4.85,2.43,2.68,-3.80,-1.57,2.58,
1.95,-4.85,2.43,2.68,-3.80,-1.57,2.58,
1.95,-5.02,2.39,3.25,-3.80,-1.57,2.58,
1.95,-5.02,2.39,3.25,-3.80,-1.57,2.58,
1.959,-5.02,2.39,3.25,-2.77,-1.15,2.23,
1.959,-5.02,2.39,3.25,-2.77,-1.15,2.23,
1.96,-5.13,2.57,3.73,-2.77,-1.15,2.23,
1.96,-5.13,2.57,3.73,-2.77,-1.15,2.23,
1.968,-5.13,2.57,3.73,-1.28,-0.86,2.04,
1.969,-5.13,2.57,3.73,-1.28,-0.86,2.04,
1.969,-4.68,3.17,3.47,-1.28,-0.86,2.04,
1.969,-4.68,3.17,3.47,-1.28,-0.86,2.04,
1.978,-4.68,3.17,3.47,0.29,-0.88,1.92,
1.978,-4.68,3.17,3.47,0.29,-0.88,1.92,
1.979,-4.36,0.06,1.00,0.29,-0.88,1.92,
1.979,-4.36,0.06,1.00,0.29,-0.88,1.92,
1.987,-4.36,0.06,1.00,1.43,-0.59,1.79,
1.99,-4.36,0.06,1.00,1.43,-0.59,1.79,
1.99,-8.28,-8.43,-0.32,1.43,-0.59,1.79,
1.991,-8.28,-8.43,-0.32,1.43,-0.59,1.79,
1.997,-8.28,-8.43,-0.32,1.65,-0.40,1.84,
1.998,-8.28,-8.43,-0.32,1.65,-0.40,1.84,
1.999,-8.39,-15.90,-0.10,1.65,-0.40,1.84,
1.999,-8.39,-15.90,-0.10,1.65,-0.40,1.84,
2.006,-8.39,-15.90,-0.10,0.79,-0.91,2.27,
2.008,-8.39,-15.90,-0.10,0.79,-0.91,2.27,
2.009,-8.14,-17.69,0.19,0.79,-0.91,2.27,
2.01,-8.14,-17.69,0.19,0.79,-0.91,2.27,
2.016,-8.14,-17.69,0.19,-0.61,-1.73,2.78,
2.017,-8.14,-17.69,0.19,-0.61,-1.73,2.78,
2.017,-4.23,-13.77,0.62,-0.61,-1.73,2.78,
2.018,-4.23,-13.77,0.62,-0.61,-1.73,2.78,
2.025,-4.23,-13.77,0.62,-1.66,-2.34,2.87,
2.026,-4.23,-13.77,0.62,-1.66,-2.34,2.87,
2.027,3.43,-5.37,0.69,-1.66,-2.34,2.87,
2.028,3.43,-5.37,0.69,-1.66,-2.34,2.87,
2.038,3.43,-5.37,0.69,-2.06,-2.52,2.33,
2.039,3.43,-5.37,0.69,-2.06,-2.52,2.33,
2.04,6.00,1.94,0.71,-2.06,-2.52,2.33,
2.04,6.00,1.94,0.71,-2.06,-2.52,2.33,
2.044,6.00,1.94,0.71,-1.98,-2.41,1.19,
2.045,6.00,1.94,0.71,-1.98,-2.41,1.19,
2.046,6.25,2.39,1.12,-1.98,-2.41,1.19,
2.046,6.25,2.39,1.12,-1.98,-2.41,1.19,
2.054,6.25,2.39,1.12,-1.64,-2.17,-0.42,
2.055,6.25,2.39,1.12,-1.64,-2.17,-0.42,
2.055,3.70,2.13,1.64,-1.64,-2.17,-0.42,
2.055,3.70,2.13,1.64,-1.64,-2.17,-0.42,
2.063,3.70,2.13,1.64,-1.19,-1.98,-2.22,
2.064,3.70,2.13,1.64,-1.19,-1.98,-2.22,
2.065,-0.56,0.33,2.06,-1.19,-1.98,-2.22,
2.065,-0.56,0.33,2.06,-1.19,-1.98,-2.22,
2.073,-0.56,0.33,2.06,-0.66,-1.85,-3.62,
2.074,-0.56,0.33,2.06,-0.66,-1.85,-3.62,
2.074,-4.59,-1.51,1.98,-0.66,-1.85,-3.62,
2.075,-4.59,-1.51,1.98,-0.66,-1.85,-3.62,
2.082,-4.59,-1.51,1.98,-0.12,-1.71,-4.02,
2.083,-4.59,-1.51,1.98,-0.12,-1.71,-4.02,
2.083,-6.66,-1.82,1.41,-0.12,-1.71,-4.02,
2.084,-6.66,-1.82,1.41,-0.12,-1.71,-4.02,
2.092,-6.66,-1.82,1.41,0.32,-1.47,-3.20,
2.093,-6.66,-1.82,1.41,0.32,-1.47,-3.20,
2.093,-6.89,-1.67,0.70,0.32,-1.47,-3.20,
2.094,-6.89,-1.67,0.70,0.32,-1.47,-3.20,
2.102,-6.89,-1.67,0.70,0.32,-1.47,-3.20,
2.103,-6.89,-1.67,0.70,0.32,-1.47,-3.20,
2.104,-6.89,-1.67,0.70,0.32,-1.47,-3.20,
2.105,-6.89,-1.67,0.70,0.32,-1.47,-3.20,
2.111,-6.89,-1.67,0.70,0.59,-0.88,0.47,
2.112,-6.89,-1.67,0.70,0.59,-0.88,0.47,
2.112,-6.76,0.63,-0.15,0.59,-0.88,0.47,
2.113,-6.76,0.63,-0.15,0.59,-0.88,0.47,
2.121,-6.76,0.63,-0.15,0.42,-0.72,2.14,
2.121,-6.76,0.63,-0.15,0.42,-0.72,2.14,
2.122,-6.11,1.19,0.00,0.42,-0.72,2.14,
2.122,-6.11,1.19,0.00,0.42,-0.72,2.14,
2.13,-6.11,1.19,0.00,0.42,-0.72,2.14,
2.131,-6.11,1.19,0.00,0.42,-0.72,2.14,
2.131,-6.11,1.19,0.00,0.42,-0.72,2.14,
2.131,-6.11,1.19,0.00,0.42,-0.72,2.14,
2.143,-6.11,1.19,0.00,0.16,-0.66,3.34,
2.145,-6.11,1.19,0.00,0.16,-0.66,3.34,
2.145,-4.00,1.71,2.20,0.16,-0.66,3.34,
2.145,-4.00,1.71,2.20,0.16,-0.66,3.34,
2.15,-4.00,1.71,2.20,-0.00,-0.62,4.02,
2.151,-4.00,1.71,2.20,-0.00,-0.62,4.02,
2.151,-3.47,1.55,2.34,-0.00,-0.62,4.02,
2.151,-3.47,1.55,2.34,-0.00,-0.62,4.02,
2.158,-3.47,1.55,2.34,0.11,-0.55,4.16,
2.159,-3.47,1.55,2.34,0.11,-0.55,4.16,
2.16,-2.90,1.19,2.43,0.11,-0.55,4.16,
2.16,-2.90,1.19,2.43,0.11,-0.55,4.16,
2.168,-2.90,1.19,2.43,0.52,-0.40,3.81,
2.169,-2.90,1.19,2.43,0.52,-0.40,3.81,
2.17,-2.43,0.70,2.35,0.52,-0.40,3.81,
2.172,-2.43,0.70,2.35,0.52,-0.40,3.81,
2.177,-2.43,0.70,2.35,1.06,-0.22,3.15,
2.178,-2.43,0.70,2.35,1.06,-0.22,3.15,
2.178,-2.09,0.16,1.98,1.06,-0.22,3.15,
2.179,-2.09,0.16,1.98,1.06,-0.22,3.15,
2.187,-2.09,0.16,1.98,1.46,-0.07,2.38,
2.189,-2.09,0.16,1.98,1.46,-0.07,2.38,
2.19,-1.77,-0.11,1.43,1.46,-0.07,2.38,
2.191,-1.77,-0.11,1.43,1.46,-0.07,2.38,
2.197,-1.77,-0.11,1.43,1.61,0.02,1.65,
2.198,-1.77,-0.11,1.43,1.61,0.02,1.65,
2.198,-1.57,-0.14,0.87,1.61,0.02,1.65,
2.199,-1.57,-0.14,0.87,1.61,0.02,1.65,
2.206,-1.57,-0.14,0.87,1.50,0.03,1.01,
2.207,-1.57,-0.14,0.87,1.50,0.03,1.01,
2.208,-1.40,0.02,0.45,1.50,0.03,1.01,
2.208,-1.40,0.02,0.45,1.50,0.03,1.01,
2.216,-1.40,0.02,0.45,1.20,-0.00,0.52,
2.216,-1.40,0.02,0.45,1.20,-0.00,0.52,
2.217,-1.32,0.28,0.13,1.20,-0.00,0.52,
2.217,-1.32,0.28,0.13,1.20,-0.00,0.52,
2.225,-1.32,0.28,0.13,0.78,-0.06,0.17,
2.226,-1.32,0.28,0.13,0.78,-0.06,0.17,
2.226,-1.38,0.43,-0.03,0.78,-0.06,0.17,
2.227,-1.38,0.43,-0.03,0.78,-0.06,0.17,
2.238,-1.38,0.43,-0.03,0.36,-0.12,-0.04,
2.239,-1.38,0.43,-0.03,0.36,-0.12,-0.04,
2.24,-1.49,0.53,-0.05,0.36,-0.12,-0.04,
2.241,-1.49,0.53,-0.05,0.36,-0.12,-0.04,
2.244,-1.49,0.53,-0.05,-0.00,-0.16,-0.13,
2.245,-1.49,0.53,-0.05,-0.00,-0.16,-0.13,
2.245,-1.58,0.55,0.08,-0.00,-0.16,-0.13,
2.245,-1.58,0.55,0.08,-0.00,-0.16,-0.13,
2.254,-1.58,0.55,0.08,-0.27,-0.20,-0.11,
2.254,-1.58,0.55,0.08,-0.27,-0.20,-0.11,
2.255,-1.57,0.53,0.36,-0.27,-0.20,-0.11,
2.255,-1.57,0.53,0.36,-0.27,-0.20,-0.11,
2.263,-1.57,0.53,0.36,-0.43,-0.22,0.00,
2.264,-1.57,0.53,0.36,-0.43,-0.22,0.00,
2.265,-1.47,0.51,0.67,-0.43,-0.22,0.00,
2.265,-1.47,0.51,0.67,-0.43,-0.22,0.00,
2.273,-1.47,0.51,0.67,-0.46,-0.23,0.15,
2.274,-1.47,0.51,0.67,-0.46,-0.23,0.15,
2.274,-1.27,0.44,0.94,-0.46,-0.23,0.15,
2.275,-1.27,0.44,0.94,-0.46,-0.23,0.15,
2.282,-1.27,0.44,0.94,-0.37,-0.19,0.28,
2.283,-1.27,0.44,0.94,-0.37,-0.19,0.28,
2.283,-1.07,0.35,1.07,-0.37,-0.19,0.28,
2.284,-1.07,0.35,1.07,-0.37,-0.19,0.28,
2.291,-1.07,0.35,1.07,-0.18,-0.13,0.35,
2.292,-1.07,0.35,1.07,-0.18,-0.13,0.35,
2.293,-0.86,0.22,1.10,-0.18,-0.13,0.35,
2.293,-0.86,0.22,1.10,-0.18,-0.13,0.35,
2.302,-0.86,0.22,1.10,0.05,-0.05,0.35,
2.303,-0.86,0.22,1.10,0.05,-0.05,0.35,
2.304,-0.74,0.08,1.05,0.05,-0.05,0.35,
2.305,-0.74,0.08,1.05,0.05,-0.05,0.35,
2.31,-0.74,0.08,1.05,0.27,0.01,0.30,
2.311,-0.74,0.08,1.05,0.27,0.01,0.30,
2.312,-0.60,0.03,0.88,0.27,0.01,0.30,
2.312,-0.60,0.03,0.88,0.27,0.01,0.30,
2.321,-0.60,0.03,0.88,0.42,0.05,0.21,
2.321,-0.60,0.03,0.88,0.42,0.05,0.21,
2.322,-0.40,0.03,0.64,0.42,0.05,0.21,
2.322,-0.40,0.03,0.64,0.42,0.05,0.21,
2.331,-0.40,0.03,0.64,0.42,0.05,0.21,
2.332,-0.40,0.03,0.64,0.42,0.05,0.21,
2.332,-0.40,0.03,0.64,0.42,0.05,0.21,
2.333,-0.40,0.03,0.64,0.42,0.05,0.21,
2.339,-0.40,0.03,0.64,0.50,0.08,0.10,
2.34,-0.40,0.03,0.64,0.50,0.08,0.10,
2.341,-0.16,0.15,0.27,0.50,0.08,0.10,
2.342,-0.16,0.15,0.27,0.50,0.08,0.10,
2.349,-0.16,0.15,0.27,0.48,0.09,-0.01,
2.349,-0.16,0.15,0.27,0.48,0.09,-0.01,
2.35,-0.11,0.18,0.23,0.48,0.09,-0.01,
2.35,-0.11,0.18,0.23,0.48,0.09,-0.01,
2.358,-0.11,0.18,0.23,0.39,0.07,-0.11,
2.359,-0.11,0.18,0.23,0.39,0.07,-0.11,
2.359,-0.09,0.24,0.26,0.39,0.07,-0.11,
2.36,-0.09,0.24,0.26,0.39,0.07,-0.11,
2.368,-0.09,0.24,0.26,0.27,0.05,-0.20,
2.368,-0.09,0.24,0.26,0.27,0.05,-0.20,
2.369,-0.02,0.31,0.33,0.27,0.05,-0.20,
2.369,-0.02,0.31,0.33,0.27,0.05,-0.20,
2.377,-0.02,0.31,0.33,0.15,0.02,-0.26,
2.378,-0.02,0.31,0.33,0.15,0.02,-0.26,
2.378,0.03,0.32,0.29,0.15,0.02,-0.26,
2.379,0.03,0.32,0.29,0.15,0.02,-0.26,
2.387,0.03,0.32,0.29,0.06,-0.01,-0.28,
2.388,0.03,0.32,0.29,0.06,-0.01,-0.28,
2.389,0.18,0.32,0.18,0.06,-0.01,-0.28,
2.389,0.18,0.32,0.18,0.06,-0.01,-0.28,
2.396,0.18,0.32,0.18,0.02,-0.04,-0.29,
2.397,0.18,0.32,0.18,0.02,-0.04,-0.29,
2.398,0.29,0.24,0.03,0.02,-0.04,-0.29,
2.398,0.29,0.24,0.03,0.02,-0.04,-0.29,
2.406,0.29,0.24,0.03,-0.02,-0.08,-0.29,
2.407,0.29,0.24,0.03,-0.02,-0.08,-0.29,
2.408,0.39,0.14,-0.15,-0.02,-0.08,-0.29,
2.409,0.39,0.14,-0.15,-0.02,-0.08,-0.29,
2.415,0.39,0.14,-0.15,-0.08,-0.11,-0.30,
2.416,0.39,0.14,-0.15,-0.08,-0.11,-0.30,
2.416,0.42,0.04,-0.30,-0.08,-0.11,-0.30,
2.417,0.42,0.04,-0.30,-0.08,-0.11,-0.30,
2.425,0.42,0.04,-0.30,-0.17,-0.14,-0.32,
2.425,0.42,0.04,-0.30,-0.17,-0.14,-0.32,
2.426,0.35,-0.05,-0.38,-0.17,-0.14,-0.32,
2.426,0.35,-0.05,-0.38,-0.17,-0.14,-0.32,
2.438,0.35,-0.05,-0.38,-0.28,-0.18,-0.34,
2.44,0.35,-0.05,-0.38,-0.28,-0.18,-0.34,
2.44,0.23,-0.13,-0.43,-0.28,-0.18,-0.34,
2.441,0.23,-0.13,-0.43,-0.28,-0.18,-0.34,
2.444,0.23,-0.13,-0.43,-0.39,-0.23,-0.33,
2.445,0.23,-0.13,-0.43,-0.39,-0.23,-0.33,
2.445,0.09,-0.18,-0.49,-0.39,-0.23,-0.33,
2.446,0.09,-0.18,-0.49,-0.39,-0.23,-0.33,
2.466,0.09,-0.18,-0.49,-0.49,-0.26,-0.29,
2.467,0.09,-0.18,-0.49,-0.49,-0.26,-0.29,
2.467,-0.02,-0.20,-0.54,-0.49,-0.26,-0.29,
2.468,-0.02,-0.20,-0.54,-0.49,-0.26,-0.29,
2.468,-0.02,-0.20,-0.54,-0.56,-0.29,-0.21,
2.469,-0.02,-0.20,-0.54,-0.56,-0.29,-0.21,
2.469,-0.10,-0.20,-0.54,-0.56,-0.29,-0.21,
2.47,-0.10,-0.20,-0.54,-0.56,-0.29,-0.21,
2.472,-0.10,-0.20,-0.54,-0.60,-0.30,-0.10,
2.473,-0.10,-0.20,-0.54,-0.60,-0.30,-0.10,
2.474,-0.12,-0.12,-0.49,-0.60,-0.30,-0.10,
2.474,-0.12,-0.12,-0.49,-0.60,-0.30,-0.10,
2.482,-0.12,-0.12,-0.49,-0.61,-0.30,0.01,
2.483,-0.12,-0.12,-0.49,-0.61,-0.30,0.01,
2.483,-0.09,-0.04,-0.40,-0.61,-0.30,0.01,
2.484,-0.09,-0.04,-0.40,-0.61,-0.30,0.01,
2.491,-0.09,-0.04,-0.40,-0.59,-0.30,0.11,
2.493,-0.09,-0.04,-0.40,-0.59,-0.30,0.11,
2.493,-0.06,0.05,-0.31,-0.59,-0.30,0.11,
2.493,-0.06,0.05,-0.31,-0.59,-0.30,0.11,
2.502,-0.06,0.05,-0.31,-0.59,-0.30,0.11,
2.502,-0.06,0.05,-0.31,-0.59,-0.30,0.11,
2.503,-0.06,0.05,-0.31,-0.59,-0.30,0.11,
2.503,-0.06,0.05,-0.31,-0.59,-0.30,0.11,
2.511,-0.06,0.05,-0.31,-0.45,-0.29,0.24,
2.511,-0.06,0.05,-0.31,-0.45,-0.29,0.24,
2.512,0.01,0.28,-0.19,-0.45,-0.29,0.24,
2.512,0.01,0.28,-0.19,-0.45,-0.29,0.24,
2.521,0.01,0.28,-0.19,-0.45,-0.29,0.24,
2.522,0.01,0.28,-0.19,-0.45,-0.29,0.24,
2.523,0.01,0.28,-0.19,-0.45,-0.29,0.24,
2.524,0.01,0.28,-0.19,-0.45,-0.29,0.24,
2.53,0.01,0.28,-0.19,-0.33,-0.28,0.26,
2.531,0.01,0.28,-0.19,-0.33,-0.28,0.26,
2.531,-0.29,0.21,0.00,-0.33,-0.28,0.26,
2.532,-0.29,0.21,0.00,-0.33,-0.28,0.26,
2.54,-0.29,0.21,0.00,-0.21,-0.27,0.28,
2.541,-0.29,0.21,0.00,-0.21,-0.27,0.28,
2.542,-0.40,0.08,0.01,-0.21,-0.27,0.28,
2.542,-0.40,0.08,0.01,-0.21,-0.27,0.28,
2.55,-0.40,0.08,0.01,-0.09,-0.25,0.31,
2.551,-0.40,0.08,0.01,-0.09,-0.25,0.31,
2.551,-0.37,-0.00,-0.26,-0.09,-0.25,0.31,
2.552,-0.37,-0.00,-0.26,-0.09,-0.25,0.31,
2.558,-0.37,-0.00,-0.26,0.01,-0.24,0.36,
2.559,-0.37,-0.00,-0.26,0.01,-0.24,0.36,
2.559,-0.26,-0.05,-0.67,0.01,-0.24,0.36,
2.56,-0.26,-0.05,-0.67,0.01,-0.24,0.36,
2.568,-0.26,-0.05,-0.67,0.04,-0.22,0.41,
2.569,-0.26,-0.05,-0.67,0.04,-0.22,0.41,
2.569,-0.11,-0.07,-1.15,0.04,-0.22,0.41,
2.57,-0.11,-0.07,-1.15,0.04,-0.22,0.41,
2.577,-0.11,-0.07,-1.15,-0.02,-0.23,0.44,
2.578,-0.11,-0.07,-1.15,-0.02,-0.23,0.44,
2.579,-0.01,-0.04,-1.50,-0.02,-0.23,0.44,
2.58,-0.01,-0.04,-1.50,-0.02,-0.23,0.44,
2.587,-0.01,-0.04,-1.50,-0.20,-0.29,0.42,
2.589,-0.01,-0.04,-1.50,-0.20,-0.29,0.42,
2.59,0.06,0.01,-1.55,-0.20,-0.29,0.42,
2.59,0.06,0.01,-1.55,-0.20,-0.29,0.42,
2.596,0.06,0.01,-1.55,-0.46,-0.37,0.37,
2.597,0.06,0.01,-1.55,-0.46,-0.37,0.37,
2.597,0.04,0.03,-1.38,-0.46,-0.37,0.37,
2.598,0.04,0.03,-1.38,-0.46,-0.37,0.37,
2.606,0.04,0.03,-1.38,-0.71,-0.46,0.29,
2.607,0.04,0.03,-1.38,-0.71,-0.46,0.29,
2.608,0.13,0.06,-1.17,-0.71,-0.46,0.29,
2.609,0.13,0.06,-1.17,-0.71,-0.46,0.29,
2.619,0.13,0.06,-1.17,-0.88,-0.51,0.21,
2.622,0.13,0.06,-1.17,-0.88,-0.51,0.21,
2.624,0.24,0.04,-0.87,-0.88,-0.51,0.21,
2.626,0.24,0.04,-0.87,-0.88,-0.51,0.21,
2.627,0.24,0.04,-0.87,-0.93,-0.51,0.12,
2.627,0.24,0.04,-0.87,-0.93,-0.51,0.12,
2.628,0.07,-0.06,-0.50,-0.93,-0.51,0.12,
2.629,0.07,-0.06,-0.50,-0.93,-0.51,0.12,
2.634,0.07,-0.06,-0.50,-0.85,-0.47,0.04,
2.635,0.07,-0.06,-0.50,-0.85,-0.47,0.04,
2.635,0.00,-0.07,-0.18,-0.85,-0.47,0.04,
2.636,0.00,-0.07,-0.18,-0.85,-0.47,0.04,
2.644,0.00,-0.07,-0.18,-0.66,-0.41,-0.03,
2.645,0.00,-0.07,-0.18,-0.66,-0.41,-0.03,
2.645,-0.19,-0.09,0.10,-0.66,-0.41,-0.03,
2.645,-0.19,-0.09,0.10,-0.66,-0.41,-0.03,
2.653,-0.19,-0.09,0.10,-0.41,-0.33,-0.06,
2.654,-0.19,-0.09,0.10,-0.41,-0.33,-0.06,
2.654,-0.54,-0.10,0.27,-0.41,-0.33,-0.06,
2.655,-0.54,-0.10,0.27,-0.41,-0.33,-0.06,
2.663,-0.54,-0.10,0.27,-0.12,-0.26,-0.05,
2.664,-0.54,-0.10,0.27,-0.12,-0.26,-0.05,
2.664,-0.71,-0.02,0.36,-0.12,-0.26,-0.05,
2.664,-0.71,-0.02,0.36,-0.12,-0.26,-0.05,
2.672,-0.71,-0.02,0.36,0.16,-0.18,0.02,
2.674,-0.71,-0.02,0.36,0.16,-0.18,0.02,
2.674,-0.93,-0.02,0.39,0.16,-0.18,0.02,
2.675,-0.93,-0.02,0.39,0.16,-0.18,0.02,
2.682,-0.93,-0.02,0.39,0.40,-0.11,0.15,
2.682,-0.93,-0.02,0.39,0.40,-0.11,0.15,
2.683,-1.08,0.09,0.32,0.40,-0.11,0.15,
2.683,-1.08,0.09,0.32,0.40,-0.11,0.15,
2.691,-1.08,0.09,0.32,0.57,-0.05,0.30,
2.692,-1.08,0.09,0.32,0.57,-0.05,0.30,
2.693,-1.18,0.21,0.28,0.57,-0.05,0.30,
2.693,-1.18,0.21,0.28,0.57,-0.05,0.30,
2.702,-1.18,0.21,0.28,0.57,-0.05,0.30,
2.702,-1.18,0.21,0.28,0.57,-0.05,0.30,
2.703,-1.18,0.21,0.28,0.57,-0.05,0.30,
2.703,-1.18,0.21,0.28,0.57,-0.05,0.30,
2.711,-1.18,0.21,0.28,0.67,-0.02,0.63,
2.711,-1.18,0.21,0.28,0.67,-0.02,0.63,
2.712,-1.32,0.44,0.14,0.67,-0.02,0.63,
2.712,-1.32,0.44,0.14,0.67,-0.02,0.63,
2.72,-1.32,0.44,0.14,0.64,-0.02,0.76,
2.721,-1.32,0.44,0.14,0.64,-0.02,0.76,
2.722,-1.29,0.48,0.12,0.64,-0.02,0.76,
2.722,-1.29,0.48,0.12,0.64,-0.02,0.76,
2.73,-1.29,0.48,0.12,0.64,-0.02,0.76,
2.731,-1.29,0.48,0.12,0.64,-0.02,0.76,
2.731,-1.29,0.48,0.12,0.64,-0.02,0.76,
2.731,-1.29,0.48,0.12,0.64,-0.02,0.76,
2.739,-1.29,0.48,0.12,0.58,0.01,0.86,
2.74,-1.29,0.48,0.12,0.58,0.01,0.86,
2.74,-0.70,0.38,0.15,0.58,0.01,0.86,
2.741,-0.70,0.38,0.15,0.58,0.01,0.86,
2.749,-0.70,0.38,0.15,0.51,0.05,0.89,
2.75,-0.70,0.38,0.15,0.51,0.05,0.89,
2.75,-0.25,0.28,0.24,0.51,0.05,0.89,
2.751,-0.25,0.28,0.24,0.51,0.05,0.89,
2.758,-0.25,0.28,0.24,0.44,0.10,0.81,
2.759,-0.25,0.28,0.24,0.44,0.10,0.81,
2.759,0.23,0.17,0.29,0.44,0.10,0.81,
2.759,0.23,0.17,0.29,0.44,0.10,0.81,
2.767,0.23,0.17,0.29,0.40,0.13,0.60,
2.768,0.23,0.17,0.29,0.40,0.13,0.60,
2.769,0.66,0.14,0.30,0.40,0.13,0.60,
2.769,0.66,0.14,0.30,0.40,0.13,0.60,
2.777,0.66,0.14,0.30,0.38,0.16,0.26,
2.778,0.66,0.14,0.30,0.38,0.16,0.26,
2.779,0.88,0.16,0.30,0.38,0.16,0.26,
2.78,0.88,0.16,0.30,0.38,0.16,0.26,
2.786,0.88,0.16,0.30,0.37,0.18,-0.14,
2.787,0.88,0.16,0.30,0.37,0.18,-0.14,
2.788,0.77,0.18,0.37,0.37,0.18,-0.14,
2.789,0.77,0.18,0.37,0.37,0.18,-0.14,
2.796,0.77,0.18,0.37,0.36,0.21,-0.53,
2.797,0.77,0.18,0.37,0.36,0.21,-0.53,
2.798,0.44,0.22,0.51,0.36,0.21,-0.53,
2.798,0.44,0.22,0.51,0.36,0.21,-0.53,
2.806,0.44,0.22,0.51,0.35,0.23,-0.82,
2.807,0.44,0.22,0.51,0.35,0.23,-0.82,
2.808,-0.05,0.22,0.66,0.35,0.23,-0.82,
2.809,-0.05,0.22,0.66,0.35,0.23,-0.82,
2.815,-0.05,0.22,0.66,0.36,0.25,-0.96,
2.816,-0.05,0.22,0.66,0.36,0.25,-0.96,
2.816,-0.58,0.18,0.79,0.36,0.25,-0.96,
2.816,-0.58,0.18,0.79,0.36,0.25,-0.96,
2.825,-0.58,0.18,0.79,0.40,0.26,-0.91,
2.826,-0.58,0.18,0.79,0.40,0.26,-0.91,
2.826,-0.98,0.13,0.81,0.40,0.26,-0.91,
2.827,-0.98,0.13,0.81,0.40,0.26,-0.91,
2.836,-0.98,0.13,0.81,0.45,0.28,-0.70,
2.837,-0.98,0.13,0.81,0.45,0.28,-0.70,
2.837,-1.24,0.07,0.65,0.45,0.28,-0.70,
2.838,-1.24,0.07,0.65,0.45,0.28,-0.70,
2.844,-1.24,0.07,0.65,0.49,0.29,-0.37,
2.844,-1.24,0.07,0.65,0.49,0.29,-0.37,
2.845,-1.36,0.03,0.42,0.49,0.29,-0.37,
2.845,-1.36,0.03,0.42,0.49,0.29,-0.37,
2.853,-1.36,0.03,0.42,0.49,0.29,-0.00,
2.855,-1.36,0.03,0.42,0.49,0.29,-0.00,
2.855,-1.28,0.03,0.17,0.49,0.29,-0.00,
2.855,-1.28,0.03,0.17,0.49,0.29,-0.00,
2.863,-1.28,0.03,0.17,0.42,0.26,0.33,
2.863,-1.28,0.03,0.17,0.42,0.26,0.33,
2.863,-1.00,0.09,-0.07,0.42,0.26,0.33,
2.864,-1.00,0.09,-0.07,0.42,0.26,0.33,
2.872,-1.00,0.09,-0.07,0.28,0.21,0.58,
2.873,-1.00,0.09,-0.07,0.28,0.21,0.58,
2.873,-0.64,0.17,-0.25,0.28,0.21,0.58,
2.874,-0.64,0.17,-0.25,0.28,0.21,0.58,
2.882,-0.64,0.17,-0.25,0.09,0.14,0.71,
2.882,-0.64,0.17,-0.25,0.09,0.14,0.71,
2.883,-0.26,0.25,-0.36,0.09,0.14,0.71,
2.883,-0.26,0.25,-0.36,0.09,0.14,0.71,
2.891,-0.26,0.25,-0.36,-0.11,0.07,0.71,
2.892,-0.26,0.25,-0.36,-0.11,0.07,0.71,
2.893,0.04,0.27,-0.44,-0.11,0.07,0.71,
2.893,0.04,0.27,-0.44,-0.11,0.07,0.71,
2.902,0.04,0.27,-0.44,-0.11,0.07,0.71,
2.903,0.04,0.27,-0.44,-0.11,0.07,0.71,
2.903,0.04,0.27,-0.44,-0.11,0.07,0.71,
2.904,0.04,0.27,-0.44,-0.11,0.07,0.71,
2.911,0.04,0.27,-0.44,-0.42,0.00,0.37,
2.912,0.04,0.27,-0.44,-0.42,0.00,0.37,
2.912,0.39,0.14,-0.48,-0.42,0.00,0.37,
2.913,0.39,0.14,-0.48,-0.42,0.00,0.37,
2.92,0.39,0.14,-0.48,-0.42,0.00,0.37,
2.921,0.39,0.14,-0.48,-0.42,0.00,0.37,
2.921,0.39,0.14,-0.48,-0.42,0.00,0.37,
2.921,0.39,0.14,-0.48,-0.42,0.00,0.37,
2.93,0.39,0.14,-0.48,-0.51,0.01,0.10,
2.931,0.39,0.14,-0.48,-0.51,0.01,0.10,
2.931,0.58,-0.04,-0.49,-0.51,0.01,0.10,
2.931,0.58,-0.04,-0.49,-0.51,0.01,0.10,
2.939,0.58,-0.04,-0.49,-0.56,0.03,-0.17,
2.94,0.58,-0.04,-0.49,-0.56,0.03,-0.17,
2.941,0.71,-0.06,-0.54,-0.56,0.03,-0.17,
2.942,0.71,-0.06,-0.54,-0.56,0.03,-0.17,
2.95,0.71,-0.06,-0.54,-0.58,0.05,-0.40,
2.95,0.71,-0.06,-0.54,-0.58,0.05,-0.40,
2.951,0.83,-0.06,-0.58,-0.58,0.05,-0.40,
2.951,0.83,-0.06,-0.58,-0.58,0.05,-0.40,
2.958,0.83,-0.06,-0.58,-0.58,0.06,-0.59,
2.958,0.83,-0.06,-0.58,-0.58,0.06,-0.59,
2.959,0.95,-0.05,-0.68,-0.58,0.06,-0.59,
2.959,0.95,-0.05,-0.68,-0.58,0.06,-0.59,
2.967,0.95,-0.05,-0.68,-0.58,0.06,-0.74,
2.968,0.95,-0.05,-0.68,-0.58,0.06,-0.74,
2.969,1.01,-0.04,-0.79,-0.58,0.06,-0.74,
2.969,1.01,-0.04,-0.79,-0.58,0.06,-0.74,
2.977,1.01,-0.04,-0.79,-0.57,0.04,-0.84,
2.978,1.01,-0.04,-0.79,-0.57,0.04,-0.84,
2.979,1.00,-0.07,-0.91,-0.57,0.04,-0.84,
2.979,1.00,-0.07,-0.91,-0.57,0.04,-0.84,
2.987,1.00,-0.07,-0.91,-0.57,0.02,-0.91,
2.988,1.00,-0.07,-0.91,-0.57,0.02,-0.91,
2.989,0.99,-0.11,-1.03,-0.57,0.02,-0.91,
2.989,0.99,-0.11,-1.03,-0.57,0.02,-0.91,
2.996,0.99,-0.11,-1.03,-0.59,-0.01,-0.94,
2.997,0.99,-0.11,-1.03,-0.59,-0.01,-0.94,
2.998,0.92,-0.15,-1.08,-0.59,-0.01,-0.94,
2.998,0.92,-0.15,-1.08,-0.59,-0.01,-0.94,
3.006,0.92,-0.15,-1.08,-0.62,-0.05,-0.92,
3.007,0.92,-0.15,-1.08,-0.62,-0.05,-0.92,
3.007,0.82,-0.20,-1.08,-0.62,-0.05,-0.92,
3.008,0.82,-0.20,-1.08,-0.62,-0.05,-0.92,
3.016,0.82,-0.20,-1.08,-0.65,-0.08,-0.86,
3.017,0.82,-0.20,-1.08,-0.65,-0.08,-0.86,
3.018,0.72,-0.22,-0.99,-0.65,-0.08,-0.86,
3.018,0.72,-0.22,-0.99,-0.65,-0.08,-0.86,
3.025,0.72,-0.22,-0.99,-0.66,-0.11,-0.77,
3.026,0.72,-0.22,-0.99,-0.66,-0.11,-0.77,
3.026,0.57,-0.21,-0.90,-0.66,-0.11,-0.77,
3.027,0.57,-0.21,-0.90,-0.66,-0.11,-0.77,
3.034,0.57,-0.21,-0.90,-0.65,-0.12,-0.66,
3.035,0.57,-0.21,-0.90,-0.65,-0.12,-0.66,
3.035,0.43,-0.18,-0.82,-0.65,-0.12,-0.66,
3.036,0.43,-0.18,-0.82,-0.65,-0.12,-0.66,
3.044,0.43,-0.18,-0.82,-0.59,-0.12,-0.52,
3.044,0.43,-0.18,-0.82,-0.59,-0.12,-0.52,
3.045,0.36,-0.12,-0.78,-0.59,-0.12,-0.52,
3.046,0.36,-0.12,-0.78,-0.59,-0.12,-0.52,
3.055,0.36,-0.12,-0.78,-0.51,-0.11,-0.37,
3.057,0.36,-0.12,-0.78,-0.51,-0.11,-0.37,
3.057,0.36,-0.10,-0.78,-0.51,-0.11,-0.37,
3.058,0.36,-0.10,-0.78,-0.51,-0.11,-0.37,
3.062,0.36,-0.10,-0.78,-0.41,-0.08,-0.22,
3.063,0.36,-0.10,-0.78,-0.41,-0.08,-0.22,
3.063,0.41,-0.07,-0.75,-0.41,-0.08,-0.22,
3.064,0.41,-0.07,-0.75,-0.41,-0.08,-0.22,
3.072,0.41,-0.07,-0.75,-0.32,-0.04,-0.10,
3.073,0.41,-0.07,-0.75,-0.32,-0.04,-0.10,
3.073,0.57,-0.06,-0.61,-0.32,-0.04,-0.10,
3.073,0.57,-0.06,-0.61,-0.32,-0.04,-0.10,
3.082,0.57,-0.06,-0.61,-0.23,-0.01,-0.02,
3.082,0.57,-0.06,-0.61,-0.23,-0.01,-0.02,
3.083,0.75,-0.06,-0.20,-0.23,-0.01,-0.02,
3.083,0.75,-0.06,-0.20,-0.23,-0.01,-0.02,
3.091,0.75,-0.06,-0.20,-0.14,0.01,0.00,
3.092,0.75,-0.06,-0.20,-0.14,0.01,0.00,
3.093,0.72,-0.02,-0.04,-0.14,0.01,0.00,
3.094,0.72,-0.02,-0.04,-0.14,0.01,0.00,
3.102,0.72,-0.02,-0.04,-0.02,0.03,-0.03,
3.104,0.72,-0.02,-0.04,-0.02,0.03,-0.03,
3.105,0.51,-0.01,-0.03,-0.02,0.03,-0.03,
3.105,0.51,-0.01,-0.03,-0.02,0.03,-0.03,
3.111,0.51,-0.01,-0.03,0.14,0.06,-0.08,
3.111,0.51,-0.01,-0.03,0.14,0.06,-0.08,
3.112,0.17,0.03,-0.11,0.14,0.06,-0.08,
3.112,0.17,0.03,-0.11,0.14,0.06,-0.08,
3.12,0.17,0.03,-0.11,0.14,0.06,-0.08,
3.12,0.17,0.03,-0.11,0.14,0.06,-0.08,
3.121,0.17,0.03,-0.11,0.14,0.06,-0.08,
3.121,0.17,0.03,-0.11,0.14,0.06,-0.08,
3.129,0.17,0.03,-0.11,0.29,0.09,-0.11,
3.13,0.17,0.03,-0.11,0.29,0.09,-0.11,
3.13,-0.46,0.08,-0.66,0.29,0.09,-0.11,
3.131,-0.46,0.08,-0.66,0.29,0.09,-0.11,
3.139,-0.46,0.08,-0.66,0.37,0.09,-0.05,
3.14,-0.46,0.08,-0.66,0.37,0.09,-0.05,
3.14,-0.49,0.10,-0.66,0.37,0.09,-0.05,
3.141,-0.49,0.10,-0.66,0.37,0.09,-0.05,
3.148,-0.49,0.10,-0.66,0.35,0.06,0.11,
3.149,-0.49,0.10,-0.66,0.35,0.06,0.11,
3.149,-0.44,0.10,-0.66,0.35,0.06,0.11,
3.149,-0.44,0.10,-0.66,0.35,0.06,0.11,
3.158,-0.44,0.10,-0.66,0.23,-0.01,0.34,
3.158,-0.44,0.10,-0.66,0.23,-0.01,0.34,
3.159,-0.38,0.08,-0.57,0.23,-0.01,0.34,
3.159,-0.38,0.08,-0.57,0.23,-0.01,0.34,
3.167,-0.38,0.08,-0.57,0.08,-0.06,0.54,
3.168,-0.38,0.08,-0.57,0.08,-0.06,0.54,
3.168,-0.27,0.10,-0.43,0.08,-0.06,0.54,
3.168,-0.27,0.10,-0.43,0.08,-0.06,0.54,
3.177,-0.27,0.10,-0.43,-0.03,-0.07,0.65,
3.178,-0.27,0.10,-0.43,-0.03,-0.07,0.65,
3.178,-0.18,0.11,-0.28,-0.03,-0.07,0.65,
3.178,-0.18,0.11,-0.28,-0.03,-0.07,0.65,
3.186,-0.18,0.11,-0.28,-0.08,-0.06,0.67,
3.187,-0.18,0.11,-0.28,-0.08,-0.06,0.67,
3.187,-0.09,0.14,-0.15,-0.08,-0.06,0.67,
3.188,-0.09,0.14,-0.15,-0.08,-0.06,0.67,
3.196,-0.09,0.14,-0.15,-0.08,-0.04,0.61,
3.197,-0.09,0.14,-0.15,-0.08,-0.04,0.61,
3.197,0.02,0.18,-0.10,-0.08,-0.04,0.61,
3.197,0.02,0.18,-0.10,-0.08,-0.04,0.61,
3.205,0.02,0.18,-0.10,-0.03,-0.02,0.51,
3.206,0.02,0.18,-0.10,-0.03,-0.02,0.51,
3.207,0.09,0.22,-0.08,-0.03,-0.02,0.51,
3.208,0.09,0.22,-0.08,-0.03,-0.02,0.51,
3.217,0.09,0.22,-0.08,0.03,-0.00,0.37,
3.218,0.09,0.22,-0.08,0.03,-0.00,0.37,
3.218,0.15,0.26,-0.09,0.03,-0.00,0.37,
3.219,0.15,0.26,-0.09,0.03,-0.00,0.37,
3.224,0.15,0.26,-0.09,0.09,0.02,0.23,
3.225,0.15,0.26,-0.09,0.09,0.02,0.23,
3.226,0.20,0.26,-0.10,0.09,0.02,0.23,
3.226,0.20,0.26,-0.10,0.09,0.02,0.23,
3.234,0.20,0.26,-0.10,0.13,0.03,0.09,
3.235,0.20,0.26,-0.10,0.13,0.03,0.09,
3.235,0.21,0.26,-0.11,0.13,0.03,0.09,
3.236,0.21,0.26,-0.11,0.13,0.03,0.09,
3.243,0.21,0.26,-0.11,0.14,0.04,-0.04,
3.244,0.21,0.26,-0.11,0.14,0.04,-0.04,
3.245,0.17,0.22,-0.12,0.14,0.04,-0.04,
3.246,0.17,0.22,-0.12,0.14,0.04,-0.04,
3.256,0.17,0.22,-0.12,0.13,0.03,-0.14,
3.257,0.17,0.22,-0.12,0.13,0.03,-0.14,
3.261,0.08,0.19,-0.14,0.13,0.03,-0.14,
3.262,0.08,0.19,-0.14,0.13,0.03,-0.14,
3.263,0.08,0.19,-0.14,0.10,0.01,-0.21,
3.263,0.08,0.19,-0.14,0.10,0.01,-0.21,
3.263,-0.03,0.15,-0.16,0.10,0.01,-0.21,
3.264,-0.03,0.15,-0.16,0.10,0.01,-0.21,
3.272,-0.03,0.15,-0.16,0.06,-0.02,-0.25,
3.273,-0.03,0.15,-0.16,0.06,-0.02,-0.25,
3.273,-0.12,0.12,-0.15,0.06,-0.02,-0.25,
3.274,-0.12,0.12,-0.15,0.06,-0.02,-0.25,
3.281,-0.12,0.12,-0.15,0.01,-0.05,-0.24,
3.282,-0.12,0.12,-0.15,0.01,-0.05,-0.24,
3.282,-0.17,0.11,-0.13,0.01,-0.05,-0.24,
3.283,-0.17,0.11,-0.13,0.01,-0.05,-0.24,
3.291,-0.17,0.11,-0.13,-0.04,-0.08,-0.20,
3.291,-0.17,0.11,-0.13,-0.04,-0.08,-0.20,
3.292,-0.17,0.09,-0.12,-0.04,-0.08,-0.20,
3.292,-0.17,0.09,-0.12,-0.04,-0.08,-0.20,
3.302,-0.17,0.09,-0.12,-0.09,-0.12,-0.14,
3.303,-0.17,0.09,-0.12,-0.09,-0.12,-0.14,
3.303,-0.14,0.10,-0.12,-0.09,-0.12,-0.14,
3.304,-0.14,0.10,-0.12,-0.09,-0.12,-0.14,
3.311,-0.14,0.10,-0.12,-0.12,-0.17,-0.08,
3.312,-0.14,0.10,-0.12,-0.12,-0.17,-0.08,
3.312,-0.12,0.11,-0.11,-0.12,-0.17,-0.08,
3.313,-0.12,0.11,-0.11,-0.12,-0.17,-0.08,
3.32,-0.12,0.11,-0.11,-0.12,-0.17,-0.08,
3.32,-0.12,0.11,-0.11,-0.12,-0.17,-0.08,
3.321,-0.12,0.11,-0.11,-0.12,-0.17,-0.08,
3.322,-0.12,0.11,-0.11,-0.12,-0.17,-0.08,
3.329,-0.12,0.11,-0.11,-0.15,-0.20,-0.04,
3.33,-0.12,0.11,-0.11,-0.15,-0.20,-0.04,
3.33,-0.13,0.17,-0.14,-0.15,-0.20,-0.04,
3.331,-0.13,0.17,-0.14,-0.15,-0.20,-0.04,
3.339,-0.13,0.17,-0.14,-0.17,-0.21,-0.01,
3.339,-0.13,0.17,-0.14,-0.17,-0.21,-0.01,
3.34,-0.16,0.21,-0.14,-0.17,-0.21,-0.01,
3.34,-0.16,0.21,-0.14,-0.17,-0.21,-0.01,
3.349,-0.16,0.21,-0.14,-0.17,-0.19,0.01,
3.35,-0.16,0.21,-0.14,-0.17,-0.19,0.01,
3.35,-0.19,0.25,-0.12,-0.17,-0.19,0.01,
3.351,-0.19,0.25,-0.12,-0.17,-0.19,0.01,
3.358,-0.19,0.25,-0.12,-0.18,-0.17,0.02,
3.358,-0.19,0.25,-0.12,-0.18,-0.17,0.02,
3.359,-0.22,0.26,-0.09,-0.18,-0.17,0.02,
3.359,-0.22,0.26,-0.09,-0.18,-0.17,0.02,
3.367,-0.22,0.26,-0.09,-0.17,-0.16,0.05,
3.368,-0.22,0.26,-0.09,-0.17,-0.16,0.05,
3.368,-0.22,0.26,-0.04,-0.17,-0.16,0.05,
3.368,-0.22,0.26,-0.04,-0.17,-0.16,0.05,
3.377,-0.22,0.26,-0.04,-0.16,-0.17,0.07,
3.378,-0.22,0.26,-0.04,-0.16,-0.17,0.07,
3.378,-0.20,0.26,-0.01,-0.16,-0.17,0.07,
3.379,-0.20,0.26,-0.01,-0.16,-0.17,0.07,
3.386,-0.20,0.26,-0.01,-0.14,-0.16,0.10,
3.387,-0.20,0.26,-0.01,-0.14,-0.16,0.10,
3.388,-0.18,0.29,-0.00,-0.14,-0.16,0.10,
3.389,-0.18,0.29,-0.00,-0.14,-0.16,0.10,
3.396,-0.18,0.29,-0.00,-0.10,-0.14,0.11,
3.397,-0.18,0.29,-0.00,-0.10,-0.14,0.11,
3.397,-0.16,0.33,-0.01,-0.10,-0.14,0.11,
3.398,-0.16,0.33,-0.01,-0.10,-0.14,0.11,
3.405,-0.16,0.33,-0.01,-0.07,-0.12,0.12,
3.406,-0.16,0.33,-0.01,-0.07,-0.12,0.12,
3.407,-0.17,0.37,0.00,-0.07,-0.12,0.12,
3.407,-0.17,0.37,0.00,-0.07,-0.12,0.12,
3.415,-0.17,0.37,0.00,-0.03,-0.10,0.12,
3.415,-0.17,0.37,0.00,-0.03,-0.10,0.12,
3.416,-0.21,0.38,0.03,-0.03,-0.10,0.12,
3.416,-0.21,0.38,0.03,-0.03,-0.10,0.12,
3.424,-0.21,0.38,0.03,-0.01,-0.09,0.11,
3.425,-0.21,0.38,0.03,-0.01,-0.09,0.11,
3.425,-0.23,0.36,0.07,-0.01,-0.09,0.11,
3.426,-0.23,0.36,0.07,-0.01,-0.09,0.11,
3.437,-0.23,0.36,0.07,0.01,-0.08,0.11,
3.438,-0.23,0.36,0.07,0.01,-0.08,0.11,
3.439,-0.23,0.34,0.16,0.01,-0.08,0.11,
3.439,-0.23,0.34,0.16,0.01,-0.08,0.11,
3.445,-0.23,0.34,0.16,0.04,-0.06,0.12,
3.446,-0.23,0.34,0.16,0.04,-0.06,0.12,
3.446,-0.21,0.32,0.20,0.04,-0.06,0.12,
3.446,-0.21,0.32,0.20,0.04,-0.06,0.12,
3.465,-0.21,0.32,0.20,0.07,-0.05,0.12,
3.466,-0.21,0.32,0.20,0.07,-0.05,0.12,
3.466,-0.18,0.33,0.22,0.07,-0.05,0.12,
3.467,-0.18,0.33,0.22,0.07,-0.05,0.12,
3.467,-0.18,0.33,0.22,0.07,-0.05,0.12,
3.468,-0.18,0.33,0.22,0.07,-0.05,0.12,
3.468,-0.18,0.33,0.22,0.07,-0.05,0.12,
3.468,-0.18,0.33,0.22,0.07,-0.05,0.12,
3.472,-0.18,0.33,0.22,0.14,-0.01,0.12,
3.472,-0.18,0.33,0.22,0.14,-0.01,0.12,
3.473,-0.13,0.28,0.17,0.14,-0.01,0.12,
3.473,-0.13,0.28,0.17,0.14,-0.01,0.12,
3.483,-0.13,0.28,0.17,0.16,-0.00,0.10,
3.483,-0.13,0.28,0.17,0.16,-0.00,0.10,
3.484,-0.10,0.26,0.12,0.16,-0.00,0.10,
3.484,-0.10,0.26,0.12,0.16,-0.00,0.10,
3.491,-0.10,0.26,0.12,0.17,0.00,0.08,
3.491,-0.10,0.26,0.12,0.17,0.00,0.08,
3.492,-0.04,0.26,0.08,0.17,0.00,0.08,
3.493,-0.04,0.26,0.08,0.17,0.00,0.08,
3.502,-0.04,0.26,0.08,0.16,0.01,0.05,
3.503,-0.04,0.26,0.08,0.16,0.01,0.05,
3.504,0.04,0.27,0.07,0.16,0.01,0.05,
3.505,0.04,0.27,0.07,0.16,0.01,0.05,
3.51,0.04,0.27,0.07,0.16,0.01,0.05,
3.511,0.04,0.27,0.07,0.16,0.01,0.05,
3.513,0.04,0.27,0.07,0.16,0.01,0.05,
3.514,0.04,0.27,0.07,0.16,0.01,0.05,
3.519,0.04,0.27,0.07,0.14,0.04,0.02,
3.52,0.04,0.27,0.07,0.14,0.04,0.02,
3.521,0.14,0.26,0.09,0.14,0.04,0.02,
3.522,0.14,0.26,0.09,0.14,0.04,0.02,
3.53,0.14,0.26,0.09,0.12,0.07,-0.03,
3.53,0.14,0.26,0.09,0.12,0.07,-0.03,
3.531,0.12,0.22,0.09,0.12,0.07,-0.03,
3.531,0.12,0.22,0.09,0.12,0.07,-0.03,
3.539,0.12,0.22,0.09,0.10,0.10,-0.08,
3.539,0.12,0.22,0.09,0.10,0.10,-0.08,
3.54,0.07,0.19,0.05,0.10,0.10,-0.08,
3.54,0.07,0.19,0.05,0.10,0.10,-0.08,
3.549,0.07,0.19,0.05,0.08,0.10,-0.12,
3.55,0.07,0.19,0.05,0.08,0.10,-0.12,
3.55,0.02,0.18,-0.01,0.08,0.10,-0.12,
3.55,0.02,0.18,-0.01,0.08,0.10,-0.12,
3.558,0.02,0.18,-0.01,0.06,0.10,-0.14,
3.558,0.02,0.18,-0.01,0.06,0.10,-0.14,
3.559,-0.02,0.23,-0.11,0.06,0.10,-0.14,
3.559,-0.02,0.23,-0.11,0.06,0.10,-0.14,
3.567,-0.02,0.23,-0.11,0.03,0.10,-0.14,
3.568,-0.02,0.23,-0.11,0.03,0.10,-0.14,
3.568,-0.04,0.34,-0.21,0.03,0.10,-0.14,
3.569,-0.04,0.34,-0.21,0.03,0.10,-0.14,
3.577,-0.04,0.34,-0.21,-0.02,0.10,-0.12,
3.578,-0.04,0.34,-0.21,-0.02,0.10,-0.12,
3.579,-0.03,0.47,-0.25,-0.02,0.10,-0.12,
3.58,-0.03,0.47,-0.25,-0.02,0.10,-0.12,
3.586,-0.03,0.47,-0.25,-0.07,0.10,-0.08,
3.588,-0.03,0.47,-0.25,-0.07,0.10,-0.08,
3.589,-0.01,0.55,-0.26,-0.07,0.10,-0.08,
3.59,-0.01,0.55,-0.26,-0.07,0.10,-0.08,
3.596,-0.01,0.55,-0.26,-0.13,0.07,-0.04,
3.597,-0.01,0.55,-0.26,-0.13,0.07,-0.04,
3.598,0.02,0.54,-0.20,-0.13,0.07,-0.04,
3.599,0.02,0.54,-0.20,-0.13,0.07,-0.04,
3.605,0.02,0.54,-0.20,-0.17,0.04,0.00,
3.607,0.02,0.54,-0.20,-0.17,0.04,0.00,
3.607,0.05,0.42,-0.03,-0.17,0.04,0.00,
3.608,0.05,0.42,-0.03,-0.17,0.04,0.00,
3.616,0.05,0.42,-0.03,-0.19,0.03,0.03,
3.617,0.05,0.42,-0.03,-0.19,0.03,0.03,
3.618,0.10,0.18,0.18,-0.19,0.03,0.03,
3.618,0.10,0.18,0.18,-0.19,0.03,0.03,
3.624,0.10,0.18,0.18,-0.16,0.03,0.03,
3.625,0.10,0.18,0.18,-0.16,0.03,0.03,
3.626,0.21,-0.10,0.44,-0.16,0.03,0.03,
3.626,0.21,-0.10,0.44,-0.16,0.03,0.03,
3.634,0.21,-0.10,0.44,-0.09,0.05,0.01,
3.635,0.21,-0.10,0.44,-0.09,0.05,0.01,
3.636,0.34,-0.38,0.71,-0.09,0.05,0.01,
3.636,0.34,-0.38,0.71,-0.09,0.05,0.01,
3.643,0.34,-0.38,0.71,0.03,0.07,-0.04,
3.644,0.34,-0.38,0.71,0.03,0.07,-0.04,
3.645,0.50,-0.58,0.87,0.03,0.07,-0.04,
3.646,0.50,-0.58,0.87,0.03,0.07,-0.04,
3.655,0.50,-0.58,0.87,0.19,0.10,-0.13,
3.656,0.50,-0.58,0.87,0.19,0.10,-0.13,
3.657,0.60,-0.63,0.93,0.19,0.10,-0.13,
3.658,0.60,-0.63,0.93,0.19,0.10,-0.13,
3.663,0.60,-0.63,0.93,0.35,0.15,-0.25,
3.664,0.60,-0.63,0.93,0.35,0.15,-0.25,
3.664,0.58,-0.53,0.87,0.35,0.15,-0.25,
3.665,0.58,-0.53,0.87,0.35,0.15,-0.25,
3.672,0.58,-0.53,0.87,0.48,0.19,-0.37,
3.672,0.58,-0.53,0.87,0.48,0.19,-0.37,
3.673,0.40,-0.29,0.75,0.48,0.19,-0.37,
3.673,0.40,-0.29,0.75,0.48,0.19,-0.37,
3.683,0.40,-0.29,0.75,0.56,0.20,-0.45,
3.684,0.40,-0.29,0.75,0.56,0.20,-0.45,
3.685,0.08,-0.06,0.65,0.56,0.20,-0.45,
3.685,0.08,-0.06,0.65,0.56,0.20,-0.45,
3.692,0.08,-0.06,0.65,0.59,0.18,-0.47,
3.692,0.08,-0.06,0.65,0.59,0.18,-0.47,
3.693,-0.30,0.14,0.63,0.59,0.18,-0.47,
3.693,-0.30,0.14,0.63,0.59,0.18,-0.47,
3.703,-0.30,0.14,0.63,0.58,0.16,-0.39,
3.704,-0.30,0.14,0.63,0.58,0.16,-0.39,
3.704,-0.68,0.21,0.72,0.58,0.16,-0.39,
3.705,-0.68,0.21,0.72,0.58,0.16,-0.39,
3.711,-0.68,0.21,0.72,0.58,0.16,-0.39,
3.712,-0.68,0.21,0.72,0.58,0.16,-0.39,
3.712,-0.68,0.21,0.72,0.58,0.16,-0.39,
3.713,-0.68,0.21,0.72,0.58,0.16,-0.39,
3.72,-0.68,0.21,0.72,0.54,0.14,-0.22,
3.721,-0.68,0.21,0.72,0.54,0.14,-0.22,
3.722,-1.01,-0.05,1.04,0.54,0.14,-0.22,
3.723,-1.01,-0.05,1.04,0.54,0.14,-0.22,
3.729,-1.01,-0.05,1.04,0.51,0.13,0.03,
3.73,-1.01,-0.05,1.04,0.51,0.13,0.03,
3.731,-0.79,-0.27,1.21,0.51,0.13,0.03,
3.731,-0.79,-0.27,1.21,0.51,0.13,0.03,
3.738,-0.79,-0.27,1.21,0.51,0.13,0.28,
3.739,-0.79,-0.27,1.21,0.51,0.13,0.28,
3.74,-0.30,-0.43,1.26,0.51,0.13,0.28,
3.741,-0.30,-0.43,1.26,0.51,0.13,0.28,
3.754,-0.30,-0.43,1.26,0.54,0.14,0.47,
3.755,-0.30,-0.43,1.26,0.54,0.14,0.47,
3.756,1.44,-0.50,1.21,0.54,0.14,0.47,
3.757,1.44,-0.50,1.21,0.54,0.14,0.47,
3.758,1.44,-0.50,1.21,0.59,0.16,0.49,
3.758,1.44,-0.50,1.21,0.59,0.16,0.49,
3.759,1.71,-0.47,1.07,0.59,0.16,0.49,
3.759,1.71,-0.47,1.07,0.59,0.16,0.49,
3.768,1.71,-0.47,1.07,0.62,0.20,0.25,
3.769,1.71,-0.47,1.07,0.62,0.20,0.25,
3.77,2.10,-0.31,0.84,0.62,0.20,0.25,
3.77,2.10,-0.31,0.84,0.62,0.20,0.25,
3.777,2.10,-0.31,0.84,0.61,0.21,-0.21,
3.778,2.10,-0.31,0.84,0.61,0.21,-0.21,
3.778,2.48,-0.07,0.57,0.61,0.21,-0.21,
3.779,2.48,-0.07,0.57,0.61,0.21,-0.21,
3.787,2.48,-0.07,0.57,0.55,0.18,-0.75,
3.788,2.48,-0.07,0.57,0.55,0.18,-0.75,
3.788,2.75,0.23,0.34,0.55,0.18,-0.75,
3.788,2.75,0.23,0.34,0.55,0.18,-0.75,
3.796,2.75,0.23,0.34,0.43,0.10,-1.22,
3.797,2.75,0.23,0.34,0.43,0.10,-1.22,
3.798,2.86,0.47,0.13,0.43,0.10,-1.22,
3.798,2.86,0.47,0.13,0.43,0.10,-1.22,
3.807,2.86,0.47,0.13,0.27,-0.01,-1.59,
3.808,2.86,0.47,0.13,0.27,-0.01,-1.59,
3.809,2.80,0.66,-0.06,0.27,-0.01,-1.59,
3.809,2.80,0.66,-0.06,0.27,-0.01,-1.59,
3.816,2.80,0.66,-0.06,0.11,-0.12,-1.86,
3.817,2.80,0.66,-0.06,0.11,-0.12,-1.86,
3.818,2.53,0.75,-0.22,0.11,-0.12,-1.86,
3.818,2.53,0.75,-0.22,0.11,-0.12,-1.86,
3.825,2.53,0.75,-0.22,-0.06,-0.22,-2.01,
3.826,2.53,0.75,-0.22,-0.06,-0.22,-2.01,
3.826,2.05,0.71,-0.36,-0.06,-0.22,-2.01,
3.827,2.05,0.71,-0.36,-0.06,-0.22,-2.01,
3.834,2.05,0.71,-0.36,-0.21,-0.28,-2.02,
3.835,2.05,0.71,-0.36,-0.21,-0.28,-2.02,
3.836,1.42,0.65,-0.47,-0.21,-0.28,-2.02,
3.836,1.42,0.65,-0.47,-0.21,-0.28,-2.02,
3.843,1.42,0.65,-0.47,-0.36,-0.31,-1.87,
3.845,1.42,0.65,-0.47,-0.36,-0.31,-1.87,
3.846,-0.12,0.60,-0.57,-0.36,-0.31,-1.87,
3.847,-0.12,0.60,-0.57,-0.36,-0.31,-1.87,
3.859,-0.12,0.60,-0.57,-0.49,-0.33,-1.50,
3.86,-0.12,0.60,-0.57,-0.49,-0.33,-1.50,
3.861,-0.55,0.56,-0.68,-0.49,-0.33,-1.50,
3.861,-0.55,0.56,-0.68,-0.49,-0.33,-1.50,
3.862,-0.55,0.56,-0.68,-0.59,-0.35,-0.91,
3.863,-0.55,0.56,-0.68,-0.59,-0.35,-0.91,
3.863,-1.02,0.60,-0.81,-0.59,-0.35,-0.91,
3.863,-1.02,0.60,-0.81,-0.59,-0.35,-0.91,
3.872,-1.02,0.60,-0.81,-0.68,-0.38,-0.14,
3.872,-1.02,0.60,-0.81,-0.68,-0.38,-0.14,
3.873,-1.43,0.67,-0.98,-0.68,-0.38,-0.14,
3.873,-1.43,0.67,-0.98,-0.68,-0.38,-0.14,
3.883,-1.43,0.67,-0.98,-0.76,-0.40,0.66,
3.883,-1.43,0.67,-0.98,-0.76,-0.40,0.66,
3.884,-1.66,0.68,-1.10,-0.76,-0.40,0.66,
3.884,-1.66,0.68,-1.10,-0.76,-0.40,0.66,
3.891,-1.66,0.68,-1.10,-0.85,-0.43,1.37,
3.892,-1.66,0.68,-1.10,-0.85,-0.43,1.37,
3.892,-1.62,0.62,-1.10,-0.85,-0.43,1.37,
3.892,-1.62,0.62,-1.10,-0.85,-0.43,1.37,
3.902,-1.62,0.62,-1.10,-0.92,-0.46,1.93,
3.903,-1.62,0.62,-1.10,-0.92,-0.46,1.93,
3.904,-1.36,0.50,-1.00,-0.92,-0.46,1.93,
3.905,-1.36,0.50,-1.00,-0.92,-0.46,1.93,
3.91,-1.36,0.50,-1.00,-0.92,-0.46,1.93,
3.91,-1.36,0.50,-1.00,-0.92,-0.46,1.93,
3.911,-1.36,0.50,-1.00,-0.92,-0.46,1.93,
3.912,-1.36,0.50,-1.00,-0.92,-0.46,1.93,
3.919,-1.36,0.50,-1.00,-0.98,-0.47,2.29,
3.921,-1.36,0.50,-1.00,-0.98,-0.47,2.29,
3.921,-0.42,0.21,-0.54,-0.98,-0.47,2.29,
3.922,-0.42,0.21,-0.54,-0.98,-0.47,2.29,
3.93,-0.42,0.21,-0.54,-0.97,-0.44,2.40,
3.931,-0.42,0.21,-0.54,-0.97,-0.44,2.40,
3.932,0.06,0.10,-0.36,-0.97,-0.44,2.40,
3.933,0.06,0.10,-0.36,-0.97,-0.44,2.40,
3.939,0.06,0.10,-0.36,-0.85,-0.36,2.23,
3.94,0.06,0.10,-0.36,-0.85,-0.36,2.23,
3.94,0.50,0.03,-0.24,-0.85,-0.36,2.23,
3.941,0.50,0.03,-0.24,-0.85,-0.36,2.23,
3.948,0.50,0.03,-0.24,-0.64,-0.25,1.81,
3.949,0.50,0.03,-0.24,-0.64,-0.25,1.81,
3.949,0.85,-0.07,-0.15,-0.64,-0.25,1.81,
3.95,0.85,-0.07,-0.15,-0.64,-0.25,1.81,
3.958,0.85,-0.07,-0.15,-0.38,-0.12,1.23,
3.959,0.85,-0.07,-0.15,-0.38,-0.12,1.23,
3.959,1.13,-0.19,-0.06,-0.38,-0.12,1.23,
3.959,1.13,-0.19,-0.06,-0.38,-0.12,1.23,
3.969,1.13,-0.19,-0.06,-0.13,-0.01,0.62,
3.97,1.13,-0.19,-0.06,-0.13,-0.01,0.62,
3.97,1.32,-0.33,-0.03,-0.13,-0.01,0.62,
3.97,1.32,-0.33,-0.03,-0.13,-0.01,0.62,
3.977,1.32,-0.33,-0.03,0.07,0.07,0.06,
3.977,1.32,-0.33,-0.03,0.07,0.07,0.06,
3.977,1.38,-0.50,-0.09,0.07,0.07,0.06,
3.978,1.38,-0.50,-0.09,0.07,0.07,0.06,
3.986,1.38,-0.50,-0.09,0.22,0.12,-0.43,
3.987,1.38,-0.50,-0.09,0.22,0.12,-0.43,
3.987,1.37,-0.62,-0.27,0.22,0.12,-0.43,
3.987,1.37,-0.62,-0.27,0.22,0.12,-0.43,
3.996,1.37,-0.62,-0.27,0.30,0.15,-0.80,
3.997,1.37,-0.62,-0.27,0.30,0.15,-0.80,
3.997,1.37,-0.67,-0.57,0.30,0.15,-0.80,
3.998,1.37,-0.67,-0.57,0.30,0.15,-0.80,
4.006,1.37,-0.67,-0.57,0.30,0.15,-1.05,
4.007,1.37,-0.67,-0.57,0.30,0.15,-1.05,
4.007,1.42,-0.68,-0.90,0.30,0.15,-1.05,
4.007,1.42,-0.68,-0.90,0.30,0.15,-1.05,
4.016,1.42,-0.68,-0.90,0.22,0.14,-1.20,
4.017,1.42,-0.68,-0.90,0.22,0.14,-1.20,
4.018,1.58,-0.68,-1.22,0.22,0.14,-1.20,
4.018,1.58,-0.68,-1.22,0.22,0.14,-1.20,
4.025,1.58,-0.68,-1.22,0.07,0.12,-1.27,
4.026,1.58,-0.68,-1.22,0.07,0.12,-1.27,
4.027,1.83,-0.71,-1.49,0.07,0.12,-1.27,
4.027,1.83,-0.71,-1.49,0.07,0.12,-1.27,
4.033,1.83,-0.71,-1.49,-0.14,0.09,-1.30,
4.034,1.83,-0.71,-1.49,-0.14,0.09,-1.30,
4.035,2.16,-0.73,-1.72,-0.14,0.09,-1.30,
4.035,2.16,-0.73,-1.72,-0.14,0.09,-1.30,
4.044,2.16,-0.73,-1.72,-0.39,0.05,-1.35,
4.044,2.16,-0.73,-1.72,-0.39,0.05,-1.35,
4.045,2.52,-0.70,-1.89,-0.39,0.05,-1.35,
4.045,2.52,-0.70,-1.89,-0.39,0.05,-1.35,
4.053,2.52,-0.70,-1.89,-0.63,0.00,-1.43,
4.054,2.52,-0.70,-1.89,-0.63,0.00,-1.43,
4.055,2.91,-0.63,-2.05,-0.63,0.00,-1.43,
4.055,2.91,-0.63,-2.05,-0.63,0.00,-1.43,
4.063,2.91,-0.63,-2.05,-0.84,-0.05,-1.55,
4.064,2.91,-0.63,-2.05,-0.84,-0.05,-1.55,
4.064,3.30,-0.59,-2.19,-0.84,-0.05,-1.55,
4.064,3.30,-0.59,-2.19,-0.84,-0.05,-1.55,
4.072,3.30,-0.59,-2.19,-1.02,-0.12,-1.72,
4.073,3.30,-0.59,-2.19,-1.02,-0.12,-1.72,
4.073,3.64,-0.66,-2.22,-1.02,-0.12,-1.72,
4.073,3.64,-0.66,-2.22,-1.02,-0.12,-1.72,
4.083,3.64,-0.66,-2.22,-1.16,-0.19,-1.91,
4.084,3.64,-0.66,-2.22,-1.16,-0.19,-1.91,
4.085,3.83,-0.92,-2.14,-1.16,-0.19,-1.91,
4.085,3.83,-0.92,-2.14,-1.16,-0.19,-1.91,
4.092,3.83,-0.92,-2.14,-1.24,-0.27,-2.11,
4.092,3.83,-0.92,-2.14,-1.24,-0.27,-2.11,
4.093,3.83,-1.38,-1.93,-1.24,-0.27,-2.11,
4.093,3.83,-1.38,-1.93,-1.24,-0.27,-2.11,
4.102,3.83,-1.38,-1.93,-1.26,-0.32,-2.27,
4.104,3.83,-1.38,-1.93,-1.26,-0.32,-2.27,
4.104,3.58,-1.94,-1.63,-1.26,-0.32,-2.27,
4.105,3.58,-1.94,-1.63,-1.26,-0.32,-2.27,
4.11,3.58,-1.94,-1.63,-1.26,-0.32,-2.27,
4.111,3.58,-1.94,-1.63,-1.26,-0.32,-2.27,
4.112,3.58,-1.94,-1.63,-1.26,-0.32,-2.27,
4.112,3.58,-1.94,-1.63,-1.26,-0.32,-2.27,
4.119,3.58,-1.94,-1.63,-1.21,-0.34,-2.34,
4.12,3.58,-1.94,-1.63,-1.21,-0.34,-2.34,
4.121,2.51,-3.03,-1.53,-1.21,-0.34,-2.34,
4.122,2.51,-3.03,-1.53,-1.21,-0.34,-2.34,
4.129,2.51,-3.03,-1.53,-1.09,-0.34,-2.26,
4.13,2.51,-3.03,-1.53,-1.09,-0.34,-2.26,
4.13,1.85,-3.36,-1.90,-1.09,-0.34,-2.26,
4.131,1.85,-3.36,-1.90,-1.09,-0.34,-2.26,
4.139,1.85,-3.36,-1.90,-0.94,-0.30,-1.96,
4.14,1.85,-3.36,-1.90,-0.94,-0.30,-1.96,
4.141,1.28,-3.51,-3.66,-0.94,-0.30,-1.96,
4.141,1.28,-3.51,-3.66,-0.94,-0.30,-1.96,
4.154,1.28,-3.51,-3.66,-0.86,-0.26,-1.47,
4.155,1.28,-3.51,-3.66,-0.86,-0.26,-1.47,
4.155,0.85,-3.50,-3.92,-0.86,-0.26,-1.47,
4.156,0.85,-3.50,-3.92,-0.86,-0.26,-1.47,
4.158,0.85,-3.50,-3.92,-0.95,-0.23,-0.88,
4.159,0.85,-3.50,-3.92,-0.95,-0.23,-0.88,
4.159,0.54,-3.38,-4.37,-0.95,-0.23,-0.88,
4.159,0.54,-3.38,-4.37,-0.95,-0.23,-0.88,
4.167,0.54,-3.38,-4.37,-1.21,-0.22,-0.31,
4.167,0.54,-3.38,-4.37,-1.21,-0.22,-0.31,
4.168,0.21,-3.14,-4.83,-1.21,-0.22,-0.31,
4.168,0.21,-3.14,-4.83,-1.21,-0.22,-0.31,
4.177,0.21,-3.14,-4.83,-1.55,-0.23,0.19,
4.178,0.21,-3.14,-4.83,-1.55,-0.23,0.19,
4.178,-0.17,-2.84,-5.22,-1.55,-0.23,0.19,
4.179,-0.17,-2.84,-5.22,-1.55,-0.23,0.19,
4.187,-0.17,-2.84,-5.22,-1.86,-0.23,0.59,
4.189,-0.17,-2.84,-5.22,-1.86,-0.23,0.59,
4.189,-0.58,-2.54,-5.33,-1.86,-0.23,0.59,
4.19,-0.58,-2.54,-5.33,-1.86,-0.23,0.59,
4.195,-0.58,-2.54,-5.33,-2.12,-0.23,0.90,
4.196,-0.58,-2.54,-5.33,-2.12,-0.23,0.90,
4.197,-1.04,-2.26,-4.99,-2.12,-0.23,0.90,
4.197,-1.04,-2.26,-4.99,-2.12,-0.23,0.90,
4.206,-1.04,-2.26,-4.99,-2.30,-0.23,1.16,
4.207,-1.04,-2.26,-4.99,-2.30,-0.23,1.16,
4.208,-1.49,-2.01,-2.69,-2.30,-0.23,1.16,
4.209,-1.49,-2.01,-2.69,-2.30,-0.23,1.16,
4.215,-1.49,-2.01,-2.69,-2.33,-0.23,1.39,
4.216,-1.49,-2.01,-2.69,-2.33,-0.23,1.39,
4.217,-1.97,-1.85,-0.67,-2.33,-0.23,1.39,
4.217,-1.97,-1.85,-0.67,-2.33,-0.23,1.39,
4.225,-1.97,-1.85,-0.67,-2.07,-0.24,1.61,
4.225,-1.97,-1.85,-0.67,-2.07,-0.24,1.61,
4.226,-2.44,-1.73,1.22,-2.07,-0.24,1.61,
4.227,-2.44,-1.73,1.22,-2.07,-0.24,1.61,
4.234,-2.44,-1.73,1.22,-1.44,-0.24,1.81,
4.235,-2.44,-1.73,1.22,-1.44,-0.24,1.81,
4.236,-2.81,-1.65,2.93,-1.44,-0.24,1.81,
4.237,-2.81,-1.65,2.93,-1.44,-0.24,1.81,
4.244,-2.81,-1.65,2.93,-0.44,-0.19,2.03,
4.245,-2.81,-1.65,2.93,-0.44,-0.19,2.03,
4.245,-3.02,-1.63,3.45,-0.44,-0.19,2.03,
4.246,-3.02,-1.63,3.45,-0.44,-0.19,2.03,
4.255,-3.02,-1.63,3.45,0.77,-0.06,2.23,
4.256,-3.02,-1.63,3.45,0.77,-0.06,2.23,
4.257,-3.07,-1.67,4.97,0.77,-0.06,2.23,
4.257,-3.07,-1.67,4.97,0.77,-0.06,2.23,
4.263,-3.07,-1.67,4.97,1.99,0.17,2.37,
4.264,-3.07,-1.67,4.97,1.99,0.17,2.37,
4.265,-3.04,-1.85,5.35,1.99,0.17,2.37,
4.265,-3.04,-1.85,5.35,1.99,0.17,2.37,
4.272,-3.04,-1.85,5.35,3.11,0.51,2.40,
4.273,-3.04,-1.85,5.35,3.11,0.51,2.40,
4.273,-3.01,-2.17,5.60,3.11,0.51,2.40,
4.274,-3.01,-2.17,5.60,3.11,0.51,2.40,
4.282,-3.01,-2.17,5.60,4.02,0.92,2.27,
4.283,-3.01,-2.17,5.60,4.02,0.92,2.27,
4.283,-2.97,-2.56,5.52,4.02,0.92,2.27,
4.283,-2.97,-2.56,5.52,4.02,0.92,2.27,
4.291,-2.97,-2.56,5.52,4.63,1.35,2.00,
4.292,-2.97,-2.56,5.52,4.63,1.35,2.00,
4.292,-2.82,-2.86,3.92,4.63,1.35,2.00,
4.293,-2.82,-2.86,3.92,4.63,1.35,2.00,
4.302,-2.82,-2.86,3.92,4.88,1.71,1.64,
4.304,-2.82,-2.86,3.92,4.88,1.71,1.64,
4.305,-2.45,-2.96,1.97,4.88,1.71,1.64,
4.305,-2.45,-2.96,1.97,4.88,1.71,1.64,
4.31,-2.45,-2.96,1.97,4.88,1.71,1.64,
4.31,-2.45,-2.96,1.97,4.88,1.71,1.64,
4.311,-2.45,-2.96,1.97,4.88,1.71,1.64,
4.311,-2.45,-2.96,1.97,4.88,1.71,1.64,
4.319,-2.45,-2.96,1.97,4.67,1.89,1.27,
4.321,-2.45,-2.96,1.97,4.67,1.89,1.27,
4.322,-1.28,-2.41,-1.75,4.67,1.89,1.27,
4.323,-1.28,-2.41,-1.75,4.67,1.89,1.27,
4.329,-1.28,-2.41,-1.75,3.94,1.83,0.94,
4.33,-1.28,-2.41,-1.75,3.94,1.83,0.94,
4.33,-0.80,-1.94,-1.93,3.94,1.83,0.94,
4.331,-0.80,-1.94,-1.93,3.94,1.83,0.94,
4.338,-0.80,-1.94,-1.93,2.73,1.55,0.67,
4.339,-0.80,-1.94,-1.93,2.73,1.55,0.67,
4.34,-0.61,-1.48,-1.90,2.73,1.55,0.67,
4.341,-0.61,-1.48,-1.90,2.73,1.55,0.67,
4.354,-0.61,-1.48,-1.90,1.29,1.16,0.38,
4.355,-0.61,-1.48,-1.90,1.29,1.16,0.38,
4.355,-0.68,-1.06,-1.45,1.29,1.16,0.38,
4.356,-0.68,-1.06,-1.45,1.29,1.16,0.38,
4.357,-0.68,-1.06,-1.45,-0.04,0.78,0.04,
4.358,-0.68,-1.06,-1.45,-0.04,0.78,0.04,
4.358,-0.89,-0.68,0.24,-0.04,0.78,0.04,
4.359,-0.89,-0.68,0.24,-0.04,0.78,0.04,
4.366,-0.89,-0.68,0.24,-0.96,0.52,-0.15,
4.367,-0.89,-0.68,0.24,-0.96,0.52,-0.15,
4.368,-1.15,-0.28,0.54,-0.96,0.52,-0.15,
4.368,-1.15,-0.28,0.54,-0.96,0.52,-0.15,
4.376,-1.15,-0.28,0.54,-1.37,0.40,-0.25,
4.377,-1.15,-0.28,0.54,-1.37,0.40,-0.25,
4.377,-1.38,0.19,0.91,-1.37,0.40,-0.25,
4.377,-1.38,0.19,0.91,-1.37,0.40,-0.25,
4.386,-1.38,0.19,0.91,-1.36,0.41,-0.35,
4.387,-1.38,0.19,0.91,-1.36,0.41,-0.35,
4.387,-1.47,0.68,1.21,-1.36,0.41,-0.35,
4.388,-1.47,0.68,1.21,-1.36,0.41,-0.35,
4.395,-1.47,0.68,1.21,-1.08,0.51,-0.32,
4.396,-1.47,0.68,1.21,-1.08,0.51,-0.32,
4.397,-1.47,1.14,1.39,-1.08,0.51,-0.32,
4.397,-1.47,1.14,1.39,-1.08,0.51,-0.32,
4.405,-1.47,1.14,1.39,-0.72,0.64,-0.21,
4.406,-1.47,1.14,1.39,-0.72,0.64,-0.21,
4.407,-1.34,1.59,1.35,-0.72,0.64,-0.21,
4.408,-1.34,1.59,1.35,-0.72,0.64,-0.21,
4.416,-1.34,1.59,1.35,-0.35,0.77,-0.07,
4.418,-1.34,1.59,1.35,-0.35,0.77,-0.07,
4.418,-1.12,1.97,1.16,-0.35,0.77,-0.07,
4.419,-1.12,1.97,1.16,-0.35,0.77,-0.07,
4.423,-1.12,1.97,1.16,-0.02,0.86,0.05,
4.424,-1.12,1.97,1.16,-0.02,0.86,0.05,
4.425,-0.93,2.37,0.95,-0.02,0.86,0.05,
4.426,-0.93,2.37,0.95,-0.02,0.86,0.05,
4.433,-0.93,2.37,0.95,0.22,0.90,0.13,
4.434,-0.93,2.37,0.95,0.22,0.90,0.13,
4.435,-0.80,2.76,0.86,0.22,0.90,0.13,
4.435,-0.80,2.76,0.86,0.22,0.90,0.13,
4.443,-0.80,2.76,0.86,0.36,0.89,0.17,
4.443,-0.80,2.76,0.86,0.36,0.89,0.17,
4.444,-0.80,3.17,0.94,0.36,0.89,0.17,
4.444,-0.80,3.17,0.94,0.36,0.89,0.17,
4.466,-0.80,3.17,0.94,0.42,0.83,0.17,
4.467,-0.80,3.17,0.94,0.42,0.83,0.17,
4.467,-0.91,3.57,1.08,0.42,0.83,0.17,
4.467,-0.91,3.57,1.08,0.42,0.83,0.17,
4.468,-0.91,3.57,1.08,0.42,0.83,0.17,
4.468,-0.91,3.57,1.08,0.42,0.83,0.17,
4.468,-0.91,3.57,1.08,0.42,0.83,0.17,
4.469,-0.91,3.57,1.08,0.42,0.83,0.17,
4.472,-0.91,3.57,1.08,0.49,0.60,0.24,
4.473,-0.91,3.57,1.08,0.49,0.60,0.24,
4.473,-1.30,4.22,1.13,0.49,0.60,0.24,
4.473,-1.30,4.22,1.13,0.49,0.60,0.24,
4.482,-1.30,4.22,1.13,0.57,0.45,0.39,
4.483,-1.30,4.22,1.13,0.57,0.45,0.39,
4.483,-1.53,4.41,1.05,0.57,0.45,0.39,
4.483,-1.53,4.41,1.05,0.57,0.45,0.39,
4.491,-1.53,4.41,1.05,0.66,0.31,0.63,
4.492,-1.53,4.41,1.05,0.66,0.31,0.63,
4.492,-1.70,4.55,0.89,0.66,0.31,0.63,
4.493,-1.70,4.55,0.89,0.66,0.31,0.63,
4.502,-1.70,4.55,0.89,0.66,0.31,0.63,
4.503,-1.70,4.55,0.89,0.66,0.31,0.63,
4.503,-1.70,4.55,0.89,0.66,0.31,0.63,
4.503,-1.70,4.55,0.89,0.66,0.31,0.63,
4.51,-1.70,4.55,0.89,0.73,0.18,0.93,
4.511,-1.70,4.55,0.89,0.73,0.18,0.93,
4.512,-1.85,4.69,0.71,0.73,0.18,0.93,
4.512,-1.85,4.69,0.71,0.73,0.18,0.93,
4.519,-1.85,4.69,0.71,0.73,0.03,1.25,
4.52,-1.85,4.69,0.71,0.73,0.03,1.25,
4.521,-1.71,4.61,0.50,0.73,0.03,1.25,
4.521,-1.71,4.61,0.50,0.73,0.03,1.25,
4.529,-1.71,4.61,0.50,0.63,-0.17,1.57,
4.53,-1.71,4.61,0.50,0.63,-0.17,1.57,
4.53,-1.55,4.37,0.22,0.63,-0.17,1.57,
4.531,-1.55,4.37,0.22,0.63,-0.17,1.57,
4.539,-1.55,4.37,0.22,0.42,-0.44,1.85,
4.539,-1.55,4.37,0.22,0.42,-0.44,1.85,
4.54,-1.41,3.89,-0.22,0.42,-0.44,1.85,
4.54,-1.41,3.89,-0.22,0.42,-0.44,1.85,
4.551,-1.41,3.89,-0.22,0.08,-0.77,2.03,
4.552,-1.41,3.89,-0.22,0.08,-0.77,2.03,
4.552,-1.27,1.91,-0.81,0.08,-0.77,2.03,
4.553,-1.27,1.91,-0.81,0.08,-0.77,2.03,
4.558,-1.27,1.91,-0.81,-0.42,-0.77,1.80,
4.559,-1.27,1.91,-0.81,-0.42,-0.77,1.80,
4.559,-1.14,0.30,-1.46,-0.42,-0.77,1.80,
4.56,-1.14,0.30,-1.46,-0.42,-0.77,1.80,
4.567,-1.14,0.30,-1.46,-1.12,-0.42,1.38,
4.568,-1.14,0.30,-1.46,-1.12,-0.42,1.38,
4.568,-0.82,-1.86,-3.05,-1.12,-0.42,1.38,
4.568,-0.82,-1.86,-3.05,-1.12,-0.42,1.38,
4.576,-0.82,-1.86,-3.05,-1.98,-0.57,0.97,
4.577,-0.82,-1.86,-3.05,-1.98,-0.57,0.97,
4.577,1.26,-4.28,-5.13,-1.98,-0.57,0.97,
4.578,1.26,-4.28,-5.13,-1.98,-0.57,0.97,
4.586,1.26,-4.28,-5.13,-2.96,-1.10,0.27,
4.587,1.26,-4.28,-5.13,-2.96,-1.10,0.27,
4.588,3.90,-6.05,-7.25,-2.96,-1.10,0.27,
4.588,3.90,-6.05,-7.25,-2.96,-1.10,0.27,
4.596,3.90,-6.05,-7.25,-3.94,-1.34,-0.76,
4.597,3.90,-6.05,-7.25,-3.94,-1.34,-0.76,
4.597,6.91,-6.28,-9.17,-3.94,-1.34,-0.76,
4.597,6.91,-6.28,-9.17,-3.94,-1.34,-0.76,
4.606,6.91,-6.28,-9.17,-3.74,-1.23,-2.06,
4.607,6.91,-6.28,-9.17,-3.74,-1.23,-2.06,
4.607,8.84,-6.16,-9.59,-3.74,-1.23,-2.06,
4.608,8.84,-6.16,-9.59,-3.74,-1.23,-2.06,
4.615,8.84,-6.16,-9.59,-2.51,-0.90,-3.45,
4.616,8.84,-6.16,-9.59,-2.51,-0.90,-3.45,
4.617,8.93,-4.05,-9.80,-2.51,-0.90,-3.45,
4.617,8.93,-4.05,-9.80,-2.51,-0.90,-3.45,
4.624,8.93,-4.05,-9.80,-1.51,-0.55,-4.62,
4.625,8.93,-4.05,-9.80,-1.51,-0.55,-4.62,
4.626,7.19,-2.06,-8.16,-1.51,-0.55,-4.62,
4.626,7.19,-2.06,-8.16,-1.51,-0.55,-4.62,
4.634,7.19,-2.06,-8.16,-1.43,-0.15,-5.34,
4.635,7.19,-2.06,-8.16,-1.43,-0.15,-5.34,
4.635,4.70,-0.37,-5.88,-1.43,-0.15,-5.34,
4.636,4.70,-0.37,-5.88,-1.43,-0.15,-5.34,
4.643,4.70,-0.37,-5.88,-1.98,0.22,-5.51,
4.644,4.70,-0.37,-5.88,-1.98,0.22,-5.51,
4.645,2.38,0.10,-3.72,-1.98,0.22,-5.51,
4.646,2.38,0.10,-3.72,-1.98,0.22,-5.51,
4.655,2.38,0.10,-3.72,-2.09,0.37,-5.16,
4.656,2.38,0.10,-3.72,-2.09,0.37,-5.16,
4.656,0.77,1.72,-2.02,-2.09,0.37,-5.16,
4.657,0.77,1.72,-2.02,-2.09,0.37,-5.16,
4.662,0.77,1.72,-2.02,-1.81,0.35,-4.36,
4.663,0.77,1.72,-2.02,-1.81,0.35,-4.36,
4.664,0.29,1.85,-1.62,-1.81,0.35,-4.36,
4.665,0.29,1.85,-1.62,-1.81,0.35,-4.36,
4.68,0.29,1.85,-1.62,-1.20,0.19,-3.28,
4.681,0.29,1.85,-1.62,-1.20,0.19,-3.28,
4.682,-1.72,1.55,-0.13,-1.20,0.19,-3.28,
4.682,-1.72,1.55,-0.13,-1.20,0.19,-3.28,
4.683,-1.72,1.55,-0.13,-0.39,-0.04,-2.03,
4.683,-1.72,1.55,-0.13,-0.39,-0.04,-2.03,
4.684,-3.29,-0.08,0.38,-0.39,-0.04,-2.03,
4.685,-3.29,-0.08,0.38,-0.39,-0.04,-2.03,
4.691,-3.29,-0.08,0.38,0.55,-0.31,-0.65,
4.692,-3.29,-0.08,0.38,0.55,-0.31,-0.65,
4.693,-3.80,-1.83,1.88,0.55,-0.31,-0.65,
4.693,-3.80,-1.83,1.88,0.55,-0.31,-0.65,
4.7,-3.80,-1.83,1.88,0.55,-0.31,-0.65,
4.701,-3.80,-1.83,1.88,0.55,-0.31,-0.65,
4.701,-3.80,-1.83,1.88,0.55,-0.31,-0.65,
4.702,-3.80,-1.83,1.88,0.55,-0.31,-0.65,
4.71,-3.80,-1.83,1.88,1.63,-0.60,0.87,
4.711,-3.80,-1.83,1.88,1.63,-0.60,0.87,
4.711,-4.36,-2.83,2.91,1.63,-0.60,0.87,
4.711,-4.36,-2.83,2.91,1.63,-0.60,0.87,
4.719,-4.36,-2.83,2.91,2.82,-0.81,2.39,
4.721,-4.36,-2.83,2.91,2.82,-0.81,2.39,
4.721,-4.20,-2.96,3.31,2.82,-0.81,2.39,
4.722,-4.20,-2.96,3.31,2.82,-0.81,2.39,
4.729,-4.20,-2.96,3.31,3.97,-0.83,3.61,
4.73,-4.20,-2.96,3.31,3.97,-0.83,3.61,
4.731,-3.91,-2.74,3.44,3.97,-0.83,3.61,
4.731,-3.91,-2.74,3.44,3.97,-0.83,3.61,
4.739,-3.91,-2.74,3.44,4.88,-0.61,4.30,
4.739,-3.91,-2.74,3.44,4.88,-0.61,4.30,
4.74,-3.55,-2.24,3.07,4.88,-0.61,4.30,
4.741,-3.55,-2.24,3.07,4.88,-0.61,4.30,
4.754,-3.55,-2.24,3.07,5.42,-0.25,4.47,
4.755,-3.55,-2.24,3.07,5.42,-0.25,4.47,
4.755,-3.06,-0.49,1.21,5.42,-0.25,4.47,
4.756,-3.06,-0.49,1.21,5.42,-0.25,4.47,
4.762,-3.06,-0.49,1.21,5.54,0.10,4.29,
4.762,-3.06,-0.49,1.21,5.54,0.10,4.29,
4.764,-1.18,-0.33,-3.94,5.54,0.10,4.29,
4.765,-1.18,-0.33,-3.94,5.54,0.10,4.29,
4.771,-1.18,-0.33,-3.94,5.11,0.29,3.92,
4.772,-1.18,-0.33,-3.94,5.11,0.29,3.92,
4.773,0.32,-0.11,-6.06,5.11,0.29,3.92,
4.773,0.32,-0.11,-6.06,5.11,0.29,3.92,
4.776,0.32,-0.11,-6.06,3.93,0.24,3.40,
4.777,0.32,-0.11,-6.06,3.93,0.24,3.40,
4.777,0.79,0.19,-6.12,3.93,0.24,3.40,
4.778,0.79,0.19,-6.12,3.93,0.24,3.40,
4.785,0.79,0.19,-6.12,2.04,0.08,2.83,
4.786,0.79,0.19,-6.12,2.04,0.08,2.83,
4.787,1.22,0.64,-5.74,2.04,0.08,2.83,
4.787,1.22,0.64,-5.74,2.04,0.08,2.83,
4.795,1.22,0.64,-5.74,-0.07,-0.07,2.38,
4.795,1.22,0.64,-5.74,-0.07,-0.07,2.38,
4.796,1.11,2.47,-1.08,-0.07,-0.07,2.38,
4.796,1.11,2.47,-1.08,-0.07,-0.07,2.38,
4.804,1.11,2.47,-1.08,-1.69,-0.24,1.69,
4.805,1.11,2.47,-1.08,-1.69,-0.24,1.69,
4.806,0.62,2.86,0.87,-1.69,-0.24,1.69,
4.806,0.62,2.86,0.87,-1.69,-0.24,1.69,
4.815,0.62,2.86,0.87,-2.34,-0.34,0.86,
4.817,0.62,2.86,0.87,-2.34,-0.34,0.86,
4.817,0.07,3.39,1.14,-2.34,-0.34,0.86,
4.818,0.07,3.39,1.14,-2.34,-0.34,0.86,
4.824,0.07,3.39,1.14,-1.97,-0.28,0.51,
4.825,0.07,3.39,1.14,-1.97,-0.28,0.51,
4.826,-0.30,3.65,1.50,-1.97,-0.28,0.51,
4.826,-0.30,3.65,1.50,-1.97,-0.28,0.51,
4.833,-0.30,3.65,1.50,-0.94,-0.12,0.48,
4.834,-0.30,3.65,1.50,-0.94,-0.12,0.48,
4.834,-0.46,3.35,2.11,-0.94,-0.12,0.48,
4.835,-0.46,3.35,2.11,-0.94,-0.12,0.48,
4.843,-0.46,3.35,2.11,0.29,0.10,0.50,
4.844,-0.46,3.35,2.11,0.29,0.10,0.50,
4.844,-0.42,1.44,3.94,0.29,0.10,0.50,
4.845,-0.42,1.44,3.94,0.29,0.10,0.50,
4.854,-0.42,1.44,3.94,1.46,0.06,0.57,
4.855,-0.42,1.44,3.94,1.46,0.06,0.57,
4.856,-0.16,-0.58,4.62,1.46,0.06,0.57,
4.857,-0.16,-0.58,4.62,1.46,0.06,0.57,
4.862,-0.16,-0.58,4.62,2.61,0.14,0.58,
4.863,-0.16,-0.58,4.62,2.61,0.14,0.58,
4.863,0.22,-2.26,5.17,2.61,0.14,0.58,
4.864,0.22,-2.26,5.17,2.61,0.14,0.58,
4.871,0.22,-2.26,5.17,3.68,0.30,0.54,
4.872,0.22,-2.26,5.17,3.68,0.30,0.54,
4.873,0.76,-2.31,5.20,3.68,0.30,0.54,
4.873,0.76,-2.31,5.20,3.68,0.30,0.54,
4.882,0.76,-2.31,5.20,4.41,0.18,0.51,
4.883,0.76,-2.31,5.20,4.41,0.18,0.51,
4.883,2.53,-2.14,4.66,4.41,0.18,0.51,
4.883,2.53,-2.14,4.66,4.41,0.18,0.51,
4.891,2.53,-2.14,4.66,4.66,0.06,0.49,
4.892,2.53,-2.14,4.66,4.66,0.06,0.49,
4.893,2.80,-1.76,2.74,4.66,0.06,0.49,
4.893,2.80,-1.76,2.74,4.66,0.06,0.49,
4.901,2.80,-1.76,2.74,4.66,0.06,0.49,
4.902,2.80,-1.76,2.74,4.66,0.06,0.49,
4.903,2.80,-1.76,2.74,4.66,0.06,0.49,
4.904,2.80,-1.76,2.74,4.66,0.06,0.49,
4.909,2.80,-1.76,2.74,4.44,-0.01,0.08,
4.91,2.80,-1.76,2.74,4.44,-0.01,0.08,
4.911,3.53,-0.69,-1.35,4.44,-0.01,0.08,
4.912,3.53,-0.69,-1.35,4.44,-0.01,0.08,
4.919,3.53,-0.69,-1.35,3.76,-0.14,-0.70,
4.921,3.53,-0.69,-1.35,3.76,-0.14,-0.70,
4.921,3.49,-0.21,-3.17,3.76,-0.14,-0.70,
4.922,3.49,-0.21,-3.17,3.76,-0.14,-0.70,
4.928,3.49,-0.21,-3.17,2.57,-0.52,-1.29,
4.929,3.49,-0.21,-3.17,2.57,-0.52,-1.29,
4.93,3.14,0.15,-3.56,2.57,-0.52,-1.29,
4.93,3.14,0.15,-3.56,2.57,-0.52,-1.29,
4.938,3.14,0.15,-3.56,0.99,-1.04,-1.68,
4.94,3.14,0.15,-3.56,0.99,-1.04,-1.68,
4.94,2.53,0.26,-3.33,0.99,-1.04,-1.68,
4.941,2.53,0.26,-3.33,0.99,-1.04,-1.68,
4.948,2.53,0.26,-3.33,-0.65,-1.16,-1.60,
4.949,2.53,0.26,-3.33,-0.65,-1.16,-1.60,
4.95,1.88,0.14,-1.25,-0.65,-1.16,-1.60,
4.95,1.88,0.14,-1.25,-0.65,-1.16,-1.60,
4.957,1.88,0.14,-1.25,-1.95,-0.89,-1.19,
4.958,1.88,0.14,-1.25,-1.95,-0.89,-1.19,
4.959,1.35,-0.02,0.84,-1.95,-0.89,-1.19,
4.96,1.35,-0.02,0.84,-1.95,-0.89,-1.19,
4.967,1.35,-0.02,0.84,-2.57,-0.85,-0.94,
4.968,1.35,-0.02,0.84,-2.57,-0.85,-0.94,
4.968,0.96,-0.11,1.47,-2.57,-0.85,-0.94,
4.969,0.96,-0.11,1.47,-2.57,-0.85,-0.94,
4.976,0.96,-0.11,1.47,-2.44,-0.90,-0.71,
4.977,0.96,-0.11,1.47,-2.44,-0.90,-0.71,
4.978,0.67,-0.03,1.86,-2.44,-0.90,-0.71,
4.979,0.67,-0.03,1.86,-2.44,-0.90,-0.71,
4.987,0.67,-0.03,1.86,-1.75,-0.80,-0.35,
4.989,0.67,-0.03,1.86,-1.75,-0.80,-0.35,
4.989,0.54,0.21,1.91,-1.75,-0.80,-0.35,
4.99,0.54,0.21,1.91,-1.75,-0.80,-0.35,
4.996,0.54,0.21,1.91,-0.86,-0.65,0.04,
4.996,0.54,0.21,1.91,-0.86,-0.65,0.04,
4.997,0.52,0.52,1.71,-0.86,-0.65,0.04,
4.997,0.52,0.52,1.71,-0.86,-0.65,0.04,
5.006,0.52,0.52,1.71,-0.06,-0.51,0.39,
5.007,0.52,0.52,1.71,-0.06,-0.51,0.39,
5.007,0.51,0.82,1.43,-0.06,-0.51,0.39,
5.008,0.51,0.82,1.43,-0.06,-0.51,0.39,
5.015,0.51,0.82,1.43,0.52,-0.36,0.66,
5.016,0.51,0.82,1.43,0.52,-0.36,0.66,
5.017,0.53,1.02,1.23,0.52,-0.36,0.66,
5.017,0.53,1.02,1.23,0.52,-0.36,0.66,
5.024,0.53,1.02,1.23,0.88,-0.23,0.83,
5.025,0.53,1.02,1.23,0.88,-0.23,0.83,
5.025,0.51,1.12,1.08,0.88,-0.23,0.83,
5.025,0.51,1.12,1.08,0.88,-0.23,0.83,
5.033,0.51,1.12,1.08,1.05,-0.15,0.92,
5.034,0.51,1.12,1.08,1.05,-0.15,0.92,
5.034,0.51,1.11,0.93,1.05,-0.15,0.92,
5.034,0.51,1.11,0.93,1.05,-0.15,0.92,
5.043,0.51,1.11,0.93,1.08,-0.12,0.95,
5.044,0.51,1.11,0.93,1.08,-0.12,0.95,
5.044,0.52,1.07,0.77,1.08,-0.12,0.95,
5.045,0.52,1.07,0.77,1.08,-0.12,0.95,
5.053,0.52,1.07,0.77,1.02,-0.11,0.93,
5.054,0.52,1.07,0.77,1.02,-0.11,0.93,
5.055,0.54,1.00,0.60,1.02,-0.11,0.93,
5.056,0.54,1.00,0.60,1.02,-0.11,0.93,
5.061,0.54,1.00,0.60,0.91,-0.11,0.88,
5.062,0.54,1.00,0.60,0.91,-0.11,0.88,
5.062,0.54,0.97,0.43,0.91,-0.11,0.88,
5.063,0.54,0.97,0.43,0.91,-0.11,0.88,
5.071,0.54,0.97,0.43,0.75,-0.10,0.80,
5.072,0.54,0.97,0.43,0.75,-0.10,0.80,
5.072,0.51,1.03,0.31,0.75,-0.10,0.80,
5.073,0.51,1.03,0.31,0.75,-0.10,0.80,
5.083,0.51,1.03,0.31,0.58,-0.08,0.71,
5.083,0.51,1.03,0.31,0.58,-0.08,0.71,
5.084,0.43,1.11,0.25,0.58,-0.08,0.71,
5.084,0.43,1.11,0.25,0.58,-0.08,0.71,
5.09,0.43,1.11,0.25,0.58,-0.08,0.71,
5.091,0.43,1.11,0.25,0.58,-0.08,0.71,
5.091,0.43,1.11,0.25,0.58,-0.08,0.71,
5.091,0.43,1.11,0.25,0.58,-0.08,0.71,
5.1,0.43,1.11,0.25,0.41,-0.09,0.61,
5.101,0.43,1.11,0.25,0.41,-0.09,0.61,
5.102,0.21,1.30,0.08,0.41,-0.09,0.61,
5.102,0.21,1.30,0.08,0.41,-0.09,0.61,
5.109,0.21,1.30,0.08,0.26,-0.09,0.53,
5.11,0.21,1.30,0.08,0.26,-0.09,0.53,
5.11,0.10,1.28,-0.11,0.26,-0.09,0.53,
5.111,0.10,1.28,-0.11,0.26,-0.09,0.53,
5.119,0.10,1.28,-0.11,0.15,-0.09,0.50,
5.121,0.10,1.28,-0.11,0.15,-0.09,0.50,
5.121,0.04,1.18,-0.29,0.15,-0.09,0.50,
5.122,0.04,1.18,-0.29,0.15,-0.09,0.50,
5.128,0.04,1.18,-0.29,0.05,-0.07,0.50,
5.129,0.04,1.18,-0.29,0.05,-0.07,0.50,
5.13,0.06,0.99,-0.40,0.05,-0.07,0.50,
5.13,0.06,0.99,-0.40,0.05,-0.07,0.50,
5.138,0.06,0.99,-0.40,-0.05,-0.07,0.52,
5.139,0.06,0.99,-0.40,-0.05,-0.07,0.52,
5.14,0.13,0.75,-0.46,-0.05,-0.07,0.52,
5.14,0.13,0.75,-0.46,-0.05,-0.07,0.52,
5.151,0.13,0.75,-0.46,-0.14,-0.08,0.53,
5.152,0.13,0.75,-0.46,-0.14,-0.08,0.53,
5.152,0.25,0.46,-0.53,-0.14,-0.08,0.53,
5.153,0.25,0.46,-0.53,-0.14,-0.08,0.53,
5.157,0.25,0.46,-0.53,-0.22,-0.09,0.50,
5.158,0.25,0.46,-0.53,-0.22,-0.09,0.50,
5.158,0.43,0.16,-0.60,-0.22,-0.09,0.50,
5.159,0.43,0.16,-0.60,-0.22,-0.09,0.50,
5.17,0.43,0.16,-0.60,-0.28,-0.10,0.41,
5.17,0.43,0.16,-0.60,-0.28,-0.10,0.41,
5.171,0.62,-0.10,-0.63,-0.28,-0.10,0.41,
5.171,0.62,-0.10,-0.63,-0.28,-0.10,0.41,
5.176,0.62,-0.10,-0.63,-0.32,-0.09,0.28,
5.177,0.62,-0.10,-0.63,-0.32,-0.09,0.28,
5.177,0.86,-0.33,-0.69,-0.32,-0.09,0.28,
5.177,0.86,-0.33,-0.69,-0.32,-0.09,0.28,
5.185,0.86,-0.33,-0.69,-0.35,-0.08,0.09,
5.186,0.86,-0.33,-0.69,-0.35,-0.08,0.09,
5.187,1.08,-0.44,-0.79,-0.35,-0.08,0.09,
5.187,1.08,-0.44,-0.79,-0.35,-0.08,0.09,
5.195,1.08,-0.44,-0.79,-0.38,-0.07,-0.12,
5.196,1.08,-0.44,-0.79,-0.38,-0.07,-0.12,
5.196,1.28,-0.44,-0.97,-0.38,-0.07,-0.12,
5.196,1.28,-0.44,-0.97,-0.38,-0.07,-0.12,
5.205,1.28,-0.44,-0.97,-0.41,-0.07,-0.35,
5.206,1.28,-0.44,-0.97,-0.41,-0.07,-0.35,
5.207,1.45,-0.39,-1.26,-0.41,-0.07,-0.35,
5.207,1.45,-0.39,-1.26,-0.41,-0.07,-0.35,
5.215,1.45,-0.39,-1.26,-0.46,-0.08,-0.57,
5.216,1.45,-0.39,-1.26,-0.46,-0.08,-0.57,
5.217,1.58,-0.26,-1.50,-0.46,-0.08,-0.57,
5.217,1.58,-0.26,-1.50,-0.46,-0.08,-0.57,
5.224,1.58,-0.26,-1.50,-0.54,-0.09,-0.77,
5.225,1.58,-0.26,-1.50,-0.54,-0.09,-0.77,
5.225,1.77,-0.16,-1.67,-0.54,-0.09,-0.77,
5.226,1.77,-0.16,-1.67,-0.54,-0.09,-0.77,
5.234,1.77,-0.16,-1.67,-0.66,-0.10,-0.94,
5.235,1.77,-0.16,-1.67,-0.66,-0.10,-0.94,
5.236,1.98,-0.08,-1.74,-0.66,-0.10,-0.94,
5.237,1.98,-0.08,-1.74,-0.66,-0.10,-0.94,
5.242,1.98,-0.08,-1.74,-0.79,-0.10,-1.08,
5.243,1.98,-0.08,-1.74,-0.79,-0.10,-1.08,
5.244,2.19,-0.04,-1.65,-0.79,-0.10,-1.08,
5.245,2.19,-0.04,-1.65,-0.79,-0.10,-1.08,
5.252,2.19,-0.04,-1.65,-0.90,-0.09,-1.20,
5.253,2.19,-0.04,-1.65,-0.90,-0.09,-1.20,
5.254,2.43,-0.03,-1.45,-0.90,-0.09,-1.20,
5.255,2.43,-0.03,-1.45,-0.90,-0.09,-1.20,
5.261,2.43,-0.03,-1.45,-0.95,-0.05,-1.32,
5.262,2.43,-0.03,-1.45,-0.95,-0.05,-1.32,
5.262,2.63,-0.06,-1.15,-0.95,-0.05,-1.32,
5.263,2.63,-0.06,-1.15,-0.95,-0.05,-1.32,
5.272,2.63,-0.06,-1.15,-0.93,-0.00,-1.44,
5.273,2.63,-0.06,-1.15,-0.93,-0.00,-1.44,
5.273,2.79,-0.21,-0.82,-0.93,-0.00,-1.44,
5.274,2.79,-0.21,-0.82,-0.93,-0.00,-1.44,
5.296,2.79,-0.21,-0.82,-0.83,0.03,-1.55,
5.296,2.79,-0.21,-0.82,-0.83,0.03,-1.55,
5.297,2.94,-0.59,-0.54,-0.83,0.03,-1.55,
5.297,2.94,-0.59,-0.54,-0.83,0.03,-1.55,
5.297,2.94,-0.59,-0.54,-0.83,0.03,-1.55,
5.298,2.94,-0.59,-0.54,-0.83,0.03,-1.55,
5.298,2.94,-0.59,-0.54,-0.83,0.03,-1.55,
5.298,2.94,-0.59,-0.54,-0.83,0.03,-1.55,
5.299,2.94,-0.59,-0.54,-0.65,0.05,-1.65,
5.3,2.94,-0.59,-0.54,-0.65,0.05,-1.65,
5.3,2.90,-2.94,-0.86,-0.65,0.05,-1.65,
5.3,2.90,-2.94,-0.86,-0.65,0.05,-1.65,
5.309,2.90,-2.94,-0.86,-0.46,0.03,-1.69,
5.31,2.90,-2.94,-0.86,-0.46,0.03,-1.69,
5.31,2.59,-4.68,-2.68,-0.46,0.03,-1.69,
5.311,2.59,-4.68,-2.68,-0.46,0.03,-1.69,
5.319,2.59,-4.68,-2.68,-0.35,-0.01,-1.65,
5.32,2.59,-4.68,-2.68,-0.35,-0.01,-1.65,
5.321,2.01,-5.14,-4.69,-0.35,-0.01,-1.65,
5.321,2.01,-5.14,-4.69,-0.35,-0.01,-1.65,
5.329,2.01,-5.14,-4.69,-0.51,-0.09,-1.47,
5.33,2.01,-5.14,-4.69,-0.51,-0.09,-1.47,
5.331,0.35,-5.54,-6.87,-0.51,-0.09,-1.47,
5.331,0.35,-5.54,-6.87,-0.51,-0.09,-1.47,
5.338,0.35,-5.54,-6.87,-1.03,-0.20,-1.12,
5.339,0.35,-5.54,-6.87,-1.03,-0.20,-1.12,
5.34,-0.18,-5.67,-7.49,-1.03,-0.20,-1.12,
5.341,-0.18,-5.67,-7.49,-1.03,-0.20,-1.12,
5.355,-0.18,-5.67,-7.49,-1.81,-0.29,-0.62,
5.356,-0.18,-5.67,-7.49,-1.81,-0.29,-0.62,
5.357,-0.83,-5.53,-7.86,-1.81,-0.29,-0.62,
5.357,-0.83,-5.53,-7.86,-1.81,-0.29,-0.62,
5.358,-0.83,-5.53,-7.86,-2.63,-0.35,-0.02,
5.358,-0.83,-5.53,-7.86,-2.63,-0.35,-0.02,
5.359,-1.37,-5.14,-7.66,-2.63,-0.35,-0.02,
5.36,-1.37,-5.14,-7.66,-2.63,-0.35,-0.02,
5.373,-1.37,-5.14,-7.66,-3.25,-0.36,0.57,
5.374,-1.37,-5.14,-7.66,-3.25,-0.36,0.57,
5.374,-1.71,-4.60,-5.51,-3.25,-0.36,0.57,
5.374,-1.71,-4.60,-5.51,-3.25,-0.36,0.57,
5.376,-1.71,-4.60,-5.51,-3.54,-0.35,0.91,
5.376,-1.71,-4.60,-5.51,-3.54,-0.35,0.91,
5.377,-1.86,-4.00,-3.61,-3.54,-0.35,0.91,
5.377,-1.86,-4.00,-3.61,-3.54,-0.35,0.91,
5.386,-1.86,-4.00,-3.61,-3.44,-0.27,1.16,
5.387,-1.86,-4.00,-3.61,-3.44,-0.27,1.16,
5.387,-1.81,-3.40,-1.80,-3.44,-0.27,1.16,
5.387,-1.81,-3.40,-1.80,-3.44,-0.27,1.16,
5.395,-1.81,-3.40,-1.80,-2.93,-0.24,1.47,
5.396,-1.81,-3.40,-1.80,-2.93,-0.24,1.47,
5.397,-1.60,-2.96,-0.04,-2.93,-0.24,1.47,
5.397,-1.60,-2.96,-0.04,-2.93,-0.24,1.47,
5.405,-1.60,-2.96,-0.04,-2.10,-0.29,1.40,
5.406,-1.60,-2.96,-0.04,-2.10,-0.29,1.40,
5.406,-1.29,-2.64,1.65,-2.10,-0.29,1.40,
5.407,-1.29,-2.64,1.65,-2.10,-0.29,1.40,
5.415,-1.29,-2.64,1.65,-1.05,-0.31,1.27,
5.417,-1.29,-2.64,1.65,-1.05,-0.31,1.27,
5.417,-0.91,-2.44,2.20,-1.05,-0.31,1.27,
5.418,-0.91,-2.44,2.20,-1.05,-0.31,1.27,
5.423,-0.91,-2.44,2.20,0.10,-0.23,1.33,
5.424,-0.91,-2.44,2.20,0.10,-0.23,1.33,
5.425,-0.55,-2.28,3.94,0.10,-0.23,1.33,
5.425,-0.55,-2.28,3.94,0.10,-0.23,1.33,
5.433,-0.55,-2.28,3.94,1.27,-0.20,1.18,
5.434,-0.55,-2.28,3.94,1.27,-0.20,1.18,
5.435,-0.20,-2.10,4.47,1.27,-0.20,1.18,
5.436,-0.20,-2.10,4.47,1.27,-0.20,1.18,
5.442,-0.20,-2.10,4.47,2.37,-0.29,0.93,
5.443,-0.20,-2.10,4.47,2.37,-0.29,0.93,
5.444,0.18,-1.87,4.90,2.37,-0.29,0.93,
5.445,0.18,-1.87,4.90,2.37,-0.29,0.93,
5.465,0.18,-1.87,4.90,3.36,-0.01,0.66,
5.467,0.18,-1.87,4.90,3.36,-0.01,0.66,
5.467,0.58,-1.55,5.33,3.36,-0.01,0.66,
5.468,0.58,-1.55,5.33,3.36,-0.01,0.66,
5.469,0.58,-1.55,5.33,3.36,-0.01,0.66,
5.469,0.58,-1.55,5.33,3.36,-0.01,0.66,
5.47,0.58,-1.55,5.33,3.36,-0.01,0.66,
5.47,0.58,-1.55,5.33,3.36,-0.01,0.66,
5.475,0.58,-1.55,5.33,4.54,1.19,-0.14,
5.475,0.58,-1.55,5.33,4.54,1.19,-0.14,
5.476,1.41,-0.99,-0.23,4.54,1.19,-0.14,
5.476,1.41,-0.99,-0.23,4.54,1.19,-0.14,
5.483,1.41,-0.99,-0.23,4.33,1.50,-0.59,
5.484,1.41,-0.99,-0.23,4.33,1.50,-0.59,
5.485,1.68,-0.81,-0.61,4.33,1.50,-0.59,
5.485,1.68,-0.81,-0.61,4.33,1.50,-0.59,
5.491,1.68,-0.81,-0.61,4.33,1.50,-0.59,
5.491,1.68,-0.81,-0.61,4.33,1.50,-0.59,
5.492,1.68,-0.81,-0.61,4.33,1.50,-0.59,
5.492,1.68,-0.81,-0.61,4.33,1.50,-0.59,
5.499,1.68,-0.81,-0.61,3.55,1.52,-0.98,
5.5,1.68,-0.81,-0.61,3.55,1.52,-0.98,
5.501,1.91,-0.88,-3.75,3.55,1.52,-0.98,
5.501,1.91,-0.88,-3.75,3.55,1.52,-0.98,
5.509,1.91,-0.88,-3.75,2.41,1.30,-1.27,
5.51,1.91,-0.88,-3.75,2.41,1.30,-1.27,
5.51,1.62,-1.05,-3.39,2.41,1.30,-1.27,
5.511,1.62,-1.05,-3.39,2.41,1.30,-1.27,
5.519,1.62,-1.05,-3.39,1.17,0.92,-1.31,
5.52,1.62,-1.05,-3.39,1.17,0.92,-1.31,
5.52,1.19,-1.30,-2.82,1.17,0.92,-1.31,
5.521,1.19,-1.30,-2.82,1.17,0.92,-1.31,
5.529,1.19,-1.30,-2.82,-0.03,0.48,-1.18,
5.53,1.19,-1.30,-2.82,-0.03,0.48,-1.18,
5.531,0.59,-1.50,-1.09,-0.03,0.48,-1.18,
5.531,0.59,-1.50,-1.09,-0.03,0.48,-1.18,
5.538,0.59,-1.50,-1.09,-1.00,0.08,-1.13,
5.539,0.59,-1.50,-1.09,-1.00,0.08,-1.13,
5.539,-0.02,-1.56,1.27,-1.00,0.08,-1.13,
5.54,-0.02,-1.56,1.27,-1.00,0.08,-1.13,
5.552,-0.02,-1.56,1.27,-1.43,-0.14,-1.05,
5.553,-0.02,-1.56,1.27,-1.43,-0.14,-1.05,
5.554,-0.51,-1.39,1.68,-1.43,-0.14,-1.05,
5.554,-0.51,-1.39,1.68,-1.43,-0.14,-1.05,
5.557,-0.51,-1.39,1.68,-1.25,-0.14,-0.81,
5.558,-0.51,-1.39,1.68,-1.25,-0.14,-0.81,
5.558,-0.93,-1.02,1.70,-1.25,-0.14,-0.81,
5.559,-0.93,-1.02,1.70,-1.25,-0.14,-0.81,
5.575,-0.93,-1.02,1.70,-0.66,0.02,-0.46,
5.576,-0.93,-1.02,1.70,-0.66,0.02,-0.46,
5.577,-1.27,-0.46,1.40,-0.66,0.02,-0.46,
5.577,-1.27,-0.46,1.40,-0.66,0.02,-0.46,
5.577,-1.27,-0.46,1.40,0.01,0.23,-0.07,
5.577,-1.27,-0.46,1.40,0.01,0.23,-0.07,
5.578,-1.50,1.12,0.98,0.01,0.23,-0.07,
5.578,-1.50,1.12,0.98,0.01,0.23,-0.07,
5.585,-1.50,1.12,0.98,0.53,0.38,0.31,
5.586,-1.50,1.12,0.98,0.53,0.38,0.31,
5.587,-1.67,1.63,0.77,0.53,0.38,0.31,
5.587,-1.67,1.63,0.77,0.53,0.38,0.31,
5.595,-1.67,1.63,0.77,0.81,0.42,0.68,
5.596,-1.67,1.63,0.77,0.81,0.42,0.68,
5.596,-1.78,3.14,0.91,0.81,0.42,0.68,
5.597,-1.78,3.14,0.91,0.81,0.42,0.68,
5.605,-1.78,3.14,0.91,0.94,0.37,1.01,
5.606,-1.78,3.14,0.91,0.94,0.37,1.01,
5.606,-1.85,3.60,1.23,0.94,0.37,1.01,
5.606,-1.85,3.60,1.23,0.94,0.37,1.01,
5.615,-1.85,3.60,1.23,0.99,0.27,1.32,
5.615,-1.85,3.60,1.23,0.99,0.27,1.32,
5.616,-1.90,4.09,1.61,0.99,0.27,1.32,
5.616,-1.90,4.09,1.61,0.99,0.27,1.32,
5.623,-1.90,4.09,1.61,1.06,0.17,1.60,
5.624,-1.90,4.09,1.61,1.06,0.17,1.60,
5.624,-1.95,4.46,1.86,1.06,0.17,1.60,
5.625,-1.95,4.46,1.86,1.06,0.17,1.60,
5.633,-1.95,4.46,1.86,1.21,0.10,1.85,
5.633,-1.95,4.46,1.86,1.21,0.10,1.85,
5.634,-1.98,4.66,1.93,1.21,0.10,1.85,
5.634,-1.98,4.66,1.93,1.21,0.10,1.85,
5.642,-1.98,4.66,1.93,1.46,0.11,2.06,
5.643,-1.98,4.66,1.93,1.46,0.11,2.06,
5.644,-1.98,4.72,1.82,1.46,0.11,2.06,
5.644,-1.98,4.72,1.82,1.46,0.11,2.06,
5.652,-1.98,4.72,1.82,1.76,0.17,1.84,
5.653,-1.98,4.72,1.82,1.76,0.17,1.84,
5.654,-2.02,4.64,1.57,1.76,0.17,1.84,
5.654,-2.02,4.64,1.57,1.76,0.17,1.84,
5.662,-2.02,4.64,1.57,2.01,0.23,1.35,
5.663,-2.02,4.64,1.57,2.01,0.23,1.35,
5.663,-2.08,4.52,1.31,2.01,0.23,1.35,
5.663,-2.08,4.52,1.31,2.01,0.23,1.35,
5.682,-2.08,4.52,1.31,2.09,0.18,1.32,
5.683,-2.08,4.52,1.31,2.09,0.18,1.32,
5.683,-2.15,4.35,1.06,2.09,0.18,1.32,
5.683,-2.15,4.35,1.06,2.09,0.18,1.32,
5.684,-2.15,4.35,1.06,1.96,-0.03,1.62,
5.684,-2.15,4.35,1.06,1.96,-0.03,1.62,
5.684,-2.26,4.18,0.87,1.96,-0.03,1.62,
5.685,-2.26,4.18,0.87,1.96,-0.03,1.62,
5.69,-2.26,4.18,0.87,1.96,-0.03,1.62,
5.691,-2.26,4.18,0.87,1.96,-0.03,1.62,
5.691,-2.26,4.18,0.87,1.96,-0.03,1.62,
5.691,-2.26,4.18,0.87,1.96,-0.03,1.62,
5.701,-2.26,4.18,0.87,1.61,-0.09,1.90,
5.702,-2.26,4.18,0.87,1.61,-0.09,1.90,
5.702,-2.46,3.95,0.85,1.61,-0.09,1.90,
5.703,-2.46,3.95,0.85,1.61,-0.09,1.90,
5.709,-2.46,3.95,0.85,1.38,-0.40,1.69,
5.71,-2.46,3.95,0.85,1.38,-0.40,1.69,
5.711,-2.52,3.91,0.94,1.38,-0.40,1.69,
5.711,-2.52,3.91,0.94,1.38,-0.40,1.69,
5.718,-2.52,3.91,0.94,1.38,-1.21,1.04,
5.719,-2.52,3.91,0.94,1.38,-1.21,1.04,
5.72,-2.56,3.91,1.03,1.38,-1.21,1.04,
5.72,-2.56,3.91,1.03,1.38,-1.21,1.04,
5.728,-2.56,3.91,1.03,1.39,-1.97,0.50,
5.729,-2.56,3.91,1.03,1.39,-1.97,0.50,
5.73,-2.60,3.90,1.05,1.39,-1.97,0.50,
5.73,-2.60,3.90,1.05,1.39,-1.97,0.50,
5.737,-2.60,3.90,1.05,1.39,-2.58,0.07,
5.738,-2.60,3.90,1.05,1.39,-2.58,0.07,
5.739,-2.65,3.78,0.85,1.39,-2.58,0.07,
5.74,-2.65,3.78,0.85,1.39,-2.58,0.07,
5.752,-2.65,3.78,0.85,1.04,-3.02,-0.30,
5.753,-2.65,3.78,0.85,1.04,-3.02,-0.30,
5.753,-2.68,3.48,0.28,1.04,-3.02,-0.30,
5.754,-2.68,3.48,0.28,1.04,-3.02,-0.30,
5.756,-2.68,3.48,0.28,0.37,-3.35,-0.61,
5.757,-2.68,3.48,0.28,0.37,-3.35,-0.61,
5.757,-2.71,1.64,-1.95,0.37,-3.35,-0.61,
5.758,-2.71,1.64,-1.95,0.37,-3.35,-0.61,
5.77,-2.71,1.64,-1.95,-0.42,-2.91,-0.90,
5.771,-2.71,1.64,-1.95,-0.42,-2.91,-0.90,
5.771,-2.73,-0.69,-6.04,-0.42,-2.91,-0.90,
5.772,-2.73,-0.69,-6.04,-0.42,-2.91,-0.90,
5.775,-2.73,-0.69,-6.04,-1.71,-2.58,-0.83,
5.776,-2.73,-0.69,-6.04,-1.71,-2.58,-0.83,
5.776,-2.43,-4.30,-9.70,-1.71,-2.58,-0.83,
5.776,-2.43,-4.30,-9.70,-1.71,-2.58,-0.83,
5.785,-2.43,-4.30,-9.70,-3.72,-2.80,-0.71,
5.786,-2.43,-4.30,-9.70,-3.72,-2.80,-0.71,
5.786,1.60,-8.33,-12.98,-3.72,-2.80,-0.71,
5.787,1.60,-8.33,-12.98,-3.72,-2.80,-0.71,
5.795,1.60,-8.33,-12.98,-5.98,-2.22,-1.29,
5.795,1.60,-8.33,-12.98,-5.98,-2.22,-1.29,
5.795,7.15,-10.36,-13.49,-5.98,-2.22,-1.29,
5.796,7.15,-10.36,-13.49,-5.98,-2.22,-1.29,
5.805,7.15,-10.36,-13.49,-7.67,-1.21,-1.88,
5.806,7.15,-10.36,-13.49,-7.67,-1.21,-1.88,
5.806,11.11,-10.49,-13.61,-7.67,-1.21,-1.88,
5.807,11.11,-10.49,-13.61,-7.67,-1.21,-1.88,
5.814,11.11,-10.49,-13.61,-7.35,-0.38,-2.86,
5.815,11.11,-10.49,-13.61,-7.35,-0.38,-2.86,
5.815,11.61,-8.65,-11.29,-7.35,-0.38,-2.86,
5.816,11.61,-8.65,-11.29,-7.35,-0.38,-2.86,
5.823,11.61,-8.65,-11.29,-6.34,0.70,-4.40,
5.824,11.61,-8.65,-11.29,-6.34,0.70,-4.40,
5.824,9.84,-5.17,-8.60,-6.34,0.70,-4.40,
5.825,9.84,-5.17,-8.60,-6.34,0.70,-4.40,
5.832,9.84,-5.17,-8.60,-5.89,1.80,-5.47,
5.833,9.84,-5.17,-8.60,-5.89,1.80,-5.47,
5.833,5.23,-3.37,-6.26,-5.89,1.80,-5.47,
5.834,5.23,-3.37,-6.26,-5.89,1.80,-5.47,
5.842,5.23,-3.37,-6.26,-5.04,1.91,-5.89,
5.843,5.23,-3.37,-6.26,-5.04,1.91,-5.89,
5.843,1.71,-1.13,-4.43,-5.04,1.91,-5.89,
5.844,1.71,-1.13,-4.43,-5.04,1.91,-5.89,
5.852,1.71,-1.13,-4.43,-4.13,1.38,-5.63,
5.854,1.71,-1.13,-4.43,-4.13,1.38,-5.63,
5.854,-0.31,-0.58,-3.97,-4.13,1.38,-5.63,
5.855,-0.31,-0.58,-3.97,-4.13,1.38,-5.63,
5.861,-0.31,-0.58,-3.97,-3.23,1.02,-4.78,
5.862,-0.31,-0.58,-3.97,-3.23,1.02,-4.78,
5.862,-1.91,-0.45,-2.21,-3.23,1.02,-4.78,
5.863,-1.91,-0.45,-2.21,-3.23,1.02,-4.78,
5.876,-1.91,-0.45,-2.21,-3.23,1.02,-4.78,
5.877,-1.91,-0.45,-2.21,-3.23,1.02,-4.78,
5.878,-1.91,-0.45,-2.21,-3.23,1.02,-4.78,
5.878,-1.91,-0.45,-2.21,-3.23,1.02,-4.78,
5.885,-1.91,-0.45,-2.21,-2.62,0.67,-3.48,
5.886,-1.91,-0.45,-2.21,-2.62,0.67,-3.48,
5.886,-3.71,-4.06,-1.69,-2.62,0.67,-3.48,
5.886,-3.71,-4.06,-1.69,-2.62,0.67,-3.48,
5.89,-3.71,-4.06,-1.69,-2.47,0.22,-1.91,
5.89,-3.71,-4.06,-1.69,-2.47,0.22,-1.91,
5.891,-3.85,-4.28,-1.65,-2.47,0.22,-1.91,
5.891,-3.85,-4.28,-1.65,-2.47,0.22,-1.91,
5.9,-3.85,-4.28,-1.65,-2.40,-0.23,-0.27,
5.901,-3.85,-4.28,-1.65,-2.40,-0.23,-0.27,
5.901,-3.55,-4.22,-1.46,-2.40,-0.23,-0.27,
5.901,-3.55,-4.22,-1.46,-2.40,-0.23,-0.27,
5.909,-3.55,-4.22,-1.46,-2.42,-0.69,1.23,
5.91,-3.55,-4.22,-1.46,-2.42,-0.69,1.23,
5.911,-3.02,-2.32,-0.99,-2.42,-0.69,1.23,
5.911,-3.02,-2.32,-0.99,-2.42,-0.69,1.23,
5.919,-3.02,-2.32,-0.99,-2.49,-1.12,2.35,
5.921,-3.02,-2.32,-0.99,-2.49,-1.12,2.35,
5.922,-2.31,-0.47,0.84,-2.49,-1.12,2.35,
5.922,-2.31,-0.47,0.84,-2.49,-1.12,2.35,
5.928,-2.31,-0.47,0.84,-2.51,-1.42,3.02,
5.928,-2.31,-0.47,0.84,-2.51,-1.42,3.02,
5.929,-1.67,0.01,1.06,-2.51,-1.42,3.02,
5.929,-1.67,0.01,1.06,-2.51,-1.42,3.02,
5.938,-1.67,0.01,1.06,-1.83,-1.52,3.16,
5.939,-1.67,0.01,1.06,-1.83,-1.52,3.16,
5.939,-1.06,1.53,1.16,-1.83,-1.52,3.16,
5.94,-1.06,1.53,1.16,-1.83,-1.52,3.16,
5.95,-1.06,1.53,1.16,-0.56,-1.47,3.09,
5.951,-1.06,1.53,1.16,-0.56,-1.47,3.09,
5.951,0.70,1.83,0.68,-0.56,-1.47,3.09,
5.951,0.70,1.83,0.68,-0.56,-1.47,3.09,
5.956,0.70,1.83,0.68,0.52,-1.29,3.01,
5.957,0.70,1.83,0.68,0.52,-1.29,3.01,
5.957,2.58,2.10,-0.75,0.52,-1.29,3.01,
5.957,2.58,2.10,-0.75,0.52,-1.29,3.01,
5.97,2.58,2.10,-0.75,1.32,-1.00,2.67,
5.971,2.58,2.10,-0.75,1.32,-1.00,2.67,
5.971,2.91,2.28,-0.91,1.32,-1.00,2.67,
5.971,2.91,2.28,-0.91,1.32,-1.00,2.67,
5.975,2.91,2.28,-0.91,1.76,-0.61,2.01,
5.976,2.91,2.28,-0.91,1.76,-0.61,2.01,
5.976,3.23,2.44,-1.03,1.76,-0.61,2.01,
5.976,3.23,2.44,-1.03,1.76,-0.61,2.01,
5.985,3.23,2.44,-1.03,1.86,-0.21,1.12,
5.986,3.23,2.44,-1.03,1.86,-0.21,1.12,
5.987,3.16,2.62,-0.92,1.86,-0.21,1.12,
5.987,3.16,2.62,-0.92,1.86,-0.21,1.12,
5.995,3.16,2.62,-0.92,1.71,0.11,0.19,
5.996,3.16,2.62,-0.92,1.71,0.11,0.19,
5.997,1.59,2.70,-0.81,1.71,0.11,0.19,
5.997,1.59,2.70,-0.81,1.71,0.11,0.19,
6.003,1.59,2.70,-0.81,1.46,0.28,-0.52,
6.004,1.59,2.70,-0.81,1.46,0.28,-0.52,
6.005,1.29,2.41,-0.77,1.46,0.28,-0.52,
6.005,1.29,2.41,-0.77,1.46,0.28,-0.52,
6.014,1.29,2.41,-0.77,1.22,0.28,-0.85,
6.015,1.29,2.41,-0.77,1.22,0.28,-0.85,
6.015,0.70,0.77,-0.62,1.22,0.28,-0.85,
6.016,0.70,0.77,-0.62,1.22,0.28,-0.85,
6.023,0.70,0.77,-0.62,0.98,0.13,-0.76,
6.024,0.70,0.77,-0.62,0.98,0.13,-0.76,
6.024,0.17,-1.05,-0.10,0.98,0.13,-0.76,
6.025,0.17,-1.05,-0.10,0.98,0.13,-0.76,
6.032,0.17,-1.05,-0.10,0.77,-0.09,-0.39,
6.033,0.17,-1.05,-0.10,0.77,-0.09,-0.39,
6.034,0.04,-2.76,0.55,0.77,-0.09,-0.39,
6.034,0.04,-2.76,0.55,0.77,-0.09,-0.39,
6.042,0.04,-2.76,0.55,0.63,-0.26,0.02,
6.043,0.04,-2.76,0.55,0.63,-0.26,0.02,
6.044,0.29,-2.80,1.18,0.63,-0.26,0.02,
6.044,0.29,-2.80,1.18,0.63,-0.26,0.02,
6.054,0.29,-2.80,1.18,0.60,-0.30,0.29,
6.056,0.29,-2.80,1.18,0.60,-0.30,0.29,
6.057,0.84,-2.58,1.57,0.60,-0.30,0.29,
6.058,0.84,-2.58,1.57,0.60,-0.30,0.29,
6.061,0.84,-2.58,1.57,0.71,-0.22,0.36,
6.062,0.84,-2.58,1.57,0.71,-0.22,0.36,
6.062,2.32,-0.88,1.59,0.71,-0.22,0.36,
6.063,2.32,-0.88,1.59,0.71,-0.22,0.36,
6.073,2.32,-0.88,1.59,0.91,-0.08,0.23,
6.075,2.32,-0.88,1.59,0.91,-0.08,0.23,
6.075,2.50,-0.52,1.30,0.91,-0.08,0.23,
6.076,2.50,-0.52,1.30,0.91,-0.08,0.23,
6.082,2.50,-0.52,1.30,1.11,0.07,-0.08,
6.084,2.50,-0.52,1.30,1.11,0.07,-0.08,
6.084,2.69,-0.03,0.82,1.11,0.07,-0.08,
6.084,2.69,-0.03,0.82,1.11,0.07,-0.08,
6.091,2.69,-0.03,0.82,1.23,0.17,-0.48,
6.092,2.69,-0.03,0.82,1.23,0.17,-0.48,
6.092,2.90,0.39,0.40,1.23,0.17,-0.48,
6.093,2.90,0.39,0.40,1.23,0.17,-0.48,
6.099,2.90,0.39,0.40,1.23,0.17,-0.48,
6.1,2.90,0.39,0.40,1.23,0.17,-0.48,
6.1,2.90,0.39,0.40,1.23,0.17,-0.48,
6.101,2.90,0.39,0.40,1.23,0.17,-0.48,
6.111,2.90,0.39,0.40,1.03,0.11,-1.21,
6.112,2.90,0.39,0.40,1.03,0.11,-1.21,
6.113,3.20,0.37,0.07,1.03,0.11,-1.21,
6.114,3.20,0.37,0.07,1.03,0.11,-1.21,
6.118,3.20,0.37,0.07,1.03,0.11,-1.21,
6.12,3.20,0.37,0.07,1.03,0.11,-1.21,
6.121,3.20,0.37,0.07,1.03,0.11,-1.21,
6.122,3.20,0.37,0.07,1.03,0.11,-1.21,
6.128,3.20,0.37,0.07,0.73,-0.06,-1.46,
6.129,3.20,0.37,0.07,0.73,-0.06,-1.46,
6.129,3.04,-0.09,0.12,0.73,-0.06,-1.46,
6.13,3.04,-0.09,0.12,0.73,-0.06,-1.46,
6.137,3.04,-0.09,0.12,0.40,-0.23,-1.64,
6.138,3.04,-0.09,0.12,0.40,-0.23,-1.64,
6.138,2.86,-0.22,0.18,0.40,-0.23,-1.64,
6.138,2.86,-0.22,0.18,0.40,-0.23,-1.64,
6.15,2.86,-0.22,0.18,0.11,-0.35,-1.74,
6.151,2.86,-0.22,0.18,0.11,-0.35,-1.74,
6.151,2.69,-0.22,0.26,0.11,-0.35,-1.74,
6.152,2.69,-0.22,0.26,0.11,-0.35,-1.74,
6.158,2.69,-0.22,0.26,-0.10,-0.42,-1.74,
6.158,2.69,-0.22,0.26,-0.10,-0.42,-1.74,
6.158,2.55,-0.07,0.44,-0.10,-0.42,-1.74,
6.159,2.55,-0.07,0.44,-0.10,-0.42,-1.74,
6.165,2.55,-0.07,0.44,-0.23,-0.47,-1.63,
6.166,2.55,-0.07,0.44,-0.23,-0.47,-1.63,
6.166,2.41,0.23,0.61,-0.23,-0.47,-1.63,
6.167,2.41,0.23,0.61,-0.23,-0.47,-1.63,
6.175,2.41,0.23,0.61,-0.28,-0.53,-1.45,
6.176,2.41,0.23,0.61,-0.28,-0.53,-1.45,
6.176,2.22,0.67,0.74,-0.28,-0.53,-1.45,
6.176,2.22,0.67,0.74,-0.28,-0.53,-1.45,
6.184,2.22,0.67,0.74,-0.26,-0.58,-1.24,
6.185,2.22,0.67,0.74,-0.26,-0.58,-1.24,
6.186,1.97,1.12,0.77,-0.26,-0.58,-1.24,
6.186,1.97,1.12,0.77,-0.26,-0.58,-1.24,
6.194,1.97,1.12,0.77,-0.17,-0.61,-1.02,
6.195,1.97,1.12,0.77,-0.17,-0.61,-1.02,
6.195,1.64,1.44,0.64,-0.17,-0.61,-1.02,
6.195,1.64,1.44,0.64,-0.17,-0.61,-1.02,
6.203,1.64,1.44,0.64,-0.06,-0.62,-0.79,
6.204,1.64,1.44,0.64,-0.06,-0.62,-0.79,
6.205,1.23,1.55,0.41,-0.06,-0.62,-0.79,
6.205,1.23,1.55,0.41,-0.06,-0.62,-0.79,
6.213,1.23,1.55,0.41,0.03,-0.62,-0.54,
6.214,1.23,1.55,0.41,0.03,-0.62,-0.54,
6.215,0.69,1.51,0.16,0.03,-0.62,-0.54,
6.215,0.69,1.51,0.16,0.03,-0.62,-0.54,
6.223,0.69,1.51,0.16,0.07,-0.62,-0.24,
6.224,0.69,1.51,0.16,0.07,-0.62,-0.24,
6.224,0.13,1.43,-0.08,0.07,-0.62,-0.24,
6.225,0.13,1.43,-0.08,0.07,-0.62,-0.24,
6.232,0.13,1.43,-0.08,0.04,-0.63,0.11,
6.233,0.13,1.43,-0.08,0.04,-0.63,0.11,
6.233,-0.38,1.34,-0.20,0.04,-0.63,0.11,
6.234,-0.38,1.34,-0.20,0.04,-0.63,0.11,
6.241,-0.38,1.34,-0.20,-0.08,-0.67,0.52,
6.242,-0.38,1.34,-0.20,-0.08,-0.67,0.52,
6.242,-0.76,1.30,-0.22,-0.08,-0.67,0.52,
6.242,-0.76,1.30,-0.22,-0.08,-0.67,0.52,
6.251,-0.76,1.30,-0.22,-0.24,-0.71,0.97,
6.252,-0.76,1.30,-0.22,-0.24,-0.71,0.97,
6.252,-0.92,1.28,-0.22,-0.24,-0.71,0.97,
6.252,-0.92,1.28,-0.22,-0.24,-0.71,0.97,
6.262,-0.92,1.28,-0.22,-0.39,-0.75,1.39,
6.262,-0.92,1.28,-0.22,-0.39,-0.75,1.39,
6.263,-0.79,1.24,-0.16,-0.39,-0.75,1.39,
6.263,-0.79,1.24,-0.16,-0.39,-0.75,1.39,
6.27,-0.79,1.24,-0.16,-0.51,-0.76,1.71,
6.271,-0.79,1.24,-0.16,-0.51,-0.76,1.71,
6.271,-0.46,1.15,-0.10,-0.51,-0.76,1.71,
6.271,-0.46,1.15,-0.10,-0.51,-0.76,1.71,
6.28,-0.46,1.15,-0.10,-0.51,-0.76,1.71,
6.28,-0.46,1.15,-0.10,-0.51,-0.76,1.71,
6.281,-0.46,1.15,-0.10,-0.51,-0.76,1.71,
6.281,-0.46,1.15,-0.10,-0.51,-0.76,1.71,
6.289,-0.46,1.15,-0.10,-0.57,-0.65,1.87,
6.29,-0.46,1.15,-0.10,-0.57,-0.65,1.87,
6.29,0.44,0.74,0.08,-0.57,-0.65,1.87,
6.291,0.44,0.74,0.08,-0.57,-0.65,1.87,
6.299,0.44,0.74,0.08,-0.56,-0.52,1.82,
6.3,0.44,0.74,0.08,-0.56,-0.52,1.82,
6.3,0.71,0.43,0.25,-0.56,-0.52,1.82,
6.301,0.71,0.43,0.25,-0.56,-0.52,1.82,
6.308,0.71,0.43,0.25,-0.48,-0.43,1.51,
6.309,0.71,0.43,0.25,-0.48,-0.43,1.51,
6.309,0.88,0.15,0.41,-0.48,-0.43,1.51,
6.31,0.88,0.15,0.41,-0.48,-0.43,1.51,
6.32,0.88,0.15,0.41,-0.34,-0.29,1.01,
6.321,0.88,0.15,0.41,-0.34,-0.29,1.01,
6.321,0.99,-0.04,0.56,-0.34,-0.29,1.01,
6.321,0.99,-0.04,0.56,-0.34,-0.29,1.01,
6.327,0.99,-0.04,0.56,-0.16,-0.14,0.43,
6.328,0.99,-0.04,0.56,-0.16,-0.14,0.43,
6.328,1.04,-0.13,0.55,-0.16,-0.14,0.43,
6.329,1.04,-0.13,0.55,-0.16,-0.14,0.43,
6.337,1.04,-0.13,0.55,0.02,-0.01,-0.10,
6.337,1.04,-0.13,0.55,0.02,-0.01,-0.10,
6.338,1.11,-0.11,0.41,0.02,-0.01,-0.10,
6.338,1.11,-0.11,0.41,0.02,-0.01,-0.10,
6.349,1.11,-0.11,0.41,0.16,0.08,-0.52,
6.35,1.11,-0.11,0.41,0.16,0.08,-0.52,
6.35,1.18,-0.02,0.16,0.16,0.08,-0.52,
6.35,1.18,-0.02,0.16,0.16,0.08,-0.52,
6.356,1.18,-0.02,0.16,0.25,0.12,-0.82,
6.356,1.18,-0.02,0.16,0.25,0.12,-0.82,
6.357,1.27,0.08,-0.29,0.25,0.12,-0.82,
6.357,1.27,0.08,-0.29,0.25,0.12,-0.82,
6.365,1.27,0.08,-0.29,0.25,0.15,-1.03,
6.366,1.27,0.08,-0.29,0.25,0.15,-1.03,
6.366,1.40,0.14,-0.80,0.25,0.15,-1.03,
6.366,1.40,0.14,-0.80,0.25,0.15,-1.03,
6.375,1.40,0.14,-0.80,0.15,0.16,-1.18,
6.376,1.40,0.14,-0.80,0.15,0.16,-1.18,
6.376,1.57,0.16,-1.37,0.15,0.16,-1.18,
6.376,1.57,0.16,-1.37,0.15,0.16,-1.18,
6.385,1.57,0.16,-1.37,-0.05,0.15,-1.29,
6.386,1.57,0.16,-1.37,-0.05,0.15,-1.29,
6.386,1.82,0.09,-1.88,-0.05,0.15,-1.29,
6.387,1.82,0.09,-1.88,-0.05,0.15,-1.29,
6.394,1.82,0.09,-1.88,-0.36,0.13,-1.38,
6.395,1.82,0.09,-1.88,-0.36,0.13,-1.38,
6.395,2.14,-0.01,-2.13,-0.36,0.13,-1.38,
6.396,2.14,-0.01,-2.13,-0.36,0.13,-1.38,
6.403,2.14,-0.01,-2.13,-0.74,0.10,-1.49,
6.405,2.14,-0.01,-2.13,-0.74,0.10,-1.49,
6.405,2.57,-0.12,-2.14,-0.74,0.10,-1.49,
6.405,2.57,-0.12,-2.14,-0.74,0.10,-1.49,
6.413,2.57,-0.12,-2.14,-1.11,0.09,-1.62,
6.414,2.57,-0.12,-2.14,-1.11,0.09,-1.62,
6.414,3.11,-0.19,-1.96,-1.11,0.09,-1.62,
6.415,3.11,-0.19,-1.96,-1.11,0.09,-1.62,
6.422,3.11,-0.19,-1.96,-1.40,0.09,-1.79,
6.423,3.11,-0.19,-1.96,-1.40,0.09,-1.79,
6.424,4.52,-0.34,-1.69,-1.40,0.09,-1.79,
6.424,4.52,-0.34,-1.69,-1.40,0.09,-1.79,
6.432,4.52,-0.34,-1.69,-1.55,0.09,-2.04,
6.433,4.52,-0.34,-1.69,-1.55,0.09,-2.04,
6.433,4.80,-0.73,-1.59,-1.55,0.09,-2.04,
6.434,4.80,-0.73,-1.59,-1.55,0.09,-2.04,
6.442,4.80,-0.73,-1.59,-1.55,0.08,-2.39,
6.443,4.80,-0.73,-1.59,-1.55,0.08,-2.39,
6.444,4.98,-2.30,-1.79,-1.55,0.08,-2.39,
6.444,4.98,-2.30,-1.79,-1.55,0.08,-2.39,
6.464,4.98,-2.30,-1.79,-1.43,0.04,-2.79,
6.465,4.98,-2.30,-1.79,-1.43,0.04,-2.79,
6.465,4.88,-4.32,-2.32,-1.43,0.04,-2.79,
6.465,4.88,-4.32,-2.32,-1.43,0.04,-2.79,
6.466,4.88,-4.32,-2.32,-1.28,-0.02,-3.07,
6.466,4.88,-4.32,-2.32,-1.28,-0.02,-3.07,
6.466,3.20,-4.76,-4.02,-1.28,-0.02,-3.07,
6.467,3.20,-4.76,-4.02,-1.28,-0.02,-3.07,
6.472,3.20,-4.76,-4.02,-1.21,-0.09,-3.06,
6.473,3.20,-4.76,-4.02,-1.21,-0.09,-3.06,
6.473,1.24,-5.37,-5.81,-1.21,-0.09,-3.06,
6.473,1.24,-5.37,-5.81,-1.21,-0.09,-3.06,
6.487,1.24,-5.37,-5.81,-1.21,-0.09,-3.06,
6.488,1.24,-5.37,-5.81,-1.21,-0.09,-3.06,
6.488,1.24,-5.37,-5.81,-1.21,-0.09,-3.06,
6.488,1.24,-5.37,-5.81,-1.21,-0.09,-3.06,
6.49,1.24,-5.37,-5.81,-1.33,-0.15,-2.65,
6.49,1.24,-5.37,-5.81,-1.33,-0.15,-2.65,
6.49,-2.36,-5.93,-7.96,-1.33,-0.15,-2.65,
6.491,-2.36,-5.93,-7.96,-1.33,-0.15,-2.65,
6.499,-2.36,-5.93,-7.96,-1.73,-0.19,-1.81,
6.5,-2.36,-5.93,-7.96,-1.73,-0.19,-1.81,
6.5,-2.75,-5.96,-8.21,-1.73,-0.19,-1.81,
6.5,-2.75,-5.96,-8.21,-1.73,-0.19,-1.81,
6.509,-2.75,-5.96,-8.21,-2.34,-0.22,-0.62,
6.509,-2.75,-5.96,-8.21,-2.34,-0.22,-0.62,
6.51,-3.26,-5.93,-8.09,-2.34,-0.22,-0.62,
6.51,-3.26,-5.93,-8.09,-2.34,-0.22,-0.62,
6.518,-3.26,-5.93,-8.09,-2.95,-0.23,0.69,
6.519,-3.26,-5.93,-8.09,-2.95,-0.23,0.69,
6.52,-3.75,-5.94,-5.69,-2.95,-0.23,0.69,
6.521,-3.75,-5.94,-5.69,-2.95,-0.23,0.69,
6.528,-3.75,-5.94,-5.69,-3.29,-0.26,1.81,
6.528,-3.75,-5.94,-5.69,-3.29,-0.26,1.81,
6.529,-4.25,-5.90,-2.53,-3.29,-0.26,1.81,
6.53,-4.25,-5.90,-2.53,-3.29,-0.26,1.81,
6.537,-4.25,-5.90,-2.53,-3.18,-0.33,2.58,
6.538,-4.25,-5.90,-2.53,-3.18,-0.33,2.58,
6.539,-4.80,-5.83,1.05,-3.18,-0.33,2.58,
6.539,-4.80,-5.83,1.05,-3.18,-0.33,2.58,
6.551,-4.80,-5.83,1.05,-2.53,-0.45,3.04,
6.552,-4.80,-5.83,1.05,-2.53,-0.45,3.04,
6.552,-5.27,-5.69,4.43,-2.53,-0.45,3.04,
6.553,-5.27,-5.69,4.43,-2.53,-0.45,3.04,
6.556,-5.27,-5.69,4.43,-1.38,-0.62,3.30,
6.557,-5.27,-5.69,4.43,-1.38,-0.62,3.30,
6.557,-5.62,-5.43,6.22,-1.38,-0.62,3.30,
6.558,-5.62,-5.43,6.22,-1.38,-0.62,3.30,
6.57,-5.62,-5.43,6.22,0.14,-0.78,3.47,
6.571,-5.62,-5.43,6.22,0.14,-0.78,3.47,
6.571,-5.82,-5.03,8.21,0.14,-0.78,3.47,
6.572,-5.82,-5.03,8.21,0.14,-0.78,3.47,
6.576,-5.82,-5.03,8.21,1.80,-0.72,3.17,
6.576,-5.82,-5.03,8.21,1.80,-0.72,3.17,
6.576,-5.72,-3.37,8.42,1.80,-0.72,3.17,
6.577,-5.72,-3.37,8.42,1.80,-0.72,3.17,
6.585,-5.72,-3.37,8.42,3.37,-0.50,2.51,
6.586,-5.72,-3.37,8.42,3.37,-0.50,2.51,
6.586,-5.27,-3.00,8.04,3.37,-0.50,2.51,
6.587,-5.27,-3.00,8.04,3.37,-0.50,2.51,
6.594,-5.27,-3.00,8.04,4.65,-0.31,1.96,
6.595,-5.27,-3.00,8.04,4.65,-0.31,1.96,
6.595,-3.50,-1.12,5.85,4.65,-0.31,1.96,
6.596,-3.50,-1.12,5.85,4.65,-0.31,1.96,
6.604,-3.50,-1.12,5.85,5.53,0.10,1.64,
6.605,-3.50,-1.12,5.85,5.53,0.10,1.64,
6.605,-1.80,-0.81,3.58,5.53,0.10,1.64,
6.606,-1.80,-0.81,3.58,5.53,0.10,1.64,
6.613,-1.80,-0.81,3.58,5.92,0.76,1.35,
6.614,-1.80,-0.81,3.58,5.92,0.76,1.35,
6.614,0.30,-0.37,1.86,5.92,0.76,1.35,
6.615,0.30,-0.37,1.86,5.92,0.76,1.35,
6.623,0.30,-0.37,1.86,5.78,1.38,0.79,
6.623,0.30,-0.37,1.86,5.78,1.38,0.79,
6.624,2.63,-0.09,-0.09,5.78,1.38,0.79,
6.624,2.63,-0.09,-0.09,5.78,1.38,0.79,
6.631,2.63,-0.09,-0.09,5.16,1.85,-0.04,
6.632,2.63,-0.09,-0.09,5.16,1.85,-0.04,
6.632,4.22,-0.06,0.36,5.16,1.85,-0.04,
6.633,4.22,-0.06,0.36,5.16,1.85,-0.04,
6.641,4.22,-0.06,0.36,4.17,2.13,-1.11,
6.642,4.22,-0.06,0.36,4.17,2.13,-1.11,
6.643,5.61,-0.24,-1.26,4.17,2.13,-1.11,
6.643,5.61,-0.24,-1.26,4.17,2.13,-1.11,
6.652,5.61,-0.24,-1.26,2.98,2.21,-2.37,
6.653,5.61,-0.24,-1.26,2.98,2.21,-2.37,
6.654,5.41,-0.64,-3.59,2.98,2.21,-2.37,
6.654,5.41,-0.64,-3.59,2.98,2.21,-2.37,
6.662,5.41,-0.64,-3.59,1.64,2.06,-3.67,
6.663,5.41,-0.64,-3.59,1.64,2.06,-3.67,
6.664,4.85,-0.93,-3.70,1.64,2.06,-3.67,
6.665,4.85,-0.93,-3.70,1.64,2.06,-3.67,
6.672,4.85,-0.93,-3.70,1.43,1.67,-4.75,
6.673,4.85,-0.93,-3.70,1.43,1.67,-4.75,
6.674,3.21,-1.04,-4.13,1.43,1.67,-4.75,
6.674,3.21,-1.04,-4.13,1.43,1.67,-4.75,
6.68,3.21,-1.04,-4.13,1.43,1.67,-4.75,
6.68,3.21,-1.04,-4.13,1.43,1.67,-4.75,
6.681,3.21,-1.04,-4.13,1.43,1.67,-4.75,
6.681,3.21,-1.04,-4.13,1.43,1.67,-4.75,
6.689,3.21,-1.04,-4.13,1.03,1.12,-5.38,
6.689,3.21,-1.04,-4.13,1.03,1.12,-5.38,
6.69,1.11,-0.60,1.06,1.03,1.12,-5.38,
6.69,1.11,-0.60,1.06,1.03,1.12,-5.38,
6.698,1.11,-0.60,1.06,-0.40,0.61,-5.40,
6.699,1.11,-0.60,1.06,-0.40,0.61,-5.40,
6.7,-0.48,-0.02,1.33,-0.40,0.61,-5.40,
6.7,-0.48,-0.02,1.33,-0.40,0.61,-5.40,
6.708,-0.48,-0.02,1.33,-1.03,0.32,-4.81,
6.709,-0.48,-0.02,1.33,-1.03,0.32,-4.81,
6.71,-1.00,1.44,1.61,-1.03,0.32,-4.81,
6.71,-1.00,1.44,1.61,-1.03,0.32,-4.81,
6.718,-1.00,1.44,1.61,-0.91,0.25,-3.77,
6.719,-1.00,1.44,1.61,-0.91,0.25,-3.77,
6.72,-1.60,1.89,1.78,-0.91,0.25,-3.77,
6.72,-1.60,1.89,1.78,-0.91,0.25,-3.77,
6.727,-1.60,1.89,1.78,-0.48,0.28,-2.54,
6.728,-1.60,1.89,1.78,-0.48,0.28,-2.54,
6.729,-2.08,3.56,1.95,-0.48,0.28,-2.54,
6.73,-2.08,3.56,1.95,-0.48,0.28,-2.54,
6.737,-2.08,3.56,1.95,0.02,0.31,-1.33,
6.738,-2.08,3.56,1.95,0.02,0.31,-1.33,
6.738,-2.40,3.84,2.21,0.02,0.31,-1.33,
6.739,-2.40,3.84,2.21,0.02,0.31,-1.33,
6.751,-2.40,3.84,2.21,0.57,0.28,-0.24,
6.752,-2.40,3.84,2.21,0.57,0.28,-0.24,
6.752,-2.55,4.30,2.57,0.57,0.28,-0.24,
6.753,-2.55,4.30,2.57,0.57,0.28,-0.24,
6.756,-2.55,4.30,2.57,1.06,0.23,0.74,
6.757,-2.55,4.30,2.57,1.06,0.23,0.74,
6.757,-2.64,4.83,2.92,1.06,0.23,0.74,
6.757,-2.64,4.83,2.92,1.06,0.23,0.74,
6.769,-2.64,4.83,2.92,1.55,0.20,1.61,
6.77,-2.64,4.83,2.92,1.55,0.20,1.61,
6.77,-2.73,5.27,3.17,1.55,0.20,1.61,
6.77,-2.73,5.27,3.17,1.55,0.20,1.61,
6.774,-2.73,5.27,3.17,2.06,0.22,2.35,
6.775,-2.73,5.27,3.17,2.06,0.22,2.35,
6.775,-2.85,5.59,3.26,2.06,0.22,2.35,
6.776,-2.85,5.59,3.26,2.06,0.22,2.35,
6.784,-2.85,5.59,3.26,2.60,0.34,2.94,
6.785,-2.85,5.59,3.26,2.60,0.34,2.94,
6.785,-2.98,5.79,3.17,2.60,0.34,2.94,
6.786,-2.98,5.79,3.17,2.60,0.34,2.94,
6.794,-2.98,5.79,3.17,3.13,0.53,3.41,
6.795,-2.98,5.79,3.17,3.13,0.53,3.41,
6.795,-3.03,5.80,2.94,3.13,0.53,3.41,
6.796,-3.03,5.80,2.94,3.13,0.53,3.41,
6.803,-3.03,5.80,2.94,3.25,0.71,3.77,
6.804,-3.03,5.80,2.94,3.25,0.71,3.77,
6.805,-2.97,5.64,2.57,3.25,0.71,3.77,
6.805,-2.97,5.64,2.57,3.25,0.71,3.77,
6.813,-2.97,5.64,2.57,2.95,0.71,4.09,
6.814,-2.97,5.64,2.57,2.95,0.71,4.09,
6.814,-2.78,5.32,2.12,2.95,0.71,4.09,
6.814,-2.78,5.32,2.12,2.95,0.71,4.09,
6.822,-2.78,5.32,2.12,2.61,0.71,4.48,
6.823,-2.78,5.32,2.12,2.61,0.71,4.48,
6.823,-2.54,4.87,1.68,2.61,0.71,4.48,
6.824,-2.54,4.87,1.68,2.61,0.71,4.48,
6.831,-2.54,4.87,1.68,1.86,-0.14,5.07,
6.832,-2.54,4.87,1.68,1.86,-0.14,5.07,
6.833,-2.37,4.40,1.30,1.86,-0.14,5.07,
6.833,-2.37,4.40,1.30,1.86,-0.14,5.07,
6.842,-2.37,4.40,1.30,1.31,-2.21,4.83,
6.843,-2.37,4.40,1.30,1.31,-2.21,4.83,
6.843,-2.28,3.94,1.05,1.31,-2.21,4.83,
6.844,-2.28,3.94,1.05,1.31,-2.21,4.83,
6.852,-2.28,3.94,1.05,1.42,-4.19,3.70,
6.853,-2.28,3.94,1.05,1.42,-4.19,3.70,
6.853,-2.28,3.53,0.92,1.42,-4.19,3.70,
6.854,-2.28,3.53,0.92,1.42,-4.19,3.70,
6.861,-2.28,3.53,0.92,1.42,-4.19,3.70,
6.862,-2.28,3.53,0.92,1.42,-4.19,3.70,
6.863,-2.28,3.53,0.92,1.42,-4.19,3.70,
6.863,-2.28,3.53,0.92,1.42,-4.19,3.70,
6.872,-2.28,3.53,0.92,1.59,-5.21,2.71,
6.873,-2.28,3.53,0.92,1.59,-5.21,2.71,
6.873,-2.38,2.99,0.75,1.59,-5.21,2.71,
6.874,-2.38,2.99,0.75,1.59,-5.21,2.71,
6.897,-2.38,2.99,0.75,1.09,-5.18,2.14,
6.898,-2.38,2.99,0.75,1.09,-5.18,2.14,
6.898,-2.33,2.77,0.39,1.09,-5.18,2.14,
6.899,-2.33,2.77,0.39,1.09,-5.18,2.14,
6.899,-2.33,2.77,0.39,0.10,-4.54,1.84,
6.899,-2.33,2.77,0.39,0.10,-4.54,1.84,
6.9,-2.21,2.49,-1.64,0.10,-4.54,1.84,
6.9,-2.21,2.49,-1.64,0.10,-4.54,1.84,
6.903,-2.21,2.49,-1.64,-0.64,-3.72,1.45,
6.904,-2.21,2.49,-1.64,-0.64,-3.72,1.45,
6.904,-2.06,1.91,-4.13,-0.64,-3.72,1.45,
6.904,-2.06,1.91,-4.13,-0.64,-3.72,1.45,
6.908,-2.06,1.91,-4.13,-1.53,-2.95,1.10,
6.908,-2.06,1.91,-4.13,-1.53,-2.95,1.10,
6.908,-1.86,-0.22,-7.34,-1.53,-2.95,1.10,
6.909,-1.86,-0.22,-7.34,-1.53,-2.95,1.10,
6.918,-1.86,-0.22,-7.34,-2.87,-2.16,0.74,
6.919,-1.86,-0.22,-7.34,-2.87,-2.16,0.74,
6.919,-1.29,-4.43,-10.74,-2.87,-2.16,0.74,
6.92,-1.29,-4.43,-10.74,-2.87,-2.16,0.74,
6.927,-1.29,-4.43,-10.74,-4.64,-1.09,0.19,
6.928,-1.29,-4.43,-10.74,-4.64,-1.09,0.19,
6.928,4.13,-8.56,-12.67,-4.64,-1.09,0.19,
6.929,4.13,-8.56,-12.67,-4.64,-1.09,0.19,
6.937,4.13,-8.56,-12.67,-6.33,0.43,-0.75,
6.938,4.13,-8.56,-12.67,-6.33,0.43,-0.75,
6.938,10.06,-10.31,-14.20,-6.33,0.43,-0.75,
6.938,10.06,-10.31,-14.20,-6.33,0.43,-0.75,
6.949,10.06,-10.31,-14.20,-6.14,2.21,-1.27,
6.95,10.06,-10.31,-14.20,-6.14,2.21,-1.27,
6.95,12.62,-10.90,-14.03,-6.14,2.21,-1.27,
6.951,12.62,-10.90,-14.03,-6.14,2.21,-1.27,
6.956,12.62,-10.90,-14.03,-5.35,3.82,-2.13,
6.956,12.62,-10.90,-14.03,-5.35,3.82,-2.13,
6.957,13.19,-10.62,-11.84,-5.35,3.82,-2.13,
6.957,13.19,-10.62,-11.84,-5.35,3.82,-2.13,
6.969,13.19,-10.62,-11.84,-5.33,4.90,-3.78,
6.97,13.19,-10.62,-11.84,-5.33,4.90,-3.78,
6.97,9.71,-6.06,-8.96,-5.33,4.90,-3.78,
6.971,9.71,-6.06,-8.96,-5.33,4.90,-3.78,
6.975,9.71,-6.06,-8.96,-4.85,5.33,-4.83,
6.975,9.71,-6.06,-8.96,-4.85,5.33,-4.83,
6.976,3.85,-4.23,-6.05,-4.85,5.33,-4.83,
6.976,3.85,-4.23,-6.05,-4.85,5.33,-4.83,
6.984,3.85,-4.23,-6.05,-4.10,5.18,-5.09,
6.985,3.85,-4.23,-6.05,-4.10,5.18,-5.09,
6.985,0.13,-2.35,-4.40,-4.10,5.18,-5.09,
6.986,0.13,-2.35,-4.40,-4.10,5.18,-5.09,
6.993,0.13,-2.35,-4.40,-3.20,4.62,-4.61,
6.995,0.13,-2.35,-4.40,-3.20,4.62,-4.61,
6.995,-1.70,-2.08,-2.05,-3.20,4.62,-4.61,
6.995,-1.70,-2.08,-2.05,-3.20,4.62,-4.61,
7.004,-1.70,-2.08,-2.05,-2.21,3.77,-3.51,
7.004,-1.70,-2.08,-2.05,-2.21,3.77,-3.51,
7.005,-3.15,-2.21,-0.74,-2.21,3.77,-3.51,
7.005,-3.15,-2.21,-0.74,-2.21,3.77,-3.51,
7.013,-3.15,-2.21,-0.74,-1.13,2.76,-2.02,
7.014,-3.15,-2.21,-0.74,-1.13,2.76,-2.02,
7.014,-3.43,-2.68,-0.82,-1.13,2.76,-2.02,
7.014,-3.43,-2.68,-0.82,-1.13,2.76,-2.02,
7.024,-3.43,-2.68,-0.82,0.04,1.72,-0.38,
7.024,-3.43,-2.68,-0.82,0.04,1.72,-0.38,
7.025,-3.83,-3.03,-1.10,0.04,1.72,-0.38,
7.025,-3.83,-3.03,-1.10,0.04,1.72,-0.38,
7.031,-3.83,-3.03,-1.10,1.17,0.72,1.18,
7.032,-3.83,-3.03,-1.10,1.17,0.72,1.18,
7.033,-4.01,-2.89,-1.37,1.17,0.72,1.18,
7.033,-4.01,-2.89,-1.37,1.17,0.72,1.18,
7.041,-4.01,-2.89,-1.37,2.07,-0.16,2.47,
7.042,-4.01,-2.89,-1.37,2.07,-0.16,2.47,
7.042,-3.73,-0.76,-1.29,2.07,-0.16,2.47,
7.043,-3.73,-0.76,-1.29,2.07,-0.16,2.47,
7.051,-3.73,-0.76,-1.29,2.61,-0.87,3.42,
7.052,-3.73,-0.76,-1.29,2.61,-0.87,3.42,
7.052,-1.96,0.80,-0.84,2.61,-0.87,3.42,
7.053,-1.96,0.80,-0.84,2.61,-0.87,3.42,
7.061,-1.96,0.80,-0.84,2.82,-1.37,4.01,
7.062,-1.96,0.80,-0.84,2.82,-1.37,4.01,
7.063,-1.53,1.14,-0.19,2.82,-1.37,4.01,
7.063,-1.53,1.14,-0.19,2.82,-1.37,4.01,
7.071,-1.53,1.14,-0.19,2.82,-1.37,4.01,
7.072,-1.53,1.14,-0.19,2.82,-1.37,4.01,
7.073,-1.53,1.14,-0.19,2.82,-1.37,4.01,
7.073,-1.53,1.14,-0.19,2.82,-1.37,4.01,
7.097,-1.53,1.14,-0.19,2.86,-1.63,4.28,
7.098,-1.53,1.14,-0.19,2.86,-1.63,4.28,
7.098,0.72,1.52,0.60,2.86,-1.63,4.28,
7.098,0.72,1.52,0.60,2.86,-1.63,4.28,
7.099,0.72,1.52,0.60,2.91,-1.64,4.23,
7.099,0.72,1.52,0.60,2.91,-1.64,4.23,
7.099,1.34,1.35,0.33,2.91,-1.64,4.23,
7.099,1.34,1.35,0.33,2.91,-1.64,4.23,
7.1,1.34,1.35,0.33,3.09,-1.40,3.85,
7.1,1.34,1.35,0.33,3.09,-1.40,3.85,
7.1,2.93,1.11,-0.16,3.09,-1.40,3.85,
7.1,2.93,1.11,-0.16,3.09,-1.40,3.85,
7.108,2.93,1.11,-0.16,3.37,-0.91,3.13,
7.108,2.93,1.11,-0.16,3.37,-0.91,3.13,
7.109,3.36,0.96,-0.62,3.37,-0.91,3.13,
7.109,3.36,0.96,-0.62,3.37,-0.91,3.13,
7.117,3.36,0.96,-0.62,3.61,-0.68,2.50,
7.118,3.72,0.98,-0.84,3.61,-0.68,2.50,
7.119,3.72,0.98,-0.84,3.61,-0.68,2.50,
7.119,3.72,0.98,-0.84,3.61,-0.68,2.50,
7.127,3.72,0.98,-0.84,3.28,-0.80,1.65,
7.128,3.72,0.98,-0.84,3.28,-0.80,1.65,
