,time,ax,ay,az
0,10.005,-1.57,0.3,1.48
1,10.028,-1.03,0.41,0.93
2,10.03,-0.43,0.35,0.35
3,10.033,-0.43,0.35,0.35
4,10.043,0.81,-0.01,0.1
5,10.053,2.32,-0.16,0.39
6,10.062,2.66,-0.18,0.74
7,10.072,3.07,-0.13,0.95
8,10.081,3.43,0.02,0.87
9,10.091,3.75,0.24,0.48
10,10.101,4.0,0.5,-1.21
11,10.129,4.13,0.74,-1.66
12,10.13,3.98,0.91,-2.32
13,10.131,3.47,1.09,-2.95
14,10.138,3.47,1.09,-2.95
15,10.148,1.22,1.63,-3.36
16,10.157,0.8,2.03,-3.04
17,10.167,0.56,2.37,-1.33
18,10.176,0.54,2.55,-1.01
19,10.186,0.57,2.55,-0.46
20,10.195,0.49,2.4,0.07
21,10.205,0.19,2.19,0.45
22,10.215,-0.28,2.0,0.63
23,10.225,-0.78,1.91,0.64
24,10.237,-1.15,1.94,0.55
25,10.245,-1.33,1.99,0.43
26,10.252,-1.26,1.99,0.35
27,10.262,-1.05,1.87,0.27
28,10.271,-0.77,1.72,0.25
29,10.281,-0.53,1.57,0.37
30,10.29,-0.38,1.49,0.65
31,10.299,-0.3,1.51,1.0
32,10.325,-0.23,1.57,1.24
33,10.326,-0.07,1.58,1.16
34,10.328,0.17,1.45,0.79
35,10.338,0.17,1.45,0.79
36,10.347,0.73,0.84,0.04
37,10.357,0.82,0.51,-0.09
38,10.366,0.84,0.28,-0.06
39,10.376,0.87,0.14,0.01
40,10.385,0.97,0.06,0.08
41,10.397,1.19,0.06,0.12
42,10.404,1.49,0.03,0.04
43,10.42,1.88,-0.17,-0.23
44,10.423,2.35,-0.63,-0.75
45,10.433,2.91,-2.29,-2.39
46,10.443,3.4,-2.5,-4.17
47,10.452,3.63,-2.77,-4.59
48,10.461,3.48,-3.05,-6.33
49,10.471,1.74,-3.44,-6.49
50,10.48,0.12,-4.01,-6.56
51,10.489,-0.41,-4.66,-6.34
52,10.499,-2.22,-5.25,-5.8
53,10.522,-2.69,-5.61,-4.21
54,10.524,-3.06,-5.68,-3.78
55,10.53,-3.06,-5.68,-3.78
56,10.537,-2.96,-5.19,-2.6
57,10.547,-2.55,-4.87,-2.0
58,10.557,-1.99,-4.6,-1.39
59,10.566,-1.4,-4.36,-0.88
60,10.576,-0.86,-4.09,-0.63
61,10.585,-0.45,-3.71,-0.59
62,10.595,-0.29,-3.12,-0.71
63,10.604,-0.34,-1.49,-0.84
64,10.614,-0.62,-0.94,-0.85
65,10.624,-1.06,0.65,-0.81
66,10.641,-1.52,1.0,-0.75
67,10.643,-1.92,1.37,-0.72
68,10.652,-2.12,1.76,-0.65
69,10.661,-2.09,2.14,-0.48
70,10.671,-1.92,2.58,-0.29
71,10.68,-1.71,3.09,-0.09
72,10.69,-1.56,3.64,0.15
73,10.704,-1.49,4.22,0.43
74,10.728,-1.54,4.71,0.76
75,10.729,-1.65,5.05,1.07
76,10.73,-1.65,5.05,1.07
77,10.737,-1.97,5.0,1.18
78,10.748,-2.05,4.74,1.02
79,10.756,-2.08,4.42,0.8
80,10.765,-2.05,4.12,0.6
81,10.775,-1.92,3.85,0.46
82,10.784,-1.66,3.56,0.35
83,10.794,-1.26,3.19,0.27
84,10.804,-0.73,2.68,0.13
85,10.813,1.28,0.85,-0.25
86,10.823,2.92,0.53,-0.86
87,10.84,3.42,0.14,-2.35
88,10.842,4.98,-0.07,-2.48
89,10.851,5.14,0.01,-2.35
90,10.861,4.98,0.31,-1.89
91,10.87,4.47,0.57,-1.26
92,10.88,2.82,0.74,-0.75
93,10.889,1.19,0.77,-0.52
94,10.9,0.78,0.72,-0.75
95,10.931,-0.86,0.69,-2.87
96,10.933,-0.86,0.69,-2.87
97,10.934,-1.85,0.89,-5.02
98,10.938,-2.02,1.14,-5.13
99,10.947,-1.82,1.36,-4.78
100,10.956,-1.3,1.48,-3.01
101,10.965,-0.6,1.45,-1.27
102,10.975,0.1,1.29,0.48
103,10.985,0.67,1.09,0.72
104,10.994,1.07,0.93,0.97
105,11.004,1.29,0.91,1.07
106,11.026,1.42,1.05,0.98
107,11.028,1.51,1.32,0.65
108,11.032,1.51,1.32,0.65
109,11.044,1.52,1.78,-1.3
110,11.052,1.34,1.65,-2.74
111,11.06,1.03,0.04,-3.03
112,11.07,0.62,-1.99,-3.14
113,11.08,0.2,-4.28,-2.89
114,11.098,-0.17,-5.97,-2.27
115,11.101,-0.4,-5.98,-0.53
116,11.119,-0.51,-4.41,0.09
117,11.121,-0.51,-4.41,0.09
118,11.129,-0.47,-0.33,2.05
119,11.137,-0.52,-0.06,2.49
120,11.147,-0.63,0.25,2.78
121,11.156,-0.78,0.45,2.94
122,11.166,-0.91,0.45,3.06
123,11.175,-0.93,-1.21,3.18
124,11.185,-0.78,-4.12,3.24
125,11.195,-0.31,-7.52,3.08
126,11.203,2.09,-9.16,0.77
127,11.223,4.74,-9.49,-1.38
128,11.224,6.73,-7.53,-1.69
129,11.232,7.16,-4.37,-1.64
130,11.241,6.92,-2.65,1.52
131,11.251,4.96,-0.68,4.52
132,11.261,3.22,-0.18,6.39
133,11.27,1.43,0.4,6.67
134,11.279,1.03,0.94,7.01
135,11.289,0.39,1.29,7.29
136,11.298,-1.07,1.37,7.42
137,11.325,-1.07,1.37,7.42
138,11.326,-1.72,0.84,6.67
139,11.329,-2.0,0.47,4.86
140,11.336,-2.17,0.16,4.25
141,11.346,-2.2,-0.05,3.56
142,11.356,-2.12,-0.16,2.95
143,11.365,-1.88,-0.13,2.4
144,11.375,-1.57,-0.04,1.82
145,11.384,-1.21,0.06,1.08
146,11.393,-0.81,0.13,0.33
147,11.404,-0.34,0.11,-0.33
148,11.412,0.26,0.06,-0.77
149,11.422,1.95,0.03,-0.8
150,11.432,2.25,0.05,-0.55
151,11.452,2.68,0.15,-0.18
152,11.454,3.06,0.26,0.16
153,11.461,3.35,0.42,0.32
154,11.469,3.35,0.42,0.32
155,11.48,3.42,0.74,-0.16
156,11.49,3.42,0.74,-0.16
157,11.5,2.68,0.88,-2.3
158,11.532,2.68,0.88,-2.3
159,11.534,1.45,0.98,-3.18
160,11.535,1.45,0.98,-3.18
161,11.536,0.49,1.38,-3.13
162,11.546,0.28,1.67,-2.69
163,11.556,0.3,1.99,-2.16
164,11.567,0.5,2.2,-1.74
165,11.575,0.71,2.22,-1.53
166,11.583,0.88,2.0,-1.44
167,11.593,1.03,1.62,-1.35
168,11.603,1.23,1.33,-1.22
169,11.613,1.54,1.26,-1.05
170,11.622,1.93,1.49,-0.86
171,11.64,2.26,1.92,-0.68
172,11.641,2.36,2.37,-0.54
173,11.65,2.17,2.7,-0.41
174,11.66,1.72,2.83,-0.3
175,11.669,1.21,2.73,-0.28
176,11.679,0.79,2.43,-0.33
177,11.688,0.79,2.43,-0.33
178,11.698,0.73,1.57,-0.51
179,11.725,0.86,1.3,-0.38
180,11.727,0.87,1.24,-0.16
181,11.728,0.65,1.41,0.07
182,11.736,0.32,1.71,0.14
183,11.746,-0.05,2.01,0.08
184,11.755,-0.29,2.13,0.07
185,11.764,-0.32,1.77,0.13
186,11.774,-0.15,-0.27,0.25
187,11.783,0.23,-4.05,0.32
188,11.792,0.79,-5.76,0.21
189,11.803,2.32,-7.55,-0.22
190,11.813,2.74,-7.65,-1.7
191,11.821,3.07,-7.31,-2.26
192,11.84,3.0,-6.72,-3.84
193,11.842,1.17,-6.31,-4.14
194,11.85,-0.59,-6.33,-4.36
195,11.861,-1.15,-6.64,-4.32
196,11.87,-2.89,-6.98,-3.95
197,11.879,-3.41,-7.1,-2.13
198,11.889,-3.97,-6.77,-1.77
199,11.898,-3.97,-6.77,-1.77
200,11.925,-4.33,-3.63,-0.79
201,11.927,-3.99,-1.91,-0.53
202,11.928,-3.44,-0.12,-0.45
203,11.936,-2.85,0.13,-0.46
204,11.946,-2.4,0.43,-0.51
205,11.955,-2.14,0.6,-0.58
206,11.965,-2.04,0.64,-0.68
207,11.974,-2.06,0.67,-0.81
208,11.983,-2.09,0.78,-0.92
209,11.992,-2.13,1.0,-0.98
210,12.003,-2.11,1.32,-0.97
211,12.025,-2.03,1.71,-0.88
212,12.028,-1.93,2.18,-0.8
213,12.031,-1.78,2.65,-0.67
214,12.052,-1.61,3.08,-0.51
215,12.054,-1.4,3.45,-0.23
216,12.061,-1.14,3.7,0.1
217,12.07,-0.9,3.79,0.39
218,12.08,-0.69,3.71,0.59
219,12.088,-0.69,3.71,0.59
220,12.098,-0.69,3.13,0.58
221,12.121,-0.77,2.76,0.53
222,12.122,-0.86,2.44,0.5
223,12.127,-0.83,2.2,0.51
224,12.135,-0.67,2.08,0.52
225,12.145,-0.39,2.02,0.5
226,12.155,-0.04,2.01,0.43
227,12.164,0.3,2.01,0.3
228,12.174,0.61,2.0,0.08
229,12.183,0.9,1.99,-0.25
230,12.193,1.17,1.94,-0.62
231,12.203,1.37,1.85,-0.97
232,12.213,1.5,1.71,-1.26
233,12.221,1.53,1.57,-1.43
234,12.247,1.5,1.47,-1.51
235,12.249,1.45,1.45,-1.55
236,12.25,1.4,1.52,-1.58
237,12.261,1.34,1.62,-1.62
238,12.27,1.24,1.72,-1.71
239,12.279,1.14,1.78,-1.86
240,12.287,1.14,1.78,-1.86
241,12.297,1.11,1.64,-2.09
242,12.312,1.24,1.38,-2.01
243,12.316,1.42,1.04,-1.77
244,12.342,1.61,0.65,-1.4
245,12.344,1.78,0.26,-1.0
246,12.345,1.91,-0.03,-0.65
247,12.354,1.95,-0.25,-0.37
248,12.364,1.89,-0.31,-0.19
249,12.374,1.76,-0.24,-0.13
250,12.383,1.54,-0.06,-0.17
251,12.393,1.28,0.26,-0.31
252,12.402,0.97,0.67,-0.52
253,12.413,0.66,1.12,-0.74
254,12.421,0.43,1.59,-0.9
255,12.436,0.2,1.98,-0.94
256,12.444,-0.06,2.17,-0.78
257,12.449,-0.41,2.07,-0.46
258,12.46,-0.93,1.53,-0.08
259,12.468,-2.69,-0.47,0.18
260,12.478,-2.69,-0.47,0.18
261,12.487,-3.34,-3.9,0.06
262,12.496,-3.58,-4.07,-0.14
263,12.51,-3.56,-4.16,-0.36
264,12.516,-3.38,-4.01,-0.37
265,12.53,-3.21,-3.61,-0.13
266,12.535,-3.13,-3.13,0.37
267,12.544,-3.1,-2.73,2.01
268,12.554,-3.0,-2.63,2.58
269,12.563,-2.64,-3.01,3.18
270,12.574,-1.13,-4.56,3.51
271,12.583,0.69,-4.98,3.44
272,12.592,2.94,-5.23,3.06
273,12.601,5.11,-4.97,2.68
274,12.611,6.76,-3.03,2.63
275,12.627,6.96,-2.69,3.13
276,12.632,6.75,-2.27,5.08
277,12.64,4.91,-1.94,7.0
278,12.649,3.26,-1.73,7.32
279,12.66,2.78,-1.48,7.75
280,12.668,2.78,-1.48,7.75
281,12.677,-0.96,-0.75,8.0
282,12.687,-1.28,-0.32,7.51
283,12.697,-2.9,0.07,5.78
284,12.71,-3.17,0.37,4.11
285,12.715,-4.91,0.56,1.8
286,12.728,-5.3,0.68,-0.71
287,12.735,-5.77,0.86,-2.66
288,12.744,-5.79,1.1,-3.25
289,12.753,-3.99,1.42,-3.35
290,12.763,-1.7,1.72,-1.87
291,12.773,0.34,1.89,-1.53
292,12.782,0.87,1.95,-1.01
293,12.791,2.4,1.89,-0.55
294,12.801,2.84,1.79,-0.28
295,12.812,3.36,1.73,-0.32
296,12.82,3.94,1.71,-0.68
297,12.833,4.55,1.82,-2.62
298,12.841,5.13,2.03,-3.16
299,12.849,5.5,2.24,-4.89
300,12.859,5.44,2.36,-5.44
301,12.868,5.44,2.36,-5.44
302,12.877,1.55,1.92,-5.77
303,12.887,-0.4,1.58,-3.65
304,12.896,-0.95,1.36,-1.47
305,12.911,-1.54,1.33,0.69
306,12.915,-1.75,1.49,1.16
307,12.929,-1.49,1.76,2.6
308,12.934,0.33,2.03,3.07
309,12.944,0.79,2.2,4.53
310,12.953,2.28,2.18,5.07
311,12.963,2.66,1.91,5.65
312,12.973,3.05,1.46,5.57
313,12.982,3.34,1.04,3.66
314,12.991,3.52,0.67,1.22
315,13.001,3.55,0.33,-0.58
316,13.023,3.44,0.04,-0.66
317,13.025,3.14,-0.36,-0.36
318,13.029,3.14,-0.36,-0.36
319,13.039,2.07,-0.94,0.04
320,13.049,1.5,-1.1,-0.37
321,13.061,1.05,-1.2,-1.9
322,13.067,1.05,-1.2,-1.9
323,13.077,0.84,-1.24,-2.43
324,13.086,0.92,-1.27,-2.57
325,13.096,1.19,-1.43,-2.7
326,13.109,1.63,-1.88,-3.01
327,13.115,2.08,-3.65,-4.64
328,13.127,2.29,-3.91,-4.97
329,13.134,1.96,-4.26,-5.47
330,13.143,0.18,-4.47,-5.54
331,13.153,-1.93,-4.54,-3.45
332,13.162,-3.79,-4.68,-0.92
333,13.172,-4.08,-4.93,1.37
334,13.182,-4.0,-5.36,1.89
335,13.191,-2.19,-5.96,3.51
336,13.201,-1.69,-6.47,3.84
337,13.212,0.05,-6.71,4.26
338,13.22,0.41,-6.51,4.72
339,13.23,0.84,-5.94,4.95
340,13.239,1.1,-4.4,4.81
341,13.248,1.1,-4.4,4.81
342,13.258,1.05,-3.76,2.24
343,13.267,0.69,-3.56,0.29
344,13.277,0.23,-3.4,0.03
345,13.286,-0.34,-3.19,-0.17
346,13.296,-0.91,-2.83,0.02
347,13.31,-1.37,-2.36,1.85
348,13.318,-1.63,-1.82,3.36
349,13.331,-1.64,-1.24,3.75
350,13.334,-1.6,-0.64,4.24
351,13.343,-1.63,-0.07,4.52
352,13.353,-1.72,0.49,4.38
353,13.362,-1.91,0.98,3.88
354,13.372,-2.09,1.38,3.19
355,13.381,-2.24,1.71,1.61
356,13.392,-2.33,1.88,1.23
357,13.403,-2.29,1.93,0.84
358,13.417,-2.17,1.86,0.59
359,13.419,-1.94,1.71,0.56
360,13.434,-1.67,1.54,0.74
361,13.443,-1.46,1.38,1.05
362,13.447,-1.32,1.2,1.33
363,13.457,-1.32,1.2,1.33
364,13.467,-1.42,0.8,1.34
365,13.476,-1.62,0.65,0.99
366,13.486,-1.89,0.56,0.61
367,13.496,-2.21,0.65,0.4
368,13.505,-2.5,0.81,0.44
369,13.515,-2.68,1.06,0.62
370,13.524,-2.72,1.38,0.76
371,13.534,-2.68,1.63,0.68
372,13.545,-2.62,1.82,0.22
373,13.559,-2.59,1.92,-1.8
374,13.566,-2.57,1.92,-3.42
375,13.572,-2.47,1.86,-3.93
376,13.581,-2.18,1.71,-5.73
377,13.591,-1.67,1.5,-5.92
378,13.6,-1.0,1.23,-6.0
379,13.61,0.57,0.89,-6.0
380,13.633,1.02,0.51,-5.99
381,13.635,1.55,0.06,-6.06
382,13.642,2.05,-0.4,-6.15
383,13.648,2.46,-0.82,-6.1
384,13.657,2.46,-0.82,-6.1
385,13.667,3.07,-1.32,-5.41
386,13.677,3.34,-1.24,-4.99
387,13.686,3.47,-0.89,-4.63
388,13.696,3.46,0.74,-4.22
389,13.711,3.28,1.15,-3.69
390,13.714,3.0,3.02,-3.04
391,13.736,2.66,3.35,-2.33
392,13.738,2.18,3.81,-1.62
393,13.745,0.54,3.98,0.24
394,13.753,-3.09,1.49,0.6
395,13.762,-6.72,-3.99,0.8
396,13.773,-8.24,-11.17,-1.37
397,13.781,-8.31,-16.52,-4.72
398,13.791,-6.11,-16.83,-6.14
399,13.8,-3.7,-12.59,-6.16
400,13.81,-3.22,-5.06,-3.29
401,13.819,-3.03,1.98,1.5
402,13.829,-3.0,6.09,5.43
403,13.85,-2.62,8.18,7.27
404,13.852,-2.62,8.18,7.27
405,13.859,0.59,8.65,10.14
406,13.867,2.5,8.48,10.83
407,13.876,2.73,6.49,11.33
408,13.886,2.83,4.04,11.39
409,13.895,2.63,0.98,10.99
410,13.911,2.34,-2.53,8.85
411,13.914,2.4,-6.26,3.8
412,13.935,5.5,-8.12,-1.45
413,13.936,7.14,-8.64,-5.69
414,13.943,8.59,-8.44,-6.24
415,13.952,8.28,-4.68,-6.03
416,13.962,4.83,-1.59,-0.97
417,13.972,1.72,0.24,3.01
418,13.98,-0.37,0.55,5.17
419,13.99,-0.96,0.95,5.4
420,14.0,-2.68,1.29,5.44
421,14.028,-3.15,1.51,5.14
422,14.033,-3.69,1.65,4.51
423,14.043,-3.69,1.65,4.51
424,14.046,-4.45,1.75,2.38
425,14.049,-4.45,1.75,2.38
426,14.057,-4.24,1.59,1.55
427,14.066,-3.71,1.33,1.39
428,14.076,-1.99,1.0,1.35
429,14.086,-1.71,0.6,1.42
430,14.095,-1.28,0.22,1.46
431,14.111,-0.83,0.03,1.43
432,14.114,-0.45,0.0,1.35
433,14.135,-0.23,0.16,1.25
434,14.136,-0.21,0.45,1.15
435,14.143,-0.31,0.77,1.06
436,14.152,-0.47,1.07,0.98
437,14.162,-0.64,1.26,0.99
438,14.172,-0.73,1.35,1.08
439,14.181,-0.73,1.31,1.23
440,14.19,-0.6,1.17,1.41
441,14.2,-0.41,0.98,1.52
442,14.21,-0.18,0.72,1.55
443,14.22,0.01,0.43,1.5
444,14.231,0.16,0.1,1.36
445,14.245,0.16,0.1,1.36
446,14.257,0.41,-0.45,1.03
447,14.259,0.41,-0.45,1.03
448,14.267,0.58,-0.35,0.63
449,14.276,0.63,-0.09,0.28
450,14.285,0.51,0.26,-0.27
451,14.294,0.11,0.56,-2.03
452,14.31,-1.53,0.77,-3.78
453,14.327,-1.65,0.92,-4.0
454,14.329,-1.61,0.91,-3.98
455,14.332,-1.61,0.91,-3.98
456,14.343,0.61,0.77,-1.92
457,14.353,2.4,0.66,-0.28
458,14.362,2.73,0.46,0.05
459,14.372,3.3,-0.01,0.26
460,14.38,3.9,-1.72,0.31
461,14.39,4.44,-3.75,0.17
462,14.399,4.87,-4.12,-0.22
463,14.409,5.0,-4.46,-2.02
464,14.419,4.68,-4.51,-2.5
465,14.432,4.68,-4.51,-2.5
466,14.453,0.77,-3.99,-4.75
467,14.457,-1.26,-3.75,-4.99
468,14.458,-2.99,-3.64,-4.69
469,14.466,-3.17,-3.56,-2.79
470,14.475,-3.33,-3.48,-0.58
471,14.485,-3.33,-3.34,1.5
472,14.494,-3.17,-3.09,3.22
473,14.508,-2.87,-2.77,3.82
474,14.514,-2.46,-2.36,4.47
475,14.527,-2.09,-1.89,5.05
476,14.533,-1.77,-1.46,5.33
477,14.542,-1.45,-1.07,5.12
478,14.551,-1.1,-0.74,3.01
479,14.561,-0.71,-0.5,1.09
480,14.571,-0.2,-0.36,-0.43
481,14.58,0.38,-0.25,-0.76
482,14.589,0.97,-0.25,-1.11
483,14.599,1.51,-0.29,-1.15
484,14.609,1.85,-0.34,-0.81
485,14.618,1.96,-0.4,-0.21
486,14.634,1.96,-0.4,-0.21
487,14.655,1.52,-0.4,0.71
488,14.656,1.04,-0.31,0.86
489,14.657,0.5,-0.17,0.84
490,14.666,0.02,0.03,0.76
491,14.675,-0.44,0.24,0.66
492,14.685,-0.84,0.48,0.53
493,14.694,-1.17,0.75,0.39
494,14.713,-1.47,1.01,0.35
495,14.717,-1.71,1.24,0.32
496,14.734,-1.87,1.42,0.3
497,14.736,-1.94,1.56,0.22
498,14.742,-1.91,1.64,0.03
499,14.751,-1.76,1.69,-0.25
