,time,ax,ay,az
0,10.006,-3.11,-4.29,4.82
1,10.026,-2.95,-3.07,5.42
2,10.066,-0.64,-1.19,0.13
3,10.069,1.54,-0.66,-3.12
4,10.083,2.29,-0.75,-2.65
5,10.101,2.06,-1.0,-0.46
6,10.121,1.19,-0.72,0.06
7,10.139,0.11,0.22,0.69
8,10.159,-0.85,2.35,1.29
9,10.181,-1.42,3.2,1.75
10,10.197,-1.78,4.1,2.21
11,10.216,-2.04,4.8,2.52
12,10.237,-2.08,5.26,2.53
13,10.265,-2.03,5.32,2.39
14,10.272,-1.87,4.79,1.86
15,10.292,-1.75,4.43,1.64
16,10.311,-1.54,4.06,1.29
17,10.33,-1.13,3.21,-1.13
18,10.35,-0.71,-0.48,-6.67
19,10.374,3.62,-7.71,-12.14
20,10.387,10.74,-9.45,-13.6
21,10.407,10.52,-4.19,-9.4
22,10.425,2.76,-0.09,-5.08
23,10.462,-0.97,0.51,-1.54
24,10.468,-4.46,-4.05,0.13
25,10.482,-3.8,-4.88,-0.07
26,10.501,-1.74,-2.7,-0.75
27,10.52,0.39,-1.83,-4.08
28,10.539,1.52,0.41,-4.12
29,10.558,1.97,1.28,1.14
30,10.582,1.49,3.22,2.32
31,10.596,0.53,3.47,3.22
32,10.616,-0.07,0.02,3.43
33,10.637,0.36,-1.06,3.53
34,10.666,1.29,-1.77,3.26
35,10.672,2.0,-1.36,1.11
36,10.697,2.88,-0.22,-2.3
37,10.71,3.13,0.46,-2.87
38,10.729,2.8,0.57,-2.48
39,10.757,1.65,0.59,1.4
40,10.774,1.21,0.8,2.28
41,10.786,1.14,0.87,1.63
42,10.807,0.99,0.63,0.6
43,10.825,0.72,0.56,-0.11
44,10.866,0.59,0.63,-0.4
45,10.868,0.53,0.87,-0.41
46,10.882,0.53,0.82,0.01
47,10.901,0.52,0.73,0.26
48,10.92,0.57,0.54,0.23
49,10.94,0.66,0.27,0.11
50,10.959,0.71,0.13,-0.15
51,10.976,0.71,0.07,-0.53
52,10.995,0.99,0.02,-0.87
53,11.015,1.77,-0.0,-1.06
54,11.038,2.26,0.0,-1.11
55,11.07,3.15,-0.57,-3.68
56,11.072,0.85,-2.64,-7.17
57,11.091,-0.09,-4.68,-7.3
58,11.111,-0.68,-4.93,-6.44
59,11.129,-0.49,-4.83,-5.28
60,11.149,-0.25,-5.0,-2.8
61,11.182,-0.57,-5.37,1.59
62,11.188,-1.56,-5.22,6.12
63,11.206,-2.27,-4.26,6.95
64,11.225,-2.14,-2.81,6.71
65,11.268,1.8,-1.35,-3.89
66,11.271,2.28,-0.92,-5.3
67,11.281,1.94,-0.88,-1.31
68,11.3,0.87,-0.5,-0.19
69,11.319,-0.28,0.34,0.77
70,11.338,-1.01,1.55,1.44
71,11.358,-1.42,3.49,1.79
72,11.385,-1.71,4.48,2.15
73,11.396,-2.04,5.4,2.52
74,11.415,-2.23,5.68,2.28
75,11.433,-2.12,5.55,1.95
76,11.46,-1.43,4.4,0.81
77,11.471,-1.13,3.69,0.37
78,11.491,-0.86,3.28,0.06
79,11.511,-0.41,2.95,-0.52
80,11.528,0.18,2.35,-1.5
81,11.55,0.81,0.26,-4.59
82,11.578,1.75,-2.96,-7.96
83,11.585,5.53,-5.14,-10.49
84,11.606,6.46,-5.61,-9.02
85,11.624,6.32,-5.27,-6.03
86,11.659,0.31,0.03,-0.55
87,11.667,-1.8,0.69,0.04
88,11.693,-2.75,-1.62,-1.97
89,11.7,-3.14,-5.45,-3.85
90,11.719,-2.5,-6.45,-3.51
91,11.738,0.96,-4.73,-3.52
92,11.756,1.4,-0.02,-0.78
93,11.785,1.0,3.61,3.13
94,11.796,0.03,4.16,4.24
95,11.815,-2.35,4.24,3.92
96,11.838,-3.21,1.74,3.75
97,11.865,-3.18,0.19,4.01
98,11.872,0.89,-2.05,4.39
99,11.891,4.23,-2.02,3.9
100,11.91,5.87,0.08,-0.08
101,11.928,3.35,0.51,-1.82
102,11.95,0.81,0.54,0.17
103,11.978,-1.1,0.64,3.4
104,11.985,-1.32,1.18,3.48
105,12.005,-0.87,1.47,2.52
106,12.023,-0.51,1.39,0.74
107,12.065,0.62,0.88,0.29
108,12.068,1.19,0.89,0.43
109,12.081,1.49,1.15,0.34
110,12.099,1.39,1.31,0.19
111,12.118,0.96,1.37,-0.01
112,12.138,0.41,1.21,-0.17
113,12.156,0.17,0.88,-0.08
114,12.191,0.48,0.66,0.03
115,12.196,1.13,0.41,0.03
116,12.214,1.39,0.25,0.04
117,12.233,1.4,-0.09,-0.35
118,12.253,1.44,-0.22,-1.09
119,12.271,2.17,-0.64,-1.83
120,12.289,3.0,-1.17,-2.62
121,12.309,2.85,-2.01,-4.78
122,12.328,1.85,-4.2,-5.91
123,12.348,0.81,-5.23,-6.7
124,12.381,-0.36,-5.36,-6.57
125,12.385,-1.45,-5.36,-2.45
126,12.405,-2.2,-5.62,2.42
127,12.423,-3.01,-5.43,6.17
128,12.449,-3.3,-3.4,6.82
129,12.475,-0.99,-2.24,1.91
130,12.48,1.26,-1.23,-3.22
131,12.499,1.81,-0.8,-4.62
132,12.518,-0.41,-0.48,-2.16
133,12.537,-1.03,0.26,-0.02
134,12.556,-1.41,1.33,0.9
135,12.585,-1.41,2.35,1.61
136,12.595,-1.61,3.34,1.99
137,12.613,-2.24,4.22,2.24
138,12.633,-2.78,4.87,2.65
139,12.651,-3.02,5.16,2.82
140,12.677,-2.8,4.98,2.32
141,12.695,-2.3,4.39,1.4
142,12.71,-1.96,3.66,0.48
143,12.752,-1.75,2.96,-0.65
144,12.756,-1.43,0.86,-4.02
145,12.785,-0.53,-1.9,-8.21
146,12.788,5.24,-6.1,-10.47
147,12.804,7.15,-6.54,-10.51
148,12.823,7.22,-2.25,-4.81
149,12.847,1.44,1.21,-2.94
150,12.879,-1.77,1.56,-1.03
151,12.881,-3.88,-2.93,-0.32
152,12.899,-4.16,-5.95,0.18
153,12.918,-2.06,-6.29,0.89
154,12.937,0.15,-2.6,-4.95
155,12.979,1.21,-0.41,-6.68
156,12.981,1.43,1.62,1.43
157,12.994,0.94,3.19,3.34
158,13.013,-1.38,4.19,1.39
159,13.032,-1.37,0.83,1.31
160,13.051,0.59,-1.07,3.7
161,13.078,2.72,-1.69,4.77
162,13.089,3.31,-1.31,4.68
163,13.109,3.81,-0.44,0.44
164,13.127,3.58,0.07,-3.31
165,13.149,2.51,0.3,-2.02
166,13.181,1.39,0.58,1.97
167,13.185,0.72,1.04,2.29
168,13.204,0.52,1.21,2.02
169,13.223,0.18,1.06,1.2
170,13.246,0.15,0.95,1.05
171,13.277,0.57,1.09,0.58
172,13.28,1.06,1.09,0.05
173,13.298,1.31,0.83,-0.14
174,13.317,1.33,0.4,-0.22
175,13.336,1.19,-0.06,-0.47
176,13.355,1.15,-0.38,-0.78
177,13.381,1.36,-0.5,-1.17
178,13.394,1.53,-0.55,-1.4
179,13.413,2.34,-0.69,-1.99
180,13.431,3.34,-0.58,-2.55
181,13.451,4.3,-0.7,-3.34
182,13.478,3.74,-2.69,-5.32
183,13.489,-0.16,-4.81,-6.25
184,13.508,-1.03,-5.41,-6.47
185,13.527,-1.51,-5.02,-5.86
186,13.548,-1.29,-4.73,-2.17
187,13.579,-1.32,-5.18,1.97
188,13.584,-2.19,-5.48,6.35
189,13.603,-3.0,-3.54,8.42
190,13.622,-2.99,-1.63,4.6
191,13.646,-0.84,-0.77,-2.43
192,13.678,1.3,-0.41,-4.09
193,13.692,1.33,-0.59,-1.83
194,13.698,0.68,-0.25,-0.69
195,13.717,0.08,0.68,0.38
196,13.736,-0.3,1.79,1.11
197,13.755,-0.74,3.75,1.81
198,13.777,-1.55,4.56,2.47
199,13.793,-2.37,5.14,3.25
200,13.813,-2.73,5.45,3.8
201,13.831,-2.55,5.35,3.44
202,13.851,-2.11,4.86,2.66
203,13.885,-1.73,4.24,1.94
204,13.889,-1.55,3.58,1.0
205,13.908,-1.3,1.43,-2.76
206,13.927,-0.78,-1.39,-8.23
207,13.946,4.79,-7.11,-11.14
208,13.983,10.7,-8.89,-9.83
209,13.986,11.1,-6.57,-7.95
210,14.003,3.47,0.77,-4.0
211,14.022,-0.44,1.7,-1.87
212,14.041,-3.52,-1.85,1.25
213,14.062,-3.8,-6.59,1.64
214,14.093,-1.58,-6.7,1.92
215,14.098,-0.8,-3.0,-3.64
216,14.117,1.57,-0.68,-7.47
217,14.136,1.97,1.41,-1.41
218,14.156,-0.12,3.74,2.63
219,14.184,-2.06,4.27,2.74
220,14.193,-2.14,0.64,1.93
221,14.212,-0.01,-1.38,2.37
222,14.232,2.18,-2.08,4.38
223,14.25,4.12,-1.73,4.49
224,14.279,5.03,-0.57,0.09
225,14.288,5.28,1.05,-2.55
226,14.307,3.08,1.27,-3.5
227,14.326,1.94,1.25,0.6
228,14.348,0.81,1.38,2.25
229,14.37,0.02,1.39,1.46
230,14.383,-0.22,1.18,0.51
231,14.402,0.02,0.98,0.14
232,14.421,0.85,0.88,-0.28
233,14.445,1.75,0.65,-0.52
234,14.472,2.16,0.21,-0.08
235,14.479,2.04,-0.25,0.27
236,14.497,1.63,-0.44,-0.34
237,14.517,1.22,-0.35,-1.43
238,14.535,1.19,-0.27,-2.22
239,14.555,1.8,-0.34,-2.66
240,14.58,2.29,-0.38,-2.83
241,14.593,3.79,-0.98,-3.2
242,14.613,4.06,-4.1,-5.2
243,14.648,3.14,-6.02,-6.03
244,14.668,-0.5,-6.29,-6.77
245,14.671,-0.99,-6.13,-6.5
246,14.693,-3.67,-5.84,-2.32
247,14.707,-4.52,-5.39,2.28
248,14.726,-5.22,-4.56,6.26
249,14.755,-4.9,-2.49,7.37
250,14.764,-1.44,-0.49,2.53
251,14.783,0.79,-0.03,-4.83
252,14.802,1.18,-0.31,-5.04
253,14.822,0.79,-0.82,-0.9
254,14.845,0.65,-0.64,1.57
255,14.881,0.56,0.27,2.27
256,14.884,0.0,1.5,1.93
257,14.897,-1.11,3.27,1.69
258,14.916,-2.38,4.32,2.36
259,14.936,-3.51,5.43,3.49
260,14.963,-4.39,6.17,3.7
261,14.997,-4.53,6.24,3.34
262,15.002,-4.05,5.9,2.41
263,15.012,-2.74,4.9,1.37
264,15.031,-2.11,2.58,-0.95
265,15.049,-2.05,-0.13,-6.59
266,15.077,0.85,-7.43,-12.07
267,15.088,10.28,-9.65,-12.82
268,15.107,12.09,-5.69,-9.5
269,15.125,4.35,0.21,-5.28
270,15.145,0.27,1.85,-1.4
271,15.163,-1.8,1.45,1.04
272,15.197,-5.69,-4.7,3.13
273,15.202,-4.94,-5.12,2.27
274,15.221,-2.5,-1.73,-4.43
275,15.246,0.13,-1.04,-8.36
276,15.275,2.32,-0.11,-2.85
277,15.278,1.68,3.08,1.69
278,15.297,1.21,3.98,2.31
279,15.316,1.39,1.68,2.17
280,15.336,1.6,-0.41,4.44
281,15.354,1.84,-1.51,6.35
282,15.399,1.96,-1.6,3.93
283,15.401,2.38,-0.97,-3.08
284,15.411,2.76,-0.25,-6.54
285,15.431,2.21,0.49,-4.66
286,15.449,1.25,1.24,0.01
287,15.478,0.19,1.7,2.75
288,15.487,-0.51,1.64,2.66
289,15.506,-0.51,1.3,1.63
290,15.525,0.04,1.21,0.64
291,15.544,0.77,1.53,-0.4
292,15.564,1.11,1.73,-0.67
293,15.599,1.89,1.19,-0.22
294,15.601,1.79,-0.88,-0.16
295,15.62,1.31,-1.39,-0.83
296,15.639,0.53,-1.14,-2.09
297,15.658,-0.15,-0.57,-2.98
298,15.691,0.13,-0.31,-2.87
299,15.7,1.9,-0.28,-2.56
300,15.715,3.25,-0.58,-1.67
301,15.735,3.49,-2.66,-3.37
302,15.754,3.12,-3.07,-5.17
303,15.802,-0.63,-5.3,-9.22
304,15.805,-1.25,-5.2,-8.86
305,15.812,-1.34,-4.8,-5.29
306,15.83,-1.2,-4.71,-1.89
307,15.849,-1.51,-4.81,2.28
308,15.868,-2.31,-4.63,6.51
309,15.898,-2.73,-2.6,7.57
310,15.906,-2.26,-1.69,2.45
311,15.925,1.06,-0.83,-3.33
312,15.944,1.72,-0.86,-4.61
313,15.963,1.41,-1.09,-0.72
314,15.999,0.46,-0.67,0.52
315,16.001,-0.44,0.51,0.98
316,16.02,-0.96,2.45,1.22
317,16.039,-1.38,3.65,1.86
318,16.061,-2.02,4.83,2.53
319,16.092,-2.68,5.54,2.92
320,16.096,-2.96,5.72,2.81
321,16.115,-2.72,5.34,2.29
322,16.137,-2.26,4.63,1.66
323,16.153,-2.03,4.29,1.39
324,16.192,-1.57,3.08,-1.02
325,16.195,-1.44,-1.87,-8.45
326,16.211,4.24,-9.19,-13.91
327,16.23,11.7,-10.13,-12.28
328,16.249,9.49,-4.04,-7.58
329,16.268,1.85,1.34,-5.6
330,16.296,-2.35,1.8,-1.74
331,16.306,-7.0,-2.63,0.44
332,16.325,-4.57,-3.85,0.53
333,16.344,0.61,0.76,0.52
334,16.363,2.73,1.01,0.12
335,16.401,2.72,-0.04,-3.16
336,16.403,0.73,-0.15,-0.71
337,16.42,0.15,0.72,1.32
338,16.439,-0.04,0.95,1.91
339,16.459,0.68,0.24,1.72
340,16.491,4.09,-0.9,1.25
341,16.496,4.7,-1.62,0.57
342,16.517,4.7,-1.34,-1.64
343,16.563,3.58,-0.63,-2.0
344,16.565,1.66,-0.07,-0.16
345,16.577,1.18,0.57,0.77
346,16.591,0.87,1.22,1.3
347,16.611,0.6,1.47,0.66
348,16.629,0.19,1.35,-0.17
349,16.648,-0.07,1.06,-0.32
350,16.667,0.25,0.78,-0.38
351,16.699,0.85,0.63,-0.63
352,16.705,1.18,0.6,-0.62
353,16.726,1.96,0.31,0.08
354,16.743,2.03,0.08,0.28
355,16.762,1.68,-0.46,-0.22
356,16.796,1.3,-0.51,-1.14
357,16.801,1.32,-0.52,-1.9
358,16.82,1.83,-0.67,-2.21
359,16.838,2.69,-0.68,-2.31
360,16.857,3.65,-0.67,-2.92
361,16.879,3.88,-2.57,-4.87
362,16.915,1.71,-4.39,-5.93
363,16.918,0.71,-4.72,-6.58
364,16.934,-0.35,-4.37,-6.25
365,16.953,-0.75,-4.37,-3.78
366,17.002,-1.08,-4.77,-1.17
367,17.005,-1.75,-5.19,3.18
368,17.01,-2.74,-4.98,8.03
369,17.029,-3.08,-2.69,9.82
370,17.048,-0.88,-1.63,2.03
371,17.068,1.41,-1.01,-6.16
372,17.095,1.72,-1.11,-4.79
373,17.105,-0.26,-1.12,-0.7
374,17.124,-1.06,-0.45,0.49
375,17.144,-1.48,0.76,0.79
376,17.162,-1.65,2.71,1.35
377,17.196,-2.1,3.71,2.0
378,17.2,-2.63,4.76,2.71
379,17.22,-2.97,5.59,3.27
380,17.239,-3.0,5.84,3.19
381,17.261,-2.81,5.4,2.63
382,17.295,-2.51,4.72,2.11
383,17.297,-2.09,4.03,1.52
384,17.315,-1.56,3.09,-0.62
385,17.334,-1.31,1.48,-2.42
386,17.352,2.06,-7.16,-9.46
387,17.402,9.51,-8.99,-11.42
388,17.404,10.34,-4.66,-7.75
389,17.41,3.78,-0.42,-4.65
390,17.429,-0.32,0.64,-1.39
391,17.449,-3.5,-0.96,0.45
392,17.467,-3.69,-3.24,0.4
393,17.51,-2.75,-3.72,-0.47
394,17.513,-1.95,-3.0,-0.65
395,17.524,0.32,-1.97,-4.78
396,17.544,3.47,-0.85,-4.87
397,17.562,3.29,2.41,1.02
398,17.606,1.26,3.33,1.39
399,17.611,0.31,3.49,0.97
400,17.619,-0.59,-0.26,1.33
401,17.638,-0.18,-1.27,3.48
402,17.66,1.78,-1.54,3.77
403,17.692,2.88,-0.87,2.86
404,17.699,3.79,-0.17,-0.66
405,17.715,3.54,0.07,-2.84
406,17.733,1.87,0.04,-2.89
407,17.753,1.36,0.23,-0.24
408,17.796,1.2,0.87,1.48
409,17.799,0.93,1.27,1.47
410,17.81,0.51,1.25,0.95
411,17.829,0.05,1.16,0.2
412,17.847,-0.03,1.2,-0.46
413,17.866,0.39,1.21,-0.65
414,17.909,0.81,1.0,-0.37
415,17.911,0.91,0.55,0.06
416,17.924,0.95,0.25,0.19
417,17.943,1.29,-0.47,0.04
418,17.962,1.78,-0.67,-0.57
419,17.996,2.33,-0.66,-1.29
420,18.0,2.53,-0.65,-1.93
421,18.019,2.8,-0.86,-2.49
422,18.039,3.45,-1.19,-2.86
423,18.057,3.36,-2.04,-4.94
424,18.077,1.28,-3.99,-6.96
425,18.095,0.26,-4.56,-6.99
426,18.126,0.09,-4.52,-6.7
427,18.133,0.58,-4.42,-4.04
428,18.152,0.24,-4.84,-1.58
429,18.197,-2.05,-5.34,2.46
430,18.2,-2.63,-5.3,6.07
431,18.209,-2.73,-2.87,6.86
432,18.229,-0.77,-0.75,1.3
433,18.248,0.17,-0.18,-3.8
434,18.267,0.84,-0.65,-3.37
435,18.315,0.59,-1.34,-0.95
436,18.318,0.19,-1.09,0.17
437,18.323,-0.05,-0.6,0.51
438,18.344,-0.84,2.01,1.03
439,18.363,-1.61,2.96,1.75
440,18.401,-2.48,4.2,2.8
441,18.404,-3.24,5.46,3.59
442,18.42,-3.59,6.24,3.51
443,18.453,-3.37,6.15,2.48
444,18.458,-2.85,5.39,1.51
445,18.476,-2.17,4.48,0.92
446,18.502,-1.36,3.5,-1.28
447,18.514,-0.99,1.74,-3.29
448,18.533,1.48,-5.09,-10.88
449,18.552,9.52,-10.08,-12.36
450,18.575,11.31,-7.56,-8.07
451,18.608,4.62,-1.05,-4.23
452,18.611,1.19,2.79,-3.57
453,18.628,-2.41,3.31,-0.3
454,18.647,-4.89,-2.8,1.64
455,18.666,-4.67,-5.48,2.97
456,18.703,-2.22,-5.17,2.2
457,18.706,-1.91,-3.45,0.32
458,18.723,1.99,-0.91,-8.03
459,18.742,2.66,1.25,-1.47
460,18.761,2.03,3.46,0.97
461,18.78,1.13,4.29,1.32
462,18.801,0.82,1.52,1.71
463,18.838,1.01,-1.28,3.85
464,18.84,1.89,-1.84,5.9
465,18.856,2.65,-1.07,3.95
466,18.876,2.9,-0.2,-1.14
467,18.914,2.5,0.1,-5.2
468,18.916,2.01,0.18,-5.36
469,18.932,0.53,0.69,2.48
470,18.953,-0.08,1.32,4.66
471,18.971,-0.53,1.65,2.96
472,18.993,-0.91,1.37,2.04
473,19.029,-1.01,0.86,1.24
474,19.035,-0.7,0.59,0.32
475,19.047,-0.23,0.51,-0.41
476,19.066,0.18,0.36,-0.49
477,19.096,0.49,0.05,-0.43
478,19.105,0.63,-0.18,-0.56
479,19.123,1.0,-0.64,-1.28
480,19.143,1.45,-0.85,-1.68
481,19.161,2.1,-0.94,-1.83
482,19.18,2.76,-0.87,-1.83
483,19.199,3.16,-0.85,-2.12
484,19.23,2.98,-1.39,-2.93
485,19.239,2.45,-3.38,-5.13
486,19.256,2.03,-3.76,-5.87
487,19.276,1.73,-3.7,-6.78
488,19.313,1.27,-3.61,-6.47
489,19.315,0.32,-3.65,-3.09
490,19.333,-1.63,-3.78,1.21
491,19.353,-2.98,-4.02,5.34
492,19.37,-4.08,-3.78,6.17
493,19.394,-3.74,-1.83,3.83
494,19.431,-0.66,-0.93,-0.78
495,19.434,0.23,-0.53,-2.68
496,19.447,1.11,-1.12,-2.02
497,19.466,0.86,-1.78,0.39
498,19.515,-0.34,-1.47,1.16
499,19.521,-1.02,-0.94,1.12
